Time, ax, ay, az, gx, gy, gz
0.000017, 392, 287, 2379, -1675, 69, 5613
0.000182, 392, 287, 2379, -1675, 69, 5613
0.000322, -233, 198, 2024, -2006, -142, 5511
0.000464, -233, 198, 2024, -2006, -142, 5511
0.000602, -233, 198, 2024, -2006, -142, 5511
0.000739, -233, 198, 2024, -2006, -142, 5511
0.000880, -233, 198, 2024, -2006, -142, 5511
0.001017, -233, 198, 2024, -2006, -142, 5511
0.001159, -233, 198, 2024, -2006, -142, 5511
0.001296, -59, 206, 2036, -2096, -625, 5568
0.001433, -59, 206, 2036, -2096, -625, 5568
0.001570, -59, 206, 2036, -2096, -625, 5568
0.001714, -59, 206, 2036, -2096, -625, 5568
0.001851, -59, 206, 2036, -2096, -625, 5568
0.001988, -59, 206, 2036, -2096, -625, 5568
0.002125, -59, 206, 2036, -2096, -625, 5568
0.002262, -59, 206, 2036, -2096, -625, 5568
0.002399, 52, 191, 2014, -2002, -1326, 5420
0.002536, 52, 191, 2014, -2002, -1326, 5420
0.002673, 52, 191, 2014, -2002, -1326, 5420
0.002810, 52, 191, 2014, -2002, -1326, 5420
0.002947, 52, 191, 2014, -2002, -1326, 5420
0.003084, 52, 191, 2014, -2002, -1326, 5420
0.003220, 52, 191, 2014, -2002, -1326, 5420
0.003357, 244, 172, 2011, -1852, -1907, 5230
0.003494, 244, 172, 2011, -1852, -1907, 5230
0.003631, 244, 172, 2011, -1852, -1907, 5230
0.003768, 244, 172, 2011, -1852, -1907, 5230
0.003905, 244, 172, 2011, -1852, -1907, 5230
0.004042, 244, 172, 2011, -1852, -1907, 5230
0.004178, 244, 172, 2011, -1852, -1907, 5230
0.004315, 244, 172, 2011, -1852, -1907, 5230
0.004452, 865, 196, 2163, -1749, -2027, 4941
0.004589, 865, 196, 2163, -1749, -2027, 4941
0.004726, 865, 196, 2163, -1749, -2027, 4941
0.004863, 865, 196, 2163, -1749, -2027, 4941
0.005000, 865, 196, 2163, -1749, -2027, 4941
0.005137, 865, 196, 2163, -1749, -2027, 4941
0.005276, 865, 196, 2163, -1749, -2027, 4941
0.005413, 1873, 261, 2301, -1670, -1731, 4232
0.005551, 1873, 261, 2301, -1670, -1731, 4232
0.005688, 1873, 261, 2301, -1670, -1731, 4232
0.005826, 1873, 261, 2301, -1670, -1731, 4232
0.005963, 1873, 261, 2301, -1670, -1731, 4232
0.006099, 1873, 261, 2301, -1670, -1731, 4232
0.006236, 1873, 261, 2301, -1670, -1731, 4232
0.006376, 2423, 268, 2217, -1569, -1124, 2934
0.006515, 2423, 268, 2217, -1569, -1124, 2934
0.006652, 2423, 268, 2217, -1569, -1124, 2934
0.006789, 2423, 268, 2217, -1569, -1124, 2934
0.006926, 2423, 268, 2217, -1569, -1124, 2934
0.007063, 2423, 268, 2217, -1569, -1124, 2934
0.007200, 2423, 268, 2217, -1569, -1124, 2934
0.007337, 2423, 268, 2217, -1569, -1124, 2934
0.007473, 1697, 112, 2005, -1511, -259, 1568
0.007610, 1697, 112, 2005, -1511, -259, 1568
0.007747, 1697, 112, 2005, -1511, -259, 1568
0.007884, 1697, 112, 2005, -1511, -259, 1568
0.008021, 1697, 112, 2005, -1511, -259, 1568
0.008158, 1697, 112, 2005, -1511, -259, 1568
0.008295, 1697, 112, 2005, -1511, -259, 1568
0.008431, 1708, 121, 2194, -1363, 575, 664
0.008569, 1708, 121, 2194, -1363, 575, 664
0.008705, 1708, 121, 2194, -1363, 575, 664
0.008842, 1708, 121, 2194, -1363, 575, 664
0.008979, 1708, 121, 2194, -1363, 575, 664
0.009116, 1708, 121, 2194, -1363, 575, 664
0.009253, 1708, 121, 2194, -1363, 575, 664
0.009389, 4191, 405, 2425, -1008, 1172, -819
0.009527, 4191, 405, 2425, -1008, 1172, -819
0.009664, 4191, 405, 2425, -1008, 1172, -819
0.009801, 4191, 405, 2425, -1008, 1172, -819
0.009938, 4191, 405, 2425, -1008, 1172, -819
0.010075, 4191, 405, 2425, -1008, 1172, -819
0.010212, 4191, 405, 2425, -1008, 1172, -819
0.010349, 4191, 405, 2425, -1008, 1172, -819
0.010485, 4323, 184, 1889, -843, 1796, -3790
0.010622, 4323, 184, 1889, -843, 1796, -3790
0.010759, 4323, 184, 1889, -843, 1796, -3790
0.010896, 4323, 184, 1889, -843, 1796, -3790
0.011033, 4323, 184, 1889, -843, 1796, -3790
0.011170, 4323, 184, 1889, -843, 1796, -3790
0.011307, 4323, 184, 1889, -843, 1796, -3790
0.011443, -2323, -372, 1642, -836, 2775, -5326
0.011580, -2323, -372, 1642, -836, 2775, -5326
0.011717, -2323, -372, 1642, -836, 2775, -5326
0.011854, -2323, -372, 1642, -836, 2775, -5326
0.011991, -2323, -372, 1642, -836, 2775, -5326
0.012128, -2323, -372, 1642, -836, 2775, -5326
0.012264, -2323, -372, 1642, -836, 2775, -5326
0.012401, -2323, -372, 1642, -836, 2775, -5326
0.012567, -7455, 77, 1871, -422, 3569, -2374
0.012707, -7455, 77, 1871, -422, 3569, -2374
0.012845, -7455, 77, 1871, -422, 3569, -2374
0.012982, -7455, 77, 1871, -422, 3569, -2374
0.013119, -7455, 77, 1871, -422, 3569, -2374
0.013255, -7455, 77, 1871, -422, 3569, -2374
0.013392, -7455, 77, 1871, -422, 3569, -2374
0.013529, -4368, 729, 1630, -101, 3262, 1812
0.013666, -4368, 729, 1630, -101, 3262, 1812
0.013803, -4368, 729, 1630, -101, 3262, 1812
0.013940, -4368, 729, 1630, -101, 3262, 1812
0.014077, -4368, 729, 1630, -101, 3262, 1812
0.014213, -4368, 729, 1630, -101, 3262, 1812
0.014350, -4368, 729, 1630, -101, 3262, 1812
0.014487, -1187, 421, 1772, -540, 2124, 3406
0.014624, -1187, 421, 1772, -540, 2124, 3406
0.014761, -1187, 421, 1772, -540, 2124, 3406
0.014898, -1187, 421, 1772, -540, 2124, 3406
0.015035, -1187, 421, 1772, -540, 2124, 3406
0.015171, -1187, 421, 1772, -540, 2124, 3406
0.015308, -1187, 421, 1772, -540, 2124, 3406
0.015445, -1187, 421, 1772, -540, 2124, 3406
0.015582, -1247, 214, 2287, -1302, 1008, 3983
0.015719, -1247, 214, 2287, -1302, 1008, 3983
0.015855, -1247, 214, 2287, -1302, 1008, 3983
0.015992, -1247, 214, 2287, -1302, 1008, 3983
0.016129, -1247, 214, 2287, -1302, 1008, 3983
0.016266, -1247, 214, 2287, -1302, 1008, 3983
0.016403, -1247, 214, 2287, -1302, 1008, 3983
0.016539, -764, 315, 2287, -1909, 171, 4806
0.016677, -764, 315, 2287, -1909, 171, 4806
0.016813, -764, 315, 2287, -1909, 171, 4806
0.016950, -764, 315, 2287, -1909, 171, 4806
0.017087, -764, 315, 2287, -1909, 171, 4806
0.017224, -764, 315, 2287, -1909, 171, 4806
0.017360, -764, 315, 2287, -1909, 171, 4806
0.017497, -764, 315, 2287, -1909, 171, 4806
0.017634, -234, 221, 2047, -2203, -568, 5073
0.017771, -234, 221, 2047, -2203, -568, 5073
0.017908, -234, 221, 2047, -2203, -568, 5073
0.018045, -234, 221, 2047, -2203, -568, 5073
0.018177, -234, 221, 2047, -2203, -568, 5073
0.018316, -234, 221, 2047, -2203, -568, 5073
0.018454, -234, 221, 2047, -2203, -568, 5073
0.018591, -227, 161, 1969, -2211, -1270, 4991
0.018729, -227, 161, 1969, -2211, -1270, 4991
0.018865, -227, 161, 1969, -2211, -1270, 4991
0.019002, -227, 161, 1969, -2211, -1270, 4991
0.019139, -227, 161, 1969, -2211, -1270, 4991
0.019276, -227, 161, 1969, -2211, -1270, 4991
0.019412, -227, 161, 1969, -2211, -1270, 4991
0.019551, -135, 175, 2016, -2157, -1750, 5003
0.019692, -135, 175, 2016, -2157, -1750, 5003
0.019829, -135, 175, 2016, -2157, -1750, 5003
0.019966, -135, 175, 2016, -2157, -1750, 5003
0.020102, -135, 175, 2016, -2157, -1750, 5003
0.020239, -135, 175, 2016, -2157, -1750, 5003
0.020376, -135, 175, 2016, -2157, -1750, 5003
0.020513, -135, 175, 2016, -2157, -1750, 5003
0.020649, 1, 162, 2029, -2121, -1902, 5016
0.020786, 1, 162, 2029, -2121, -1902, 5016
0.020923, 1, 162, 2029, -2121, -1902, 5016
0.021060, 1, 162, 2029, -2121, -1902, 5016
0.021197, 1, 162, 2029, -2121, -1902, 5016
0.021334, 1, 162, 2029, -2121, -1902, 5016
0.021470, 1, 162, 2029, -2121, -1902, 5016
0.021607, 101, 142, 2036, -2053, -1697, 4928
0.021745, 101, 142, 2036, -2053, -1697, 4928
0.021882, 101, 142, 2036, -2053, -1697, 4928
0.022019, 101, 142, 2036, -2053, -1697, 4928
0.022156, 101, 142, 2036, -2053, -1697, 4928
0.022292, 101, 142, 2036, -2053, -1697, 4928
0.022429, 101, 142, 2036, -2053, -1697, 4928
0.022566, 101, 142, 2036, -2053, -1697, 4928
0.022703, 231, 140, 2084, -1991, -1194, 4752
0.022840, 231, 140, 2084, -1991, -1194, 4752
0.022976, 231, 140, 2084, -1991, -1194, 4752
0.023113, 231, 140, 2084, -1991, -1194, 4752
0.023250, 231, 140, 2084, -1991, -1194, 4752
0.023386, 231, 140, 2084, -1991, -1194, 4752
0.023523, 231, 140, 2084, -1991, -1194, 4752
0.023660, 461, 128, 2128, -1990, -592, 4486
0.023797, 461, 128, 2128, -1990, -592, 4486
0.023934, 461, 128, 2128, -1990, -592, 4486
0.024070, 461, 128, 2128, -1990, -592, 4486
0.024207, 461, 128, 2128, -1990, -592, 4486
0.024344, 461, 128, 2128, -1990, -592, 4486
0.024481, 461, 128, 2128, -1990, -592, 4486
0.024618, 1368, 27, 2219, -2017, -61, 3987
0.024755, 1368, 27, 2219, -2017, -61, 3987
0.024891, 1368, 27, 2219, -2017, -61, 3987
0.025038, 1368, 27, 2219, -2017, -61, 3987
0.025176, 1368, 27, 2219, -2017, -61, 3987
0.025313, 1368, 27, 2219, -2017, -61, 3987
0.025450, 1368, 27, 2219, -2017, -61, 3987
0.025587, 1368, 27, 2219, -2017, -61, 3987
0.025724, 5616, 67, 2774, -1868, 224, 2368
0.025860, 5616, 67, 2774, -1868, 224, 2368
0.025997, 5616, 67, 2774, -1868, 224, 2368
0.026134, 5616, 67, 2774, -1868, 224, 2368
0.026270, 5616, 67, 2774, -1868, 224, 2368
0.026407, 5616, 67, 2774, -1868, 224, 2368
0.026543, 5616, 67, 2774, -1868, 224, 2368
0.026680, 11888, -76, 3638, -1320, 337, -2624
0.026817, 11888, -76, 3638, -1320, 337, -2624
0.026954, 11888, -76, 3638, -1320, 337, -2624
0.027090, 11888, -76, 3638, -1320, 337, -2624
0.027227, 11888, -76, 3638, -1320, 337, -2624
0.027363, 11888, -76, 3638, -1320, 337, -2624
0.027500, 11888, -76, 3638, -1320, 337, -2624
0.027637, 12011, -654, 3953, -178, 926, -10678
0.027774, 12011, -654, 3953, -178, 926, -10678
0.027910, 12011, -654, 3953, -178, 926, -10678
0.028047, 12011, -654, 3953, -178, 926, -10678
0.028184, 12011, -654, 3953, -178, 926, -10678
0.028320, 12011, -654, 3953, -178, 926, -10678
0.028457, 12011, -654, 3953, -178, 926, -10678
0.028593, 12011, -654, 3953, -178, 926, -10678
0.028730, 5505, -417, 2425, 1282, 2204, -17027
0.028867, 5505, -417, 2425, 1282, 2204, -17027
0.029003, 5505, -417, 2425, 1282, 2204, -17027
0.029140, 5505, -417, 2425, 1282, 2204, -17027
0.029277, 5505, -417, 2425, 1282, 2204, -17027
0.029413, 5505, -417, 2425, 1282, 2204, -17027
0.029550, 5505, -417, 2425, 1282, 2204, -17027
0.029686, -815, -6, 1000, 2409, 3611, -19018
0.029824, -815, -6, 1000, 2409, 3611, -19018
0.029961, -815, -6, 1000, 2409, 3611, -19018
0.030098, -815, -6, 1000, 2409, 3611, -19018
0.030235, -815, -6, 1000, 2409, 3611, -19018
0.030372, -815, -6, 1000, 2409, 3611, -19018
0.030508, -815, -6, 1000, 2409, 3611, -19018
0.030645, -815, -6, 1000, 2409, 3611, -19018
0.030782, -4295, -38, 2503, 3766, 4641, -17736
0.030919, -4295, -38, 2503, 3766, 4641, -17736
0.031055, -4295, -38, 2503, 3766, 4641, -17736
0.031192, -4295, -38, 2503, 3766, 4641, -17736
0.031329, -4295, -38, 2503, 3766, 4641, -17736
0.031466, -4295, -38, 2503, 3766, 4641, -17736
0.031602, -4295, -38, 2503, 3766, 4641, -17736
0.031739, -5456, 613, 3932, 5760, 5249, -14660
0.031876, -5456, 613, 3932, 5760, 5249, -14660
0.032013, -5456, 613, 3932, 5760, 5249, -14660
0.032150, -5456, 613, 3932, 5760, 5249, -14660
0.032287, -5456, 613, 3932, 5760, 5249, -14660
0.032423, -5456, 613, 3932, 5760, 5249, -14660
0.032560, -5456, 613, 3932, 5760, 5249, -14660
0.032697, -5456, 613, 3932, 5760, 5249, -14660
0.032834, -5963, 722, 1840, 6667, 5614, -10754
0.032971, -5963, 722, 1840, 6667, 5614, -10754
0.033107, -5963, 722, 1840, 6667, 5614, -10754
0.033244, -5963, 722, 1840, 6667, 5614, -10754
0.033381, -5963, 722, 1840, 6667, 5614, -10754
0.033518, -5963, 722, 1840, 6667, 5614, -10754
0.033654, -5963, 722, 1840, 6667, 5614, -10754
0.033791, -5438, 186, -1330, 4949, 5194, -6691
0.033929, -5438, 186, -1330, 4949, 5194, -6691
0.034065, -5438, 186, -1330, 4949, 5194, -6691
0.034202, -5438, 186, -1330, 4949, 5194, -6691
0.034339, -5438, 186, -1330, 4949, 5194, -6691
0.034476, -5438, 186, -1330, 4949, 5194, -6691
0.034612, -5438, 186, -1330, 4949, 5194, -6691
0.034749, -4058, 312, -425, 2051, 3743, -3466
0.034886, -4058, 312, -425, 2051, 3743, -3466
0.035023, -4058, 312, -425, 2051, 3743, -3466
0.035160, -4058, 312, -425, 2051, 3743, -3466
0.035296, -4058, 312, -425, 2051, 3743, -3466
0.035433, -4058, 312, -425, 2051, 3743, -3466
0.035570, -4058, 312, -425, 2051, 3743, -3466
0.035706, -4058, 312, -425, 2051, 3743, -3466
0.035843, -3449, 411, 2224, 423, 2183, -1120
0.035980, -3449, 411, 2224, 423, 2183, -1120
0.036117, -3449, 411, 2224, 423, 2183, -1120
0.036254, -3449, 411, 2224, 423, 2183, -1120
0.036390, -3449, 411, 2224, 423, 2183, -1120
0.036527, -3449, 411, 2224, 423, 2183, -1120
0.036664, -3449, 411, 2224, 423, 2183, -1120
0.036800, -2615, 218, 2092, -47, 890, 805
0.036937, -2615, 218, 2092, -47, 890, 805
0.037074, -2615, 218, 2092, -47, 890, 805
0.037211, -2615, 218, 2092, -47, 890, 805
0.037352, -2615, 218, 2092, -47, 890, 805
0.037489, -2615, 218, 2092, -47, 890, 805
0.037626, -2615, 218, 2092, -47, 890, 805
0.037763, -2615, 218, 2092, -47, 890, 805
0.037900, -1867, 215, 1442, -528, -408, 2152
0.038037, -1867, 215, 1442, -528, -408, 2152
0.038174, -1867, 215, 1442, -528, -408, 2152
0.038310, -1867, 215, 1442, -528, -408, 2152
0.038447, -1867, 215, 1442, -528, -408, 2152
0.038584, -1867, 215, 1442, -528, -408, 2152
0.038720, -1867, 215, 1442, -528, -408, 2152
0.038857, -1604, 300, 1863, -1033, -1614, 3163
0.038994, -1604, 300, 1863, -1033, -1614, 3163
0.039131, -1604, 300, 1863, -1033, -1614, 3163
0.039268, -1604, 300, 1863, -1033, -1614, 3163
0.039404, -1604, 300, 1863, -1033, -1614, 3163
0.039541, -1604, 300, 1863, -1033, -1614, 3163
0.039678, -1604, 300, 1863, -1033, -1614, 3163
0.039814, -656, 257, 2098, -1242, -2657, 3838
0.039951, -656, 257, 2098, -1242, -2657, 3838
0.040088, -656, 257, 2098, -1242, -2657, 3838
0.040225, -656, 257, 2098, -1242, -2657, 3838
0.040361, -656, 257, 2098, -1242, -2657, 3838
0.040498, -656, 257, 2098, -1242, -2657, 3838
0.040635, -656, 257, 2098, -1242, -2657, 3838
0.040771, -656, 257, 2098, -1242, -2657, 3838
0.040908, 437, 209, 2072, -1198, -3353, 3745
0.041045, 437, 209, 2072, -1198, -3353, 3745
0.041182, 437, 209, 2072, -1198, -3353, 3745
0.041319, 437, 209, 2072, -1198, -3353, 3745
0.041455, 437, 209, 2072, -1198, -3353, 3745
0.041592, 437, 209, 2072, -1198, -3353, 3745
0.041729, 437, 209, 2072, -1198, -3353, 3745
0.041866, 554, 247, 2217, -1158, -3258, 3196
0.042003, 554, 247, 2217, -1158, -3258, 3196
0.042139, 554, 247, 2217, -1158, -3258, 3196
0.042276, 554, 247, 2217, -1158, -3258, 3196
0.042412, 554, 247, 2217, -1158, -3258, 3196
0.042549, 554, 247, 2217, -1158, -3258, 3196
0.042686, 554, 247, 2217, -1158, -3258, 3196
0.042823, 554, 247, 2217, -1158, -3258, 3196
0.042959, 112, 233, 2294, -1213, -2425, 2869
0.043096, 112, 233, 2294, -1213, -2425, 2869
0.043233, 112, 233, 2294, -1213, -2425, 2869
0.043369, 112, 233, 2294, -1213, -2425, 2869
0.043506, 112, 233, 2294, -1213, -2425, 2869
0.043642, 112, 233, 2294, -1213, -2425, 2869
0.043779, 112, 233, 2294, -1213, -2425, 2869
0.043915, 0, 170, 2287, -1251, -1288, 2803
0.044052, 0, 170, 2287, -1251, -1288, 2803
0.044189, 0, 170, 2287, -1251, -1288, 2803
0.044325, 0, 170, 2287, -1251, -1288, 2803
0.044462, 0, 170, 2287, -1251, -1288, 2803
0.044598, 0, 170, 2287, -1251, -1288, 2803
0.044735, 0, 170, 2287, -1251, -1288, 2803
0.044871, 303, 182, 2388, -1233, -210, 2683
0.045008, 303, 182, 2388, -1233, -210, 2683
0.045145, 303, 182, 2388, -1233, -210, 2683
0.045281, 303, 182, 2388, -1233, -210, 2683
0.045418, 303, 182, 2388, -1233, -210, 2683
0.045554, 303, 182, 2388, -1233, -210, 2683
0.045691, 303, 182, 2388, -1233, -210, 2683
0.045828, 303, 182, 2388, -1233, -210, 2683
0.045964, 1581, 258, 2817, -1115, 484, 2177
0.046101, 1581, 258, 2817, -1115, 484, 2177
0.046238, 1581, 258, 2817, -1115, 484, 2177
0.046375, 1581, 258, 2817, -1115, 484, 2177
0.046512, 1581, 258, 2817, -1115, 484, 2177
0.046648, 1581, 258, 2817, -1115, 484, 2177
0.046785, 1581, 258, 2817, -1115, 484, 2177
0.046922, 3280, 323, 3635, -641, 831, 687
0.047059, 3280, 323, 3635, -641, 831, 687
0.047195, 3280, 323, 3635, -641, 831, 687
0.047332, 3280, 323, 3635, -641, 831, 687
0.047469, 3280, 323, 3635, -641, 831, 687
0.047605, 3280, 323, 3635, -641, 831, 687
0.047742, 3280, 323, 3635, -641, 831, 687
0.047879, 3280, 323, 3635, -641, 831, 687
0.048015, 3187, 351, 3930, 332, 1267, -1586
0.048152, 3187, 351, 3930, 332, 1267, -1586
0.048289, 3187, 351, 3930, 332, 1267, -1586
0.048426, 3187, 351, 3930, 332, 1267, -1586
0.048562, 3187, 351, 3930, 332, 1267, -1586
0.048699, 3187, 351, 3930, 332, 1267, -1586
0.048836, 3187, 351, 3930, 332, 1267, -1586
0.048973, 1800, 276, 3189, 1422, 1807, -3358
0.049110, 1800, 276, 3189, 1422, 1807, -3358
0.049246, 1800, 276, 3189, 1422, 1807, -3358
0.049383, 1800, 276, 3189, 1422, 1807, -3358
0.049520, 1800, 276, 3189, 1422, 1807, -3358
0.049656, 1800, 276, 3189, 1422, 1807, -3358
0.049793, 1800, 276, 3189, 1422, 1807, -3358
0.049934, 551, 40, 1731, 2058, 2032, -4276
0.050072, 551, 40, 1731, 2058, 2032, -4276
0.050208, 551, 40, 1731, 2058, 2032, -4276
0.050345, 551, 40, 1731, 2058, 2032, -4276
0.050482, 551, 40, 1731, 2058, 2032, -4276
0.050618, 551, 40, 1731, 2058, 2032, -4276
0.050755, 551, 40, 1731, 2058, 2032, -4276
0.050892, 551, 40, 1731, 2058, 2032, -4276
0.051029, -2004, -85, -68, 1723, 1936, -4262
0.051166, -2004, -85, -68, 1723, 1936, -4262
0.051303, -2004, -85, -68, 1723, 1936, -4262
0.051440, -2004, -85, -68, 1723, 1936, -4262
0.051577, -2004, -85, -68, 1723, 1936, -4262
0.051713, -2004, -85, -68, 1723, 1936, -4262
0.051850, -2004, -85, -68, 1723, 1936, -4262
0.051987, -4672, 124, -486, 523, 1696, -2405
0.052124, -4672, 124, -486, 523, 1696, -2405
0.052261, -4672, 124, -486, 523, 1696, -2405
0.052398, -4672, 124, -486, 523, 1696, -2405
0.052534, -4672, 124, -486, 523, 1696, -2405
0.052671, -4672, 124, -486, 523, 1696, -2405
0.052808, -4672, 124, -486, 523, 1696, -2405
0.052945, -4672, 124, -486, 523, 1696, -2405
0.053081, -4342, 301, 862, -602, 1326, 609
0.053218, -4342, 301, 862, -602, 1326, 609
0.053355, -4342, 301, 862, -602, 1326, 609
0.053492, -4342, 301, 862, -602, 1326, 609
0.053629, -4342, 301, 862, -602, 1326, 609
0.053764, -4342, 301, 862, -602, 1326, 609
0.053899, -4342, 301, 862, -602, 1326, 609
0.054033, -2131, 272, 1949, -1292, 888, 2889
0.054168, -2131, 272, 1949, -1292, 888, 2889
0.054303, -2131, 272, 1949, -1292, 888, 2889
0.054437, -2131, 272, 1949, -1292, 888, 2889
0.054572, -2131, 272, 1949, -1292, 888, 2889
0.054707, -2131, 272, 1949, -1292, 888, 2889
0.054841, -2131, 272, 1949, -1292, 888, 2889
0.054976, -2131, 272, 1949, -1292, 888, 2889
0.055110, -87, 255, 2230, -1818, 328, 3760
0.055245, -87, 255, 2230, -1818, 328, 3760
0.055380, -87, 255, 2230, -1818, 328, 3760
0.055515, -87, 255, 2230, -1818, 328, 3760
0.055649, -87, 255, 2230, -1818, 328, 3760
0.055784, -87, 255, 2230, -1818, 328, 3760
0.055918, -87, 255, 2230, -1818, 328, 3760
0.056053, 1205, 247, 2383, -2168, -308, 3512
0.056188, 1205, 247, 2383, -2168, -308, 3512
0.056322, 1205, 247, 2383, -2168, -308, 3512
0.056457, 1205, 247, 2383, -2168, -308, 3512
0.056592, 1205, 247, 2383, -2168, -308, 3512
0.056726, 1205, 247, 2383, -2168, -308, 3512
0.056861, 1205, 247, 2383, -2168, -308, 3512
0.056995, 1205, 247, 2383, -2168, -308, 3512
0.057130, 1693, 185, 2266, -2210, -903, 2583
0.057265, 1693, 185, 2266, -2210, -903, 2583
0.057399, 1693, 185, 2266, -2210, -903, 2583
0.057534, 1693, 185, 2266, -2210, -903, 2583
0.057668, 1693, 185, 2266, -2210, -903, 2583
0.057803, 1693, 185, 2266, -2210, -903, 2583
0.057937, 1693, 185, 2266, -2210, -903, 2583
0.058072, 938, 75, 1812, -2008, -1375, 1524
0.058206, 938, 75, 1812, -2008, -1375, 1524
0.058340, 938, 75, 1812, -2008, -1375, 1524
0.058474, 938, 75, 1812, -2008, -1375, 1524
0.058609, 938, 75, 1812, -2008, -1375, 1524
0.058743, 938, 75, 1812, -2008, -1375, 1524
0.058878, 938, 75, 1812, -2008, -1375, 1524
0.059012, 938, 75, 1812, -2008, -1375, 1524
0.059147, -467, 15, 1658, -1727, -1514, 1156
0.059281, -467, 15, 1658, -1727, -1514, 1156
0.059416, -467, 15, 1658, -1727, -1514, 1156
0.059550, -467, 15, 1658, -1727, -1514, 1156
0.059684, -467, 15, 1658, -1727, -1514, 1156
0.059819, -467, 15, 1658, -1727, -1514, 1156
0.059953, -467, 15, 1658, -1727, -1514, 1156
0.060088, -524, 108, 1873, -1436, -1322, 1551
0.060222, -524, 108, 1873, -1436, -1322, 1551
0.060357, -524, 108, 1873, -1436, -1322, 1551
0.060491, -524, 108, 1873, -1436, -1322, 1551
0.060625, -524, 108, 1873, -1436, -1322, 1551
0.060760, -524, 108, 1873, -1436, -1322, 1551
0.060894, -524, 108, 1873, -1436, -1322, 1551
0.061029, -524, 108, 1873, -1436, -1322, 1551
0.061163, 589, 168, 2029, -1275, -933, 1711
0.061298, 589, 168, 2029, -1275, -933, 1711
0.061432, 589, 168, 2029, -1275, -933, 1711
0.061567, 589, 168, 2029, -1275, -933, 1711
0.061701, 589, 168, 2029, -1275, -933, 1711
0.061836, 589, 168, 2029, -1275, -933, 1711
0.061970, 589, 168, 2029, -1275, -933, 1711
0.062105, 1066, 139, 2093, -1331, -375, 1200
0.062240, 1066, 139, 2093, -1331, -375, 1200
0.062382, 1066, 139, 2093, -1331, -375, 1200
0.062517, 1066, 139, 2093, -1331, -375, 1200
0.062652, 1066, 139, 2093, -1331, -375, 1200
0.062787, 1066, 139, 2093, -1331, -375, 1200
0.062921, 1066, 139, 2093, -1331, -375, 1200
0.063055, 1066, 139, 2093, -1331, -375, 1200
0.063190, 761, 245, 2050, -1508, 269, 601
0.063325, 761, 245, 2050, -1508, 269, 601
0.063459, 761, 245, 2050, -1508, 269, 601
0.063597, 761, 245, 2050, -1508, 269, 601
0.063734, 761, 245, 2050, -1508, 269, 601
0.063869, 761, 245, 2050, -1508, 269, 601
0.064004, 761, 245, 2050, -1508, 269, 601
0.064138, 637, 330, 1947, -1708, 793, 155
0.064273, 637, 330, 1947, -1708, 793, 155
0.064408, 637, 330, 1947, -1708, 793, 155
0.064542, 637, 330, 1947, -1708, 793, 155
0.064677, 637, 330, 1947, -1708, 793, 155
0.064812, 637, 330, 1947, -1708, 793, 155
0.064944, 637, 330, 1947, -1708, 793, 155
0.065080, 637, 330, 1947, -1708, 793, 155
0.065215, 580, 249, 1932, -1841, 1075, -317
0.065350, 580, 249, 1932, -1841, 1075, -317
0.065485, 580, 249, 1932, -1841, 1075, -317
0.065619, 580, 249, 1932, -1841, 1075, -317
0.065755, 580, 249, 1932, -1841, 1075, -317
0.065889, 580, 249, 1932, -1841, 1075, -317
0.066024, 580, 249, 1932, -1841, 1075, -317
0.066158, 702, 225, 1932, -1925, 1171, -762
0.066293, 702, 225, 1932, -1925, 1171, -762
0.066428, 702, 225, 1932, -1925, 1171, -762
0.066562, 702, 225, 1932, -1925, 1171, -762
0.066697, 702, 225, 1932, -1925, 1171, -762
0.066831, 702, 225, 1932, -1925, 1171, -762
0.066966, 702, 225, 1932, -1925, 1171, -762
0.067100, 702, 225, 1932, -1925, 1171, -762
0.067235, 652, 189, 2067, -1999, 1201, -1224
0.067370, 652, 189, 2067, -1999, 1201, -1224
0.067505, 652, 189, 2067, -1999, 1201, -1224
0.067639, 652, 189, 2067, -1999, 1201, -1224
0.067774, 652, 189, 2067, -1999, 1201, -1224
0.067908, 652, 189, 2067, -1999, 1201, -1224
0.068043, 652, 189, 2067, -1999, 1201, -1224
0.068177, 652, 189, 2067, -1999, 1201, -1224
0.068312, 246, 154, 2244, -1913, 1223, -1543
0.068447, 246, 154, 2244, -1913, 1223, -1543
0.068581, 246, 154, 2244, -1913, 1223, -1543
0.068716, 246, 154, 2244, -1913, 1223, -1543
0.068851, 246, 154, 2244, -1913, 1223, -1543
0.068985, 246, 154, 2244, -1913, 1223, -1543
0.069120, 246, 154, 2244, -1913, 1223, -1543
0.069254, 284, 187, 2147, -1716, 1202, -1713
0.069389, 284, 187, 2147, -1716, 1202, -1713
0.069524, 284, 187, 2147, -1716, 1202, -1713
0.069658, 284, 187, 2147, -1716, 1202, -1713
0.069793, 284, 187, 2147, -1716, 1202, -1713
0.069928, 284, 187, 2147, -1716, 1202, -1713
0.070063, 284, 187, 2147, -1716, 1202, -1713
0.070197, 284, 187, 2147, -1716, 1202, -1713
0.070332, 38, 123, 1966, -1625, 1159, -1918
0.070467, 38, 123, 1966, -1625, 1159, -1918
0.070602, 38, 123, 1966, -1625, 1159, -1918
0.070736, 38, 123, 1966, -1625, 1159, -1918
0.070871, 38, 123, 1966, -1625, 1159, -1918
0.071006, 38, 123, 1966, -1625, 1159, -1918
0.071140, 38, 123, 1966, -1625, 1159, -1918
0.071275, -645, 38, 1980, -1588, 1078, -1814
0.071410, -645, 38, 1980, -1588, 1078, -1814
0.071544, -645, 38, 1980, -1588, 1078, -1814
0.071679, -645, 38, 1980, -1588, 1078, -1814
0.071814, -645, 38, 1980, -1588, 1078, -1814
0.071948, -645, 38, 1980, -1588, 1078, -1814
0.072083, -645, 38, 1980, -1588, 1078, -1814
0.072217, -645, 38, 1980, -1588, 1078, -1814
0.072352, -308, 90, 2204, -1417, 878, -1427
0.072487, -308, 90, 2204, -1417, 878, -1427
0.072621, -308, 90, 2204, -1417, 878, -1427
0.072756, -308, 90, 2204, -1417, 878, -1427
0.072891, -308, 90, 2204, -1417, 878, -1427
0.073025, -308, 90, 2204, -1417, 878, -1427
0.073160, -308, 90, 2204, -1417, 878, -1427
0.073294, 580, 118, 2478, -1066, 592, -1464
0.073429, 580, 118, 2478, -1066, 592, -1464
0.073564, 580, 118, 2478, -1066, 592, -1464
0.073699, 580, 118, 2478, -1066, 592, -1464
0.073834, 580, 118, 2478, -1066, 592, -1464
0.073968, 580, 118, 2478, -1066, 592, -1464
0.074103, 580, 118, 2478, -1066, 592, -1464
0.074237, 580, 118, 2478, -1066, 592, -1464
0.074372, 456, -54, 2710, -559, 331, -1865
0.074507, 456, -54, 2710, -559, 331, -1865
0.074641, 456, -54, 2710, -559, 331, -1865
0.074776, 456, -54, 2710, -559, 331, -1865
0.074918, 456, -54, 2710, -559, 331, -1865
0.075053, 456, -54, 2710, -559, 331, -1865
0.075187, 456, -54, 2710, -559, 331, -1865
0.075322, 583, -59, 2662, 69, 148, -2103
0.075458, 583, -59, 2662, 69, 148, -2103
0.075593, 583, -59, 2662, 69, 148, -2103
0.075728, 583, -59, 2662, 69, 148, -2103
0.075863, 583, -59, 2662, 69, 148, -2103
0.075997, 583, -59, 2662, 69, 148, -2103
0.076132, 583, -59, 2662, 69, 148, -2103
0.076267, 583, -59, 2662, 69, 148, -2103
0.076401, 1358, 248, 2465, 578, 142, -2576
0.076536, 1358, 248, 2465, 578, 142, -2576
0.076671, 1358, 248, 2465, 578, 142, -2576
0.076802, 1358, 248, 2465, 578, 142, -2576
0.076936, 1358, 248, 2465, 578, 142, -2576
0.077071, 1358, 248, 2465, 578, 142, -2576
0.077205, 1358, 248, 2465, 578, 142, -2576
0.077340, 1594, 589, 3542, 1168, 425, -3374
0.077475, 1594, 589, 3542, 1168, 425, -3374
0.077610, 1594, 589, 3542, 1168, 425, -3374
0.077745, 1594, 589, 3542, 1168, 425, -3374
0.077880, 1594, 589, 3542, 1168, 425, -3374
0.078015, 1594, 589, 3542, 1168, 425, -3374
0.078150, 1594, 589, 3542, 1168, 425, -3374
0.078285, 1594, 589, 3542, 1168, 425, -3374
0.078419, 1574, 667, 5550, 2946, 987, -4261
0.078554, 1574, 667, 5550, 2946, 987, -4261
0.078689, 1574, 667, 5550, 2946, 987, -4261
0.078823, 1574, 667, 5550, 2946, 987, -4261
0.078958, 1574, 667, 5550, 2946, 987, -4261
0.079093, 1574, 667, 5550, 2946, 987, -4261
0.079227, 1574, 667, 5550, 2946, 987, -4261
0.079362, -1975, -33, 2383, 4765, 1602, -4611
0.079497, -1975, -33, 2383, 4765, 1602, -4611
0.079631, -1975, -33, 2383, 4765, 1602, -4611
0.079766, -1975, -33, 2383, 4765, 1602, -4611
0.079901, -1975, -33, 2383, 4765, 1602, -4611
0.080035, -1975, -33, 2383, 4765, 1602, -4611
0.080170, -1975, -33, 2383, 4765, 1602, -4611
0.080305, -1975, -33, 2383, 4765, 1602, -4611
0.080439, -6963, -467, -3082, 3677, 1480, -2217
0.080574, -6963, -467, -3082, 3677, 1480, -2217
0.080709, -6963, -467, -3082, 3677, 1480, -2217
0.080843, -6963, -467, -3082, 3677, 1480, -2217
0.080978, -6963, -467, -3082, 3677, 1480, -2217
0.081113, -6963, -467, -3082, 3677, 1480, -2217
0.081247, -6963, -467, -3082, 3677, 1480, -2217
0.081382, -5176, 266, -1074, 1044, 279, 2058
0.081517, -5176, 266, -1074, 1044, 279, 2058
0.081651, -5176, 266, -1074, 1044, 279, 2058
0.081786, -5176, 266, -1074, 1044, 279, 2058
0.081921, -5176, 266, -1074, 1044, 279, 2058
0.082055, -5176, 266, -1074, 1044, 279, 2058
0.082190, -5176, 266, -1074, 1044, 279, 2058
0.082325, -5176, 266, -1074, 1044, 279, 2058
0.082459, -671, 527, 2700, -274, -794, 4196
0.082594, -671, 527, 2700, -274, -794, 4196
0.082729, -671, 527, 2700, -274, -794, 4196
0.082858, -671, 527, 2700, -274, -794, 4196
0.082994, -671, 527, 2700, -274, -794, 4196
0.083130, -671, 527, 2700, -274, -794, 4196
0.083265, -671, 527, 2700, -274, -794, 4196
0.083401, 460, 149, 2575, -690, -1120, 4057
0.083540, 460, 149, 2575, -690, -1120, 4057
0.083675, 460, 149, 2575, -690, -1120, 4057
0.083823, 460, 149, 2575, -690, -1120, 4057
0.083975, 460, 149, 2575, -690, -1120, 4057
0.084119, 460, 149, 2575, -690, -1120, 4057
0.084261, 460, 149, 2575, -690, -1120, 4057
0.084400, 357, 165, 2274, -1002, -1192, 3754
0.084542, 357, 165, 2274, -1002, -1192, 3754
0.084679, 357, 165, 2274, -1002, -1192, 3754
0.084814, 357, 165, 2274, -1002, -1192, 3754
0.084949, 357, 165, 2274, -1002, -1192, 3754
0.085083, 357, 165, 2274, -1002, -1192, 3754
0.085218, 357, 165, 2274, -1002, -1192, 3754
0.085353, 357, 165, 2274, -1002, -1192, 3754
0.085488, 649, 258, 2633, -1167, -1185, 3526
0.085623, 649, 258, 2633, -1167, -1185, 3526
0.085757, 649, 258, 2633, -1167, -1185, 3526
0.085894, 649, 258, 2633, -1167, -1185, 3526
0.086028, 649, 258, 2633, -1167, -1185, 3526
0.086163, 649, 258, 2633, -1167, -1185, 3526
0.086298, 649, 258, 2633, -1167, -1185, 3526
0.086432, 1687, 295, 3267, -759, -1581, 2788
0.086567, 1687, 295, 3267, -759, -1581, 2788
0.086702, 1687, 295, 3267, -759, -1581, 2788
0.086837, 1687, 295, 3267, -759, -1581, 2788
0.086971, 1687, 295, 3267, -759, -1581, 2788
0.087106, 1687, 295, 3267, -759, -1581, 2788
0.087240, 1687, 295, 3267, -759, -1581, 2788
0.087393, 1687, 295, 3267, -759, -1581, 2788
0.087529, 3892, 527, 4972, 766, -2089, 1080
0.087664, 3892, 527, 4972, 766, -2089, 1080
0.087799, 3892, 527, 4972, 766, -2089, 1080
0.087933, 3892, 527, 4972, 766, -2089, 1080
0.088068, 3892, 527, 4972, 766, -2089, 1080
0.088203, 3892, 527, 4972, 766, -2089, 1080
0.088337, 3892, 527, 4972, 766, -2089, 1080
0.088472, 7205, 1344, 7435, 3691, -1633, -2116
0.088607, 7205, 1344, 7435, 3691, -1633, -2116
0.088742, 7205, 1344, 7435, 3691, -1633, -2116
0.088876, 7205, 1344, 7435, 3691, -1633, -2116
0.089011, 7205, 1344, 7435, 3691, -1633, -2116
0.089146, 7205, 1344, 7435, 3691, -1633, -2116
0.089280, 7205, 1344, 7435, 3691, -1633, -2116
0.089415, 7205, 1344, 7435, 3691, -1633, -2116
0.089550, 7248, 1173, 5300, 6678, -159, -6726
0.089685, 7248, 1173, 5300, 6678, -159, -6726
0.089821, 7248, 1173, 5300, 6678, -159, -6726
0.089955, 7248, 1173, 5300, 6678, -159, -6726
0.090085, 7248, 1173, 5300, 6678, -159, -6726
0.090218, 7248, 1173, 5300, 6678, -159, -6726
0.090354, 7248, 1173, 5300, 6678, -159, -6726
0.090490, -730, -800, -2897, 6421, 1644, -9745
0.090625, -730, -800, -2897, 6421, 1644, -9745
0.090760, -730, -800, -2897, 6421, 1644, -9745
0.090895, -730, -800, -2897, 6421, 1644, -9745
0.091030, -730, -800, -2897, 6421, 1644, -9745
0.091164, -730, -800, -2897, 6421, 1644, -9745
0.091299, -730, -800, -2897, 6421, 1644, -9745
0.091434, -730, -800, -2897, 6421, 1644, -9745
0.091568, -9555, -1223, -6155, 2732, 2641, -7282
0.091703, -9555, -1223, -6155, 2732, 2641, -7282
0.091838, -9555, -1223, -6155, 2732, 2641, -7282
0.091973, -9555, -1223, -6155, 2732, 2641, -7282
0.092108, -9555, -1223, -6155, 2732, 2641, -7282
0.092243, -9555, -1223, -6155, 2732, 2641, -7282
0.092377, -9555, -1223, -6155, 2732, 2641, -7282
0.092512, -9405, -131, -747, -244, 2594, -937
0.092647, -9405, -131, -747, -244, 2594, -937
0.092782, -9405, -131, -747, -244, 2594, -937
0.092916, -9405, -131, -747, -244, 2594, -937
0.093051, -9405, -131, -747, -244, 2594, -937
0.093186, -9405, -131, -747, -244, 2594, -937
0.093320, -9405, -131, -747, -244, 2594, -937
0.093455, -9405, -131, -747, -244, 2594, -937
0.093590, -3271, 160, 3254, -746, 2380, 3609
0.093726, -3271, 160, 3254, -746, 2380, 3609
0.093860, -3271, 160, 3254, -746, 2380, 3609
0.093995, -3271, 160, 3254, -746, 2380, 3609
0.094130, -3271, 160, 3254, -746, 2380, 3609
0.094265, -3271, 160, 3254, -746, 2380, 3609
0.094399, -3271, 160, 3254, -746, 2380, 3609
0.094534, -3271, 160, 3254, -746, 2380, 3609
0.094669, 401, 223, 2684, -974, 2137, 4465
0.094804, 401, 223, 2684, -974, 2137, 4465
0.094938, 401, 223, 2684, -974, 2137, 4465
0.095073, 401, 223, 2684, -974, 2137, 4465
0.095208, 401, 223, 2684, -974, 2137, 4465
0.095342, 401, 223, 2684, -974, 2137, 4465
0.095477, 401, 223, 2684, -974, 2137, 4465
0.095612, 151, 340, 2183, -1948, 1672, 4205
0.095746, 151, 340, 2183, -1948, 1672, 4205
0.095881, 151, 340, 2183, -1948, 1672, 4205
0.096016, 151, 340, 2183, -1948, 1672, 4205
0.096151, 151, 340, 2183, -1948, 1672, 4205
0.096285, 151, 340, 2183, -1948, 1672, 4205
0.096420, 151, 340, 2183, -1948, 1672, 4205
0.096555, 151, 340, 2183, -1948, 1672, 4205
0.096689, -473, 231, 2242, -2668, 618, 4332
0.096824, -473, 231, 2242, -2668, 618, 4332
0.096959, -473, 231, 2242, -2668, 618, 4332
0.097094, -473, 231, 2242, -2668, 618, 4332
0.097228, -473, 231, 2242, -2668, 618, 4332
0.097363, -473, 231, 2242, -2668, 618, 4332
0.097498, -473, 231, 2242, -2668, 618, 4332
0.097632, -332, 89, 1829, -2539, -1305, 4302
0.097768, -332, 89, 1829, -2539, -1305, 4302
0.097902, -332, 89, 1829, -2539, -1305, 4302
0.098037, -332, 89, 1829, -2539, -1305, 4302
0.098172, -332, 89, 1829, -2539, -1305, 4302
0.098307, -332, 89, 1829, -2539, -1305, 4302
0.098441, -332, 89, 1829, -2539, -1305, 4302
0.098576, -332, 89, 1829, -2539, -1305, 4302
0.098711, 18, 92, 1779, -1954, -3185, 4043
0.098846, 18, 92, 1779, -1954, -3185, 4043
0.098980, 18, 92, 1779, -1954, -3185, 4043
0.099115, 18, 92, 1779, -1954, -3185, 4043
0.099250, 18, 92, 1779, -1954, -3185, 4043
0.099384, 18, 92, 1779, -1954, -3185, 4043
0.099519, 18, 92, 1779, -1954, -3185, 4043
0.099662, 541, 158, 2055, -1559, -4026, 3896
0.099800, 541, 158, 2055, -1559, -4026, 3896
0.099935, 541, 158, 2055, -1559, -4026, 3896
0.100069, 541, 158, 2055, -1559, -4026, 3896
0.100204, 541, 158, 2055, -1559, -4026, 3896
0.100339, 541, 158, 2055, -1559, -4026, 3896
0.100473, 541, 158, 2055, -1559, -4026, 3896
0.100608, 541, 158, 2055, -1559, -4026, 3896
0.100742, 1037, 165, 2127, -1417, -3761, 3685
0.100877, 1037, 165, 2127, -1417, -3761, 3685
0.101012, 1037, 165, 2127, -1417, -3761, 3685
0.101147, 1037, 165, 2127, -1417, -3761, 3685
0.101281, 1037, 165, 2127, -1417, -3761, 3685
0.101416, 1037, 165, 2127, -1417, -3761, 3685
0.101551, 1037, 165, 2127, -1417, -3761, 3685
0.101685, 1131, 135, 2113, -1301, -2690, 3200
0.101821, 1131, 135, 2113, -1301, -2690, 3200
0.101955, 1131, 135, 2113, -1301, -2690, 3200
0.102090, 1131, 135, 2113, -1301, -2690, 3200
0.102225, 1131, 135, 2113, -1301, -2690, 3200
0.102359, 1131, 135, 2113, -1301, -2690, 3200
0.102494, 1131, 135, 2113, -1301, -2690, 3200
0.102629, 1131, 135, 2113, -1301, -2690, 3200
0.102763, 953, 64, 2225, -1165, -1306, 2656
0.102898, 953, 64, 2225, -1165, -1306, 2656
0.103033, 953, 64, 2225, -1165, -1306, 2656
0.103168, 953, 64, 2225, -1165, -1306, 2656
0.103302, 953, 64, 2225, -1165, -1306, 2656
0.103437, 953, 64, 2225, -1165, -1306, 2656
0.103571, 953, 64, 2225, -1165, -1306, 2656
0.103706, 2048, -7, 2624, -927, -170, 2009
0.103837, 2048, -7, 2624, -927, -170, 2009
0.103974, 2048, -7, 2624, -927, -170, 2009
0.104108, 2048, -7, 2624, -927, -170, 2009
0.104243, 2048, -7, 2624, -927, -170, 2009
0.104378, 2048, -7, 2624, -927, -170, 2009
0.104512, 2048, -7, 2624, -927, -170, 2009
0.104647, 2048, -7, 2624, -927, -170, 2009
0.104782, 5544, 257, 2890, -454, 554, 44
0.104917, 5544, 257, 2890, -454, 554, 44
0.105051, 5544, 257, 2890, -454, 554, 44
0.105186, 5544, 257, 2890, -454, 554, 44
0.105321, 5544, 257, 2890, -454, 554, 44
0.105455, 5544, 257, 2890, -454, 554, 44
0.105590, 5544, 257, 2890, -454, 554, 44
0.105725, 7089, 456, 2647, 113, 1171, -4068
0.105860, 7089, 456, 2647, 113, 1171, -4068
0.105995, 7089, 456, 2647, 113, 1171, -4068
0.106129, 7089, 456, 2647, 113, 1171, -4068
0.106264, 7089, 456, 2647, 113, 1171, -4068
0.106399, 7089, 456, 2647, 113, 1171, -4068
0.106533, 7089, 456, 2647, 113, 1171, -4068
0.106668, 7089, 456, 2647, 113, 1171, -4068
0.106803, 3328, 113, 2730, 833, 2059, -7962
0.106937, 3328, 113, 2730, 833, 2059, -7962
0.107072, 3328, 113, 2730, 833, 2059, -7962
0.107207, 3328, 113, 2730, 833, 2059, -7962
0.107341, 3328, 113, 2730, 833, 2059, -7962
0.107476, 3328, 113, 2730, 833, 2059, -7962
0.107611, 3328, 113, 2730, 833, 2059, -7962
0.107745, -562, -51, 3410, 2194, 3138, -9045
0.107880, -562, -51, 3410, 2194, 3138, -9045
0.108014, -562, -51, 3410, 2194, 3138, -9045
0.108149, -562, -51, 3410, 2194, 3138, -9045
0.108284, -562, -51, 3410, 2194, 3138, -9045
0.108418, -562, -51, 3410, 2194, 3138, -9045
0.108553, -562, -51, 3410, 2194, 3138, -9045
0.108687, -562, -51, 3410, 2194, 3138, -9045
0.108822, -2054, 120, 3365, 3927, 3917, -8256
0.108957, -2054, 120, 3365, 3927, 3917, -8256
0.109091, -2054, 120, 3365, 3927, 3917, -8256
0.109226, -2054, 120, 3365, 3927, 3917, -8256
0.109361, -2054, 120, 3365, 3927, 3917, -8256
0.109495, -2054, 120, 3365, 3927, 3917, -8256
0.109630, -2054, 120, 3365, 3927, 3917, -8256
0.109765, -4413, 254, 1992, 4863, 3960, -6571
0.109900, -4413, 254, 1992, 4863, 3960, -6571
0.110035, -4413, 254, 1992, 4863, 3960, -6571
0.110169, -4413, 254, 1992, 4863, 3960, -6571
0.110303, -4413, 254, 1992, 4863, 3960, -6571
0.110438, -4413, 254, 1992, 4863, 3960, -6571
0.110572, -4413, 254, 1992, 4863, 3960, -6571
0.110707, -4413, 254, 1992, 4863, 3960, -6571
0.110841, -5859, 347, 822, 4389, 3260, -3412
0.110976, -5859, 347, 822, 4389, 3260, -3412
0.111110, -5859, 347, 822, 4389, 3260, -3412
0.111245, -5859, 347, 822, 4389, 3260, -3412
0.111379, -5859, 347, 822, 4389, 3260, -3412
0.111514, -5859, 347, 822, 4389, 3260, -3412
0.111648, -5859, 347, 822, 4389, 3260, -3412
0.111783, -2852, 348, 1187, 3108, 2037, -215
0.111917, -2852, 348, 1187, 3108, 2037, -215
0.112064, -2852, 348, 1187, 3108, 2037, -215
0.112199, -2852, 348, 1187, 3108, 2037, -215
0.112334, -2852, 348, 1187, 3108, 2037, -215
0.112468, -2852, 348, 1187, 3108, 2037, -215
0.112603, -2852, 348, 1187, 3108, 2037, -215
0.112737, -2852, 348, 1187, 3108, 2037, -215
0.112871, 1544, 465, 2812, 2254, 594, 481
0.113006, 1544, 465, 2812, 2254, 594, 481
0.113141, 1544, 465, 2812, 2254, 594, 481
0.113275, 1544, 465, 2812, 2254, 594, 481
0.113410, 1544, 465, 2812, 2254, 594, 481
0.113544, 1544, 465, 2812, 2254, 594, 481
0.113679, 1544, 465, 2812, 2254, 594, 481
0.113813, 2784, 636, 3821, 2483, -418, -1086
0.113948, 2784, 636, 3821, 2483, -418, -1086
0.114083, 2784, 636, 3821, 2483, -418, -1086
0.114218, 2784, 636, 3821, 2483, -418, -1086
0.114352, 2784, 636, 3821, 2483, -418, -1086
0.114487, 2784, 636, 3821, 2483, -418, -1086
0.114621, 2784, 636, 3821, 2483, -418, -1086
0.114756, 2784, 636, 3821, 2483, -418, -1086
0.114891, -244, 124, 2334, 3090, -714, -2319
0.115026, -244, 124, 2334, 3090, -714, -2319
0.115160, -244, 124, 2334, 3090, -714, -2319
0.115295, -244, 124, 2334, 3090, -714, -2319
0.115430, -244, 124, 2334, 3090, -714, -2319
0.115564, -244, 124, 2334, 3090, -714, -2319
0.115699, -244, 124, 2334, 3090, -714, -2319
0.115834, -3373, -487, -134, 2947, -997, -1331
0.115969, -3373, -487, -134, 2947, -997, -1331
0.116103, -3373, -487, -134, 2947, -997, -1331
0.116238, -3373, -487, -134, 2947, -997, -1331
0.116373, -3373, -487, -134, 2947, -997, -1331
0.116508, -3373, -487, -134, 2947, -997, -1331
0.116642, -3373, -487, -134, 2947, -997, -1331
0.116777, -3373, -487, -134, 2947, -997, -1331
0.116912, -2900, -176, -583, 1982, -1776, 750
0.117047, -2900, -176, -583, 1982, -1776, 750
0.117181, -2900, -176, -583, 1982, -1776, 750
0.117316, -2900, -176, -583, 1982, -1776, 750
0.117451, -2900, -176, -583, 1982, -1776, 750
0.117585, -2900, -176, -583, 1982, -1776, 750
0.117721, -2900, -176, -583, 1982, -1776, 750
0.117855, -1782, 220, 707, 908, -2506, 2147
0.117990, -1782, 220, 707, 908, -2506, 2147
0.118125, -1782, 220, 707, 908, -2506, 2147
0.118260, -1782, 220, 707, 908, -2506, 2147
0.118394, -1782, 220, 707, 908, -2506, 2147
0.118529, -1782, 220, 707, 908, -2506, 2147
0.118664, -1782, 220, 707, 908, -2506, 2147
0.118798, -1782, 220, 707, 908, -2506, 2147
0.118933, -1296, 175, 1625, 142, -2606, 3092
0.119068, -1296, 175, 1625, 142, -2606, 3092
0.119203, -1296, 175, 1625, 142, -2606, 3092
0.119337, -1296, 175, 1625, 142, -2606, 3092
0.119472, -1296, 175, 1625, 142, -2606, 3092
0.119607, -1296, 175, 1625, 142, -2606, 3092
0.119742, -1296, 175, 1625, 142, -2606, 3092
0.119876, -249, 175, 2014, -343, -2078, 3748
0.120011, -249, 175, 2014, -343, -2078, 3748
0.120146, -249, 175, 2014, -343, -2078, 3748
0.120281, -249, 175, 2014, -343, -2078, 3748
0.120415, -249, 175, 2014, -343, -2078, 3748
0.120550, -249, 175, 2014, -343, -2078, 3748
0.120685, -249, 175, 2014, -343, -2078, 3748
0.120820, -249, 175, 2014, -343, -2078, 3748
0.120954, 779, 234, 2420, -625, -1307, 3704
0.121089, 779, 234, 2420, -625, -1307, 3704
0.121224, 779, 234, 2420, -625, -1307, 3704
0.121359, 779, 234, 2420, -625, -1307, 3704
0.121493, 779, 234, 2420, -625, -1307, 3704
0.121628, 779, 234, 2420, -625, -1307, 3704
0.121763, 779, 234, 2420, -625, -1307, 3704
0.121898, 779, 234, 2420, -625, -1307, 3704
0.122032, 1671, 204, 2702, -611, -842, 2971
0.122167, 1671, 204, 2702, -611, -842, 2971
0.122302, 1671, 204, 2702, -611, -842, 2971
0.122436, 1671, 204, 2702, -611, -842, 2971
0.122571, 1671, 204, 2702, -611, -842, 2971
0.122706, 1671, 204, 2702, -611, -842, 2971
0.122840, 1671, 204, 2702, -611, -842, 2971
0.122975, 2566, 208, 2757, -260, -774, 1617
0.123110, 2566, 208, 2757, -260, -774, 1617
0.123244, 2566, 208, 2757, -260, -774, 1617
0.123379, 2566, 208, 2757, -260, -774, 1617
0.123514, 2566, 208, 2757, -260, -774, 1617
0.123648, 2566, 208, 2757, -260, -774, 1617
0.123783, 2566, 208, 2757, -260, -774, 1617
0.123918, 2566, 208, 2757, -260, -774, 1617
0.124052, 2950, 231, 2465, 196, -685, -216
0.124187, 2950, 231, 2465, 196, -685, -216
0.124326, 2950, 231, 2465, 196, -685, -216
0.124461, 2950, 231, 2465, 196, -685, -216
0.124596, 2950, 231, 2465, 196, -685, -216
0.124731, 2950, 231, 2465, 196, -685, -216
0.124865, 2950, 231, 2465, 196, -685, -216
0.125000, 1436, 109, 1787, 455, -313, -1907
0.125135, 1436, 109, 1787, 455, -313, -1907
0.125269, 1436, 109, 1787, 455, -313, -1907
0.125404, 1436, 109, 1787, 455, -313, -1907
0.125539, 1436, 109, 1787, 455, -313, -1907
0.125673, 1436, 109, 1787, 455, -313, -1907
0.125808, 1436, 109, 1787, 455, -313, -1907
0.125943, 1436, 109, 1787, 455, -313, -1907
0.126077, -2123, 55, 1186, 439, 266, -2110
0.126212, -2123, 55, 1186, 439, 266, -2110
0.126347, -2123, 55, 1186, 439, 266, -2110
0.126481, -2123, 55, 1186, 439, 266, -2110
0.126616, -2123, 55, 1186, 439, 266, -2110
0.126751, -2123, 55, 1186, 439, 266, -2110
0.126885, -2123, 55, 1186, 439, 266, -2110
0.127020, -3979, 214, 1213, 252, 749, -255
0.127155, -3979, 214, 1213, 252, 749, -255
0.127289, -3979, 214, 1213, 252, 749, -255
0.127424, -3979, 214, 1213, 252, 749, -255
0.127559, -3979, 214, 1213, 252, 749, -255
0.127693, -3979, 214, 1213, 252, 749, -255
0.127828, -3979, 214, 1213, 252, 749, -255
0.127962, -3979, 214, 1213, 252, 749, -255
0.128097, -2358, 310, 1760, -56, 858, 1938
0.128232, -2358, 310, 1760, -56, 858, 1938
0.128366, -2358, 310, 1760, -56, 858, 1938
0.128501, -2358, 310, 1760, -56, 858, 1938
0.128636, -2358, 310, 1760, -56, 858, 1938
0.128770, -2358, 310, 1760, -56, 858, 1938
0.128905, -2358, 310, 1760, -56, 858, 1938
0.129039, -282, 279, 2221, -481, 661, 2841
0.129174, -282, 279, 2221, -481, 661, 2841
0.129309, -282, 279, 2221, -481, 661, 2841
0.129444, -282, 279, 2221, -481, 661, 2841
0.129578, -282, 279, 2221, -481, 661, 2841
0.129714, -282, 279, 2221, -481, 661, 2841
0.129848, -282, 279, 2221, -481, 661, 2841
0.129982, -282, 279, 2221, -481, 661, 2841
0.130116, 612, 243, 2360, -927, 383, 2719
0.130250, 612, 243, 2360, -927, 383, 2719
0.130384, 612, 243, 2360, -927, 383, 2719
0.130519, 612, 243, 2360, -927, 383, 2719
0.130653, 612, 243, 2360, -927, 383, 2719
0.130788, 612, 243, 2360, -927, 383, 2719
0.130922, 612, 243, 2360, -927, 383, 2719
0.131056, 655, 211, 2309, -1206, 134, 2258
0.131191, 655, 211, 2309, -1206, 134, 2258
0.131325, 655, 211, 2309, -1206, 134, 2258
0.131460, 655, 211, 2309, -1206, 134, 2258
0.131594, 655, 211, 2309, -1206, 134, 2258
0.131728, 655, 211, 2309, -1206, 134, 2258
0.131863, 655, 211, 2309, -1206, 134, 2258
0.131997, 655, 211, 2309, -1206, 134, 2258
0.132132, -55, 187, 2114, -1212, -107, 1894
0.132266, -55, 187, 2114, -1212, -107, 1894
0.132401, -55, 187, 2114, -1212, -107, 1894
0.132535, -55, 187, 2114, -1212, -107, 1894
0.132669, -55, 187, 2114, -1212, -107, 1894
0.132804, -55, 187, 2114, -1212, -107, 1894
0.132938, -55, 187, 2114, -1212, -107, 1894
0.133073, -574, 176, 1963, -1049, -423, 1951
0.133207, -574, 176, 1963, -1049, -423, 1951
0.133341, -574, 176, 1963, -1049, -423, 1951
0.133476, -574, 176, 1963, -1049, -423, 1951
0.133610, -574, 176, 1963, -1049, -423, 1951
0.133745, -574, 176, 1963, -1049, -423, 1951
0.133880, -574, 176, 1963, -1049, -423, 1951
0.134015, -574, 176, 1963, -1049, -423, 1951
0.134150, 196, 151, 2188, -817, -787, 2115
0.134285, 196, 151, 2188, -817, -787, 2115
0.134420, 196, 151, 2188, -817, -787, 2115
0.134554, 196, 151, 2188, -817, -787, 2115
0.134689, 196, 151, 2188, -817, -787, 2115
0.134824, 196, 151, 2188, -817, -787, 2115
0.134958, 196, 151, 2188, -817, -787, 2115
0.135093, 1501, 135, 2576, -500, -945, 1661
0.135227, 1501, 135, 2576, -500, -945, 1661
0.135362, 1501, 135, 2576, -500, -945, 1661
0.135497, 1501, 135, 2576, -500, -945, 1661
0.135631, 1501, 135, 2576, -500, -945, 1661
0.135766, 1501, 135, 2576, -500, -945, 1661
0.135900, 1501, 135, 2576, -500, -945, 1661
0.136035, 1501, 135, 2576, -500, -945, 1661
0.136170, 2061, 165, 2470, -201, -623, 563
0.136304, 2061, 165, 2470, -201, -623, 563
0.136439, 2061, 165, 2470, -201, -623, 563
0.136573, 2061, 165, 2470, -201, -623, 563
0.136708, 2061, 165, 2470, -201, -623, 563
0.136842, 2061, 165, 2470, -201, -623, 563
0.136977, 2061, 165, 2470, -201, -623, 563
0.137118, 2053, 135, 1981, -144, 94, -710
0.137253, 2053, 135, 1981, -144, 94, -710
0.137387, 2053, 135, 1981, -144, 94, -710
0.137522, 2053, 135, 1981, -144, 94, -710
0.137656, 2053, 135, 1981, -144, 94, -710
0.137792, 2053, 135, 1981, -144, 94, -710
0.137926, 2053, 135, 1981, -144, 94, -710
0.138061, 2053, 135, 1981, -144, 94, -710
0.138195, 1885, 63, 1739, -253, 851, -1971
0.138330, 1885, 63, 1739, -253, 851, -1971
0.138465, 1885, 63, 1739, -253, 851, -1971
0.138599, 1885, 63, 1739, -253, 851, -1971
0.138734, 1885, 63, 1739, -253, 851, -1971
0.138868, 1885, 63, 1739, -253, 851, -1971
0.139003, 1885, 63, 1739, -253, 851, -1971
0.139137, 1154, 72, 1780, -238, 1457, -3052
0.139272, 1154, 72, 1780, -238, 1457, -3052
0.139407, 1154, 72, 1780, -238, 1457, -3052
0.139541, 1154, 72, 1780, -238, 1457, -3052
0.139676, 1154, 72, 1780, -238, 1457, -3052
0.139810, 1154, 72, 1780, -238, 1457, -3052
0.139945, 1154, 72, 1780, -238, 1457, -3052
0.140079, 1154, 72, 1780, -238, 1457, -3052
0.140214, -196, 156, 1785, -82, 1962, -3517
0.140349, -196, 156, 1785, -82, 1962, -3517
0.140483, -196, 156, 1785, -82, 1962, -3517
0.140618, -196, 156, 1785, -82, 1962, -3517
0.140752, -196, 156, 1785, -82, 1962, -3517
0.140887, -196, 156, 1785, -82, 1962, -3517
0.141021, -196, 156, 1785, -82, 1962, -3517
0.141156, -196, 156, 1785, -82, 1962, -3517
0.141290, -1236, 287, 1811, 45, 2353, -3141
0.141425, -1236, 287, 1811, 45, 2353, -3141
0.141560, -1236, 287, 1811, 45, 2353, -3141
0.141694, -1236, 287, 1811, 45, 2353, -3141
0.141829, -1236, 287, 1811, 45, 2353, -3141
0.141963, -1236, 287, 1811, 45, 2353, -3141
0.142097, -1236, 287, 1811, 45, 2353, -3141
0.142231, -1594, 330, 2018, 113, 2482, -2268
0.142365, -1594, 330, 2018, 113, 2482, -2268
0.142500, -1594, 330, 2018, 113, 2482, -2268
0.142634, -1594, 330, 2018, 113, 2482, -2268
0.142768, -1594, 330, 2018, 113, 2482, -2268
0.142903, -1594, 330, 2018, 113, 2482, -2268
0.143037, -1594, 330, 2018, 113, 2482, -2268
0.143171, -1594, 330, 2018, 113, 2482, -2268
0.143306, -1827, 276, 2029, 92, 2278, -1197
0.143440, -1827, 276, 2029, 92, 2278, -1197
0.143575, -1827, 276, 2029, 92, 2278, -1197
0.143709, -1827, 276, 2029, 92, 2278, -1197
0.143843, -1827, 276, 2029, 92, 2278, -1197
0.143978, -1827, 276, 2029, 92, 2278, -1197
0.144112, -1827, 276, 2029, 92, 2278, -1197
0.144246, -1195, 257, 1880, -122, 1693, -155
0.144381, -1195, 257, 1880, -122, 1693, -155
0.144515, -1195, 257, 1880, -122, 1693, -155
0.144650, -1195, 257, 1880, -122, 1693, -155
0.144784, -1195, 257, 1880, -122, 1693, -155
0.144918, -1195, 257, 1880, -122, 1693, -155
0.145053, -1195, 257, 1880, -122, 1693, -155
0.145187, -1195, 257, 1880, -122, 1693, -155
0.145322, 294, 271, 2040, -447, 860, 197
0.145456, 294, 271, 2040, -447, 860, 197
0.145591, 294, 271, 2040, -447, 860, 197
0.145725, 294, 271, 2040, -447, 860, 197
0.145860, 294, 271, 2040, -447, 860, 197
0.145995, 294, 271, 2040, -447, 860, 197
0.146129, 294, 271, 2040, -447, 860, 197
0.146264, 931, 261, 2338, -633, 177, -243
0.146399, 931, 261, 2338, -633, 177, -243
0.146533, 931, 261, 2338, -633, 177, -243
0.146668, 931, 261, 2338, -633, 177, -243
0.146802, 931, 261, 2338, -633, 177, -243
0.146937, 931, 261, 2338, -633, 177, -243
0.147071, 931, 261, 2338, -633, 177, -243
0.147206, 931, 261, 2338, -633, 177, -243
0.147340, 1151, 183, 2555, -512, -190, -888
0.147475, 1151, 183, 2555, -512, -190, -888
0.147610, 1151, 183, 2555, -512, -190, -888
0.147744, 1151, 183, 2555, -512, -190, -888
0.147879, 1151, 183, 2555, -512, -190, -888
0.148014, 1151, 183, 2555, -512, -190, -888
0.148148, 1151, 183, 2555, -512, -190, -888
0.148283, 1589, 124, 2837, -34, -291, -1692
0.148417, 1589, 124, 2837, -34, -291, -1692
0.148552, 1589, 124, 2837, -34, -291, -1692
0.148686, 1589, 124, 2837, -34, -291, -1692
0.148821, 1589, 124, 2837, -34, -291, -1692
0.148956, 1589, 124, 2837, -34, -291, -1692
0.149090, 1589, 124, 2837, -34, -291, -1692
0.149225, 1589, 124, 2837, -34, -291, -1692
0.149359, 1201, 138, 2868, 696, -123, -2675
0.149494, 1201, 138, 2868, 696, -123, -2675
0.149628, 1201, 138, 2868, 696, -123, -2675
0.149768, 1201, 138, 2868, 696, -123, -2675
0.149903, 1201, 138, 2868, 696, -123, -2675
0.150037, 1201, 138, 2868, 696, -123, -2675
0.150172, 1201, 138, 2868, 696, -123, -2675
0.150306, -686, 166, 2070, 1260, 287, -3114
0.150441, -686, 166, 2070, 1260, 287, -3114
0.150576, -686, 166, 2070, 1260, 287, -3114
0.150711, -686, 166, 2070, 1260, 287, -3114
0.150845, -686, 166, 2070, 1260, 287, -3114
0.150980, -686, 166, 2070, 1260, 287, -3114
0.151114, -686, 166, 2070, 1260, 287, -3114
0.151249, -686, 166, 2070, 1260, 287, -3114
0.151384, -2624, 204, 1217, 1300, 732, -2211
0.151518, -2624, 204, 1217, 1300, 732, -2211
0.151653, -2624, 204, 1217, 1300, 732, -2211
0.151787, -2624, 204, 1217, 1300, 732, -2211
0.151922, -2624, 204, 1217, 1300, 732, -2211
0.152056, -2624, 204, 1217, 1300, 732, -2211
0.152191, -2624, 204, 1217, 1300, 732, -2211
0.152326, -2332, 233, 1305, 971, 919, -532
0.152460, -2332, 233, 1305, 971, 919, -532
0.152595, -2332, 233, 1305, 971, 919, -532
0.152730, -2332, 233, 1305, 971, 919, -532
0.152864, -2332, 233, 1305, 971, 919, -532
0.152999, -2332, 233, 1305, 971, 919, -532
0.153133, -2332, 233, 1305, 971, 919, -532
0.153268, -2332, 233, 1305, 971, 919, -532
0.153402, -1181, 236, 1661, 496, 884, 606
0.153537, -1181, 236, 1661, 496, 884, 606
0.153672, -1181, 236, 1661, 496, 884, 606
0.153807, -1181, 236, 1661, 496, 884, 606
0.153941, -1181, 236, 1661, 496, 884, 606
0.154076, -1181, 236, 1661, 496, 884, 606
0.154210, -1181, 236, 1661, 496, 884, 606
0.154345, -750, 246, 1800, -85, 811, 1182
0.154480, -750, 246, 1800, -85, 811, 1182
0.154614, -750, 246, 1800, -85, 811, 1182
0.154749, -750, 246, 1800, -85, 811, 1182
0.154883, -750, 246, 1800, -85, 811, 1182
0.155018, -750, 246, 1800, -85, 811, 1182
0.155153, -750, 246, 1800, -85, 811, 1182
0.155287, -750, 246, 1800, -85, 811, 1182
0.155422, 18, 272, 2135, -559, 674, 1487
0.155556, 18, 272, 2135, -559, 674, 1487
0.155691, 18, 272, 2135, -559, 674, 1487
0.155826, 18, 272, 2135, -559, 674, 1487
0.155960, 18, 272, 2135, -559, 674, 1487
0.156095, 18, 272, 2135, -559, 674, 1487
0.156229, 18, 272, 2135, -559, 674, 1487
0.156364, 18, 272, 2135, -559, 674, 1487
0.156498, 619, 275, 2414, -714, 471, 1257
0.156633, 619, 275, 2414, -714, 471, 1257
0.156768, 619, 275, 2414, -714, 471, 1257
0.156902, 619, 275, 2414, -714, 471, 1257
0.157037, 619, 275, 2414, -714, 471, 1257
0.157171, 619, 275, 2414, -714, 471, 1257
0.157306, 619, 275, 2414, -714, 471, 1257
0.157440, 625, 250, 2271, -634, 179, 765
0.157575, 625, 250, 2271, -634, 179, 765
0.157717, 625, 250, 2271, -634, 179, 765
0.157852, 625, 250, 2271, -634, 179, 765
0.157987, 625, 250, 2271, -634, 179, 765
0.158121, 625, 250, 2271, -634, 179, 765
0.158256, 625, 250, 2271, -634, 179, 765
0.158390, 625, 250, 2271, -634, 179, 765
0.158525, 490, 201, 1997, -506, -177, 299
0.158659, 490, 201, 1997, -506, -177, 299
0.158794, 490, 201, 1997, -506, -177, 299
0.158929, 490, 201, 1997, -506, -177, 299
0.159063, 490, 201, 1997, -506, -177, 299
0.159198, 490, 201, 1997, -506, -177, 299
0.159332, 490, 201, 1997, -506, -177, 299
0.159467, -655, 132, 1631, -487, -365, 116
0.159602, -655, 132, 1631, -487, -365, 116
0.159736, -655, 132, 1631, -487, -365, 116
0.159871, -655, 132, 1631, -487, -365, 116
0.160005, -655, 132, 1631, -487, -365, 116
0.160140, -655, 132, 1631, -487, -365, 116
0.160275, -655, 132, 1631, -487, -365, 116
0.160409, -655, 132, 1631, -487, -365, 116
0.160544, -1875, 125, 1378, -657, -367, 791
0.160679, -1875, 125, 1378, -657, -367, 791
0.160813, -1875, 125, 1378, -657, -367, 791
0.160948, -1875, 125, 1378, -657, -367, 791
0.161082, -1875, 125, 1378, -657, -367, 791
0.161216, -1875, 125, 1378, -657, -367, 791
0.161351, -1875, 125, 1378, -657, -367, 791
0.161485, -1079, 177, 1750, -892, -370, 1853
0.161620, -1079, 177, 1750, -892, -370, 1853
0.161755, -1079, 177, 1750, -892, -370, 1853
0.161889, -1079, 177, 1750, -892, -370, 1853
0.162024, -1079, 177, 1750, -892, -370, 1853
0.162158, -1079, 177, 1750, -892, -370, 1853
0.162293, -1079, 177, 1750, -892, -370, 1853
0.162427, -1079, 177, 1750, -892, -370, 1853
0.162569, 766, 195, 2321, -1047, -350, 2086
0.162706, 766, 195, 2321, -1047, -350, 2086
0.162840, 766, 195, 2321, -1047, -350, 2086
0.162975, 766, 195, 2321, -1047, -350, 2086
0.163109, 766, 195, 2321, -1047, -350, 2086
0.163244, 766, 195, 2321, -1047, -350, 2086
0.163378, 766, 195, 2321, -1047, -350, 2086
0.163513, 1748, 174, 2478, -1107, -201, 1303
0.163647, 1748, 174, 2478, -1107, -201, 1303
0.163782, 1748, 174, 2478, -1107, -201, 1303
0.163916, 1748, 174, 2478, -1107, -201, 1303
0.164051, 1748, 174, 2478, -1107, -201, 1303
0.164185, 1748, 174, 2478, -1107, -201, 1303
0.164319, 1748, 174, 2478, -1107, -201, 1303
0.164454, 1748, 174, 2478, -1107, -201, 1303
0.164588, 1499, 121, 2250, -1100, 102, 207
0.164723, 1499, 121, 2250, -1100, 102, 207
0.164857, 1499, 121, 2250, -1100, 102, 207
0.164992, 1499, 121, 2250, -1100, 102, 207
0.165126, 1499, 121, 2250, -1100, 102, 207
0.165260, 1499, 121, 2250, -1100, 102, 207
0.165395, 1499, 121, 2250, -1100, 102, 207
0.165529, 820, 56, 2064, -1014, 457, -602
0.165664, 820, 56, 2064, -1014, 457, -602
0.165799, 820, 56, 2064, -1014, 457, -602
0.165933, 820, 56, 2064, -1014, 457, -602
0.166068, 820, 56, 2064, -1014, 457, -602
0.166202, 820, 56, 2064, -1014, 457, -602
0.166337, 820, 56, 2064, -1014, 457, -602
0.166471, 820, 56, 2064, -1014, 457, -602
0.166605, 542, 55, 2255, -728, 669, -1089
0.166740, 542, 55, 2255, -728, 669, -1089
0.166875, 542, 55, 2255, -728, 669, -1089
0.167009, 542, 55, 2255, -728, 669, -1089
0.167143, 542, 55, 2255, -728, 669, -1089
0.167278, 542, 55, 2255, -728, 669, -1089
0.167412, 542, 55, 2255, -728, 669, -1089
0.167547, 564, 180, 2334, -304, 774, -1500
0.167681, 564, 180, 2334, -304, 774, -1500
0.167816, 564, 180, 2334, -304, 774, -1500
0.167951, 564, 180, 2334, -304, 774, -1500
0.168085, 564, 180, 2334, -304, 774, -1500
0.168219, 564, 180, 2334, -304, 774, -1500
0.168354, 564, 180, 2334, -304, 774, -1500
0.168488, 564, 180, 2334, -304, 774, -1500
0.168623, 238, 252, 2071, -45, 920, -1853
0.168757, 238, 252, 2071, -45, 920, -1853
0.168892, 238, 252, 2071, -45, 920, -1853
0.169026, 238, 252, 2071, -45, 920, -1853
0.169161, 238, 252, 2071, -45, 920, -1853
0.169296, 238, 252, 2071, -45, 920, -1853
0.169430, 238, 252, 2071, -45, 920, -1853
0.169565, -658, 185, 1974, -6, 1113, -1825
0.169699, -658, 185, 1974, -6, 1113, -1825
0.169834, -658, 185, 1974, -6, 1113, -1825
0.169969, -658, 185, 1974, -6, 1113, -1825
0.170104, -658, 185, 1974, -6, 1113, -1825
0.170238, -658, 185, 1974, -6, 1113, -1825
0.170373, -658, 185, 1974, -6, 1113, -1825
0.170507, -658, 185, 1974, -6, 1113, -1825
0.170642, -981, 177, 1987, -34, 1250, -1259
0.170776, -981, 177, 1987, -34, 1250, -1259
0.170911, -981, 177, 1987, -34, 1250, -1259
0.171046, -981, 177, 1987, -34, 1250, -1259
0.171180, -981, 177, 1987, -34, 1250, -1259
0.171315, -981, 177, 1987, -34, 1250, -1259
0.171449, -981, 177, 1987, -34, 1250, -1259
0.171584, 56, 209, 2068, -90, 1163, -833
0.171719, 56, 209, 2068, -90, 1163, -833
0.171853, 56, 209, 2068, -90, 1163, -833
0.171988, 56, 209, 2068, -90, 1163, -833
0.172122, 56, 209, 2068, -90, 1163, -833
0.172257, 56, 209, 2068, -90, 1163, -833
0.172391, 56, 209, 2068, -90, 1163, -833
0.172526, 56, 209, 2068, -90, 1163, -833
0.172661, 1671, 242, 2615, -46, 892, -1269
0.172795, 1671, 242, 2615, -46, 892, -1269
0.172930, 1671, 242, 2615, -46, 892, -1269
0.173064, 1671, 242, 2615, -46, 892, -1269
0.173199, 1671, 242, 2615, -46, 892, -1269
0.173334, 1671, 242, 2615, -46, 892, -1269
0.173468, 1671, 242, 2615, -46, 892, -1269
0.173603, 1910, 287, 3107, 339, 802, -2462
0.173738, 1910, 287, 3107, 339, 802, -2462
0.173872, 1910, 287, 3107, 339, 802, -2462
0.174007, 1910, 287, 3107, 339, 802, -2462
0.174141, 1910, 287, 3107, 339, 802, -2462
0.174276, 1910, 287, 3107, 339, 802, -2462
0.174411, 1910, 287, 3107, 339, 802, -2462
0.174545, 1910, 287, 3107, 339, 802, -2462
0.174680, -179, 333, 2520, 888, 1080, -3254
0.174814, -179, 333, 2520, 888, 1080, -3254
0.174949, -179, 333, 2520, 888, 1080, -3254
0.175084, -179, 333, 2520, 888, 1080, -3254
0.175218, -179, 333, 2520, 888, 1080, -3254
0.175353, -179, 333, 2520, 888, 1080, -3254
0.175491, -179, 333, 2520, 888, 1080, -3254
0.175626, -1994, 290, 1341, 1094, 1318, -2633
0.175761, -1994, 290, 1341, 1094, 1318, -2633
0.175896, -1994, 290, 1341, 1094, 1318, -2633
0.176030, -1994, 290, 1341, 1094, 1318, -2633
0.176165, -1994, 290, 1341, 1094, 1318, -2633
0.176299, -1994, 290, 1341, 1094, 1318, -2633
0.176434, -1994, 290, 1341, 1094, 1318, -2633
0.176569, -1994, 290, 1341, 1094, 1318, -2633
0.176703, -2244, 86, 827, 775, 1132, -1293
0.176838, -2244, 86, 827, 775, 1132, -1293
0.176973, -2244, 86, 827, 775, 1132, -1293
0.177107, -2244, 86, 827, 775, 1132, -1293
0.177242, -2244, 86, 827, 775, 1132, -1293
0.177377, -2244, 86, 827, 775, 1132, -1293
0.177511, -2244, 86, 827, 775, 1132, -1293
0.177646, -2244, 86, 827, 775, 1132, -1293
0.177781, -2075, 35, 1223, 173, 685, 37
0.177915, -2075, 35, 1223, 173, 685, 37
0.178050, -2075, 35, 1223, 173, 685, 37
0.178185, -2075, 35, 1223, 173, 685, 37
0.178319, -2075, 35, 1223, 173, 685, 37
0.178454, -2075, 35, 1223, 173, 685, 37
0.178588, -2075, 35, 1223, 173, 685, 37
0.178723, -566, 172, 2136, -279, 239, 1089
0.178858, -566, 172, 2136, -279, 239, 1089
0.178992, -566, 172, 2136, -279, 239, 1089
0.179127, -566, 172, 2136, -279, 239, 1089
0.179261, -566, 172, 2136, -279, 239, 1089
0.179395, -566, 172, 2136, -279, 239, 1089
0.179530, -566, 172, 2136, -279, 239, 1089
0.179664, -566, 172, 2136, -279, 239, 1089
0.179799, 1980, 231, 2989, -304, -4, 894
0.179933, 1980, 231, 2989, -304, -4, 894
0.180068, 1980, 231, 2989, -304, -4, 894
0.180202, 1980, 231, 2989, -304, -4, 894
0.180337, 1980, 231, 2989, -304, -4, 894
0.180471, 1980, 231, 2989, -304, -4, 894
0.180605, 1980, 231, 2989, -304, -4, 894
0.180740, 3066, 240, 3231, 92, 67, -713
0.180874, 3066, 240, 3231, 92, 67, -713
0.181009, 3066, 240, 3231, 92, 67, -713
0.181143, 3066, 240, 3231, 92, 67, -713
0.181278, 3066, 240, 3231, 92, 67, -713
0.181412, 3066, 240, 3231, 92, 67, -713
0.181546, 3066, 240, 3231, 92, 67, -713
0.181681, 3066, 240, 3231, 92, 67, -713
0.181816, 1469, 262, 2072, 487, 365, -2454
0.181950, 1469, 262, 2072, 487, 365, -2454
0.182085, 1469, 262, 2072, 487, 365, -2454
0.182220, 1469, 262, 2072, 487, 365, -2454
0.182354, 1469, 262, 2072, 487, 365, -2454
0.182489, 1469, 262, 2072, 487, 365, -2454
0.182623, 1469, 262, 2072, 487, 365, -2454
0.182758, -3208, 192, 361, 257, 760, -2511
0.182893, -3208, 192, 361, 257, 760, -2511
0.183022, -3208, 192, 361, 257, 760, -2511
0.183154, -3208, 192, 361, 257, 760, -2511
0.183290, -3208, 192, 361, 257, 760, -2511
0.183425, -3208, 192, 361, 257, 760, -2511
0.183560, -3208, 192, 361, 257, 760, -2511
0.183695, -3208, 192, 361, 257, 760, -2511
0.183829, -6393, 120, 426, -349, 810, 363
0.183964, -6393, 120, 426, -349, 810, 363
0.184099, -6393, 120, 426, -349, 810, 363
0.184233, -6393, 120, 426, -349, 810, 363
0.184368, -6393, 120, 426, -349, 810, 363
0.184506, -6393, 120, 426, -349, 810, 363
0.184637, -6393, 120, 426, -349, 810, 363
0.184772, -3151, 215, 1759, -712, 179, 3883
0.184906, -3151, 215, 1759, -712, 179, 3883
0.185041, -3151, 215, 1759, -712, 179, 3883
0.185176, -3151, 215, 1759, -712, 179, 3883
0.185310, -3151, 215, 1759, -712, 179, 3883
0.185445, -3151, 215, 1759, -712, 179, 3883
0.185579, -3151, 215, 1759, -712, 179, 3883
0.185715, -3151, 215, 1759, -712, 179, 3883
0.185849, 542, 307, 2423, -1015, -531, 4783
0.185984, 542, 307, 2423, -1015, -531, 4783
0.186119, 542, 307, 2423, -1015, -531, 4783
0.186254, 542, 307, 2423, -1015, -531, 4783
0.186388, 542, 307, 2423, -1015, -531, 4783
0.186523, 542, 307, 2423, -1015, -531, 4783
0.186658, 542, 307, 2423, -1015, -531, 4783
0.186792, 339, 284, 2317, -1534, -710, 4310
0.186927, 339, 284, 2317, -1534, -710, 4310
0.187062, 339, 284, 2317, -1534, -710, 4310
0.187196, 339, 284, 2317, -1534, -710, 4310
0.187331, 339, 284, 2317, -1534, -710, 4310
0.187466, 339, 284, 2317, -1534, -710, 4310
0.187600, 339, 284, 2317, -1534, -710, 4310
0.187735, 339, 284, 2317, -1534, -710, 4310
0.187869, -145, 228, 2149, -1999, -571, 4353
0.188004, -145, 228, 2149, -1999, -571, 4353
0.188139, -145, 228, 2149, -1999, -571, 4353
0.188281, -145, 228, 2149, -1999, -571, 4353
0.188416, -145, 228, 2149, -1999, -571, 4353
0.188550, -145, 228, 2149, -1999, -571, 4353
0.188685, -145, 228, 2149, -1999, -571, 4353
0.188819, 85, 164, 2073, -2127, -579, 4365
0.188954, 85, 164, 2073, -2127, -579, 4365
0.189089, 85, 164, 2073, -2127, -579, 4365
0.189223, 85, 164, 2073, -2127, -579, 4365
0.189358, 85, 164, 2073, -2127, -579, 4365
0.189492, 85, 164, 2073, -2127, -579, 4365
0.189627, 85, 164, 2073, -2127, -579, 4365
0.189762, 85, 164, 2073, -2127, -579, 4365
0.189897, 295, 112, 2035, -1996, -913, 4080
0.190032, 295, 112, 2035, -1996, -913, 4080
0.190166, 295, 112, 2035, -1996, -913, 4080
0.190301, 295, 112, 2035, -1996, -913, 4080
0.190435, 295, 112, 2035, -1996, -913, 4080
0.190570, 295, 112, 2035, -1996, -913, 4080
0.190704, 295, 112, 2035, -1996, -913, 4080
0.190839, 915, 81, 2158, -1803, -1272, 3669
0.190974, 915, 81, 2158, -1803, -1272, 3669
0.191108, 915, 81, 2158, -1803, -1272, 3669
0.191243, 915, 81, 2158, -1803, -1272, 3669
0.191377, 915, 81, 2158, -1803, -1272, 3669
0.191512, 915, 81, 2158, -1803, -1272, 3669
0.191647, 915, 81, 2158, -1803, -1272, 3669
0.191781, 915, 81, 2158, -1803, -1272, 3669
0.191916, 2519, 65, 2476, -1583, -1292, 2812
0.192050, 2519, 65, 2476, -1583, -1292, 2812
0.192185, 2519, 65, 2476, -1583, -1292, 2812
0.192320, 2519, 65, 2476, -1583, -1292, 2812
0.192454, 2519, 65, 2476, -1583, -1292, 2812
0.192589, 2519, 65, 2476, -1583, -1292, 2812
0.192723, 2519, 65, 2476, -1583, -1292, 2812
0.192858, 5690, 177, 3107, -1111, -983, 621
0.192993, 5690, 177, 3107, -1111, -983, 621
0.193127, 5690, 177, 3107, -1111, -983, 621
0.193262, 5690, 177, 3107, -1111, -983, 621
0.193397, 5690, 177, 3107, -1111, -983, 621
0.193531, 5690, 177, 3107, -1111, -983, 621
0.193666, 5690, 177, 3107, -1111, -983, 621
0.193801, 5690, 177, 3107, -1111, -983, 621
0.193935, 7091, 252, 3636, -175, -248, -3438
0.194070, 7091, 252, 3636, -175, -248, -3438
0.194205, 7091, 252, 3636, -175, -248, -3438
0.194341, 7091, 252, 3636, -175, -248, -3438
0.194476, 7091, 252, 3636, -175, -248, -3438
0.194610, 7091, 252, 3636, -175, -248, -3438
0.194745, 7091, 252, 3636, -175, -248, -3438
0.194879, 7091, 252, 3636, -175, -248, -3438
0.195014, 2899, -38, 3168, 998, 1143, -7165
0.195148, 2899, -38, 3168, 998, 1143, -7165
0.195283, 2899, -38, 3168, 998, 1143, -7165
0.195418, 2899, -38, 3168, 998, 1143, -7165
0.195552, 2899, -38, 3168, 998, 1143, -7165
0.195687, 2899, -38, 3168, 998, 1143, -7165
0.195822, 2899, -38, 3168, 998, 1143, -7165
0.195956, -1636, -202, 2378, 2141, 2618, -7736
0.196091, -1636, -202, 2378, 2141, 2618, -7736
0.196226, -1636, -202, 2378, 2141, 2618, -7736
0.196360, -1636, -202, 2378, 2141, 2618, -7736
0.196495, -1636, -202, 2378, 2141, 2618, -7736
0.196629, -1636, -202, 2378, 2141, 2618, -7736
0.196764, -1636, -202, 2378, 2141, 2618, -7736
0.196898, -1636, -202, 2378, 2141, 2618, -7736
0.197033, -1648, 125, 2254, 3169, 3357, -6480
0.197168, -1648, 125, 2254, 3169, 3357, -6480
0.197302, -1648, 125, 2254, 3169, 3357, -6480
0.197437, -1648, 125, 2254, 3169, 3357, -6480
0.197571, -1648, 125, 2254, 3169, 3357, -6480
0.197706, -1648, 125, 2254, 3169, 3357, -6480
0.197844, -1648, 125, 2254, 3169, 3357, -6480
0.197979, -845, 400, 2043, 3715, 3478, -5731
0.198114, -845, 400, 2043, 3715, 3478, -5731
0.198248, -845, 400, 2043, 3715, 3478, -5731
0.198383, -845, 400, 2043, 3715, 3478, -5731
0.198517, -845, 400, 2043, 3715, 3478, -5731
0.198652, -845, 400, 2043, 3715, 3478, -5731
0.198786, -845, 400, 2043, 3715, 3478, -5731
0.198921, -845, 400, 2043, 3715, 3478, -5731
0.199055, -1797, 312, 1224, 3426, 3387, -5013
0.199190, -1797, 312, 1224, 3426, 3387, -5013
0.199325, -1797, 312, 1224, 3426, 3387, -5013
0.199459, -1797, 312, 1224, 3426, 3387, -5013
0.199594, -1797, 312, 1224, 3426, 3387, -5013
0.199728, -1797, 312, 1224, 3426, 3387, -5013
0.199863, -1797, 312, 1224, 3426, 3387, -5013
0.199997, -3104, 166, 638, 2432, 3150, -3466
0.200132, -3104, 166, 638, 2432, 3150, -3466
0.200267, -3104, 166, 638, 2432, 3150, -3466
0.200401, -3104, 166, 638, 2432, 3150, -3466
0.200536, -3104, 166, 638, 2432, 3150, -3466
0.200675, -3104, 166, 638, 2432, 3150, -3466
0.200810, -3104, 166, 638, 2432, 3150, -3466
0.200945, -3104, 166, 638, 2432, 3150, -3466
0.201079, -3617, 220, 791, 1266, 2656, -1309
0.201214, -3617, 220, 791, 1266, 2656, -1309
0.201349, -3617, 220, 791, 1266, 2656, -1309
0.201483, -3617, 220, 791, 1266, 2656, -1309
0.201618, -3617, 220, 791, 1266, 2656, -1309
0.201753, -3617, 220, 791, 1266, 2656, -1309
0.201888, -3617, 220, 791, 1266, 2656, -1309
0.202022, -2908, 305, 1199, 351, 1709, 797
0.202157, -2908, 305, 1199, 351, 1709, 797
0.202292, -2908, 305, 1199, 351, 1709, 797
0.202426, -2908, 305, 1199, 351, 1709, 797
0.202561, -2908, 305, 1199, 351, 1709, 797
0.202695, -2908, 305, 1199, 351, 1709, 797
0.202830, -2908, 305, 1199, 351, 1709, 797
0.202964, -2908, 305, 1199, 351, 1709, 797
0.203099, -1397, 292, 1647, -304, 440, 2196
0.203234, -1397, 292, 1647, -304, 440, 2196
0.203368, -1397, 292, 1647, -304, 440, 2196
0.203503, -1397, 292, 1647, -304, 440, 2196
0.203638, -1397, 292, 1647, -304, 440, 2196
0.203772, -1397, 292, 1647, -304, 440, 2196
0.203907, -1397, 292, 1647, -304, 440, 2196
0.204041, -61, 239, 2104, -741, -747, 2701
0.204176, -61, 239, 2104, -741, -747, 2701
0.204311, -61, 239, 2104, -741, -747, 2701
0.204445, -61, 239, 2104, -741, -747, 2701
0.204580, -61, 239, 2104, -741, -747, 2701
0.204714, -61, 239, 2104, -741, -747, 2701
0.204849, -61, 239, 2104, -741, -747, 2701
0.204984, -61, 239, 2104, -741, -747, 2701
0.205118, 632, 172, 2291, -898, -1581, 2541
0.205253, 632, 172, 2291, -898, -1581, 2541
0.205388, 632, 172, 2291, -898, -1581, 2541
0.205522, 632, 172, 2291, -898, -1581, 2541
0.205657, 632, 172, 2291, -898, -1581, 2541
0.205792, 632, 172, 2291, -898, -1581, 2541
0.205926, 632, 172, 2291, -898, -1581, 2541
0.206061, 988, 125, 2273, -779, -2001, 2015
0.206196, 988, 125, 2273, -779, -2001, 2015
0.206330, 988, 125, 2273, -779, -2001, 2015
0.206465, 988, 125, 2273, -779, -2001, 2015
0.206599, 988, 125, 2273, -779, -2001, 2015
0.206734, 988, 125, 2273, -779, -2001, 2015
0.206868, 988, 125, 2273, -779, -2001, 2015
0.207003, 988, 125, 2273, -779, -2001, 2015
0.207137, 1237, 139, 2277, -470, -2029, 1277
0.207272, 1237, 139, 2277, -470, -2029, 1277
0.207407, 1237, 139, 2277, -470, -2029, 1277
0.207541, 1237, 139, 2277, -470, -2029, 1277
0.207676, 1237, 139, 2277, -470, -2029, 1277
0.207810, 1237, 139, 2277, -470, -2029, 1277
0.207945, 1237, 139, 2277, -470, -2029, 1277
0.208079, 1058, 167, 2241, -119, -1644, 479
0.208214, 1058, 167, 2241, -119, -1644, 479
0.208349, 1058, 167, 2241, -119, -1644, 479
0.208483, 1058, 167, 2241, -119, -1644, 479
0.208618, 1058, 167, 2241, -119, -1644, 479
0.208752, 1058, 167, 2241, -119, -1644, 479
0.208887, 1058, 167, 2241, -119, -1644, 479
0.209021, 1058, 167, 2241, -119, -1644, 479
0.209156, 569, 167, 2099, 146, -886, -63
0.209291, 569, 167, 2099, 146, -886, -63
0.209425, 569, 167, 2099, 146, -886, -63
0.209560, 569, 167, 2099, 146, -886, -63
0.209695, 569, 167, 2099, 146, -886, -63
0.209830, 569, 167, 2099, 146, -886, -63
0.209964, 569, 167, 2099, 146, -886, -63
0.210099, 462, 171, 2229, 338, 42, -320
0.210234, 462, 171, 2229, 338, 42, -320
0.210368, 462, 171, 2229, 338, 42, -320
0.210503, 462, 171, 2229, 338, 42, -320
0.210638, 462, 171, 2229, 338, 42, -320
0.210772, 462, 171, 2229, 338, 42, -320
0.210907, 462, 171, 2229, 338, 42, -320
0.211041, 462, 171, 2229, 338, 42, -320
0.211176, 1293, 274, 2833, 671, 889, -744
0.211311, 1293, 274, 2833, 671, 889, -744
0.211445, 1293, 274, 2833, 671, 889, -744
0.211580, 1293, 274, 2833, 671, 889, -744
0.211714, 1293, 274, 2833, 671, 889, -744
0.211849, 1293, 274, 2833, 671, 889, -744
0.211983, 1293, 274, 2833, 671, 889, -744
0.212118, 1738, 353, 2941, 1176, 1582, -1740
0.212253, 1738, 353, 2941, 1176, 1582, -1740
0.212387, 1738, 353, 2941, 1176, 1582, -1740
0.212522, 1738, 353, 2941, 1176, 1582, -1740
0.212657, 1738, 353, 2941, 1176, 1582, -1740
0.212791, 1738, 353, 2941, 1176, 1582, -1740
0.212926, 1738, 353, 2941, 1176, 1582, -1740
0.213060, 1738, 353, 2941, 1176, 1582, -1740
0.213195, 107, 196, 1826, 1399, 2148, -2619
0.213337, 107, 196, 1826, 1399, 2148, -2619
0.213472, 107, 196, 1826, 1399, 2148, -2619
0.213607, 107, 196, 1826, 1399, 2148, -2619
0.213742, 107, 196, 1826, 1399, 2148, -2619
0.213876, 107, 196, 1826, 1399, 2148, -2619
0.214011, 107, 196, 1826, 1399, 2148, -2619
0.214145, -1925, 34, 801, 1010, 2362, -2254
0.214280, -1925, 34, 801, 1010, 2362, -2254
0.214415, -1925, 34, 801, 1010, 2362, -2254
0.214549, -1925, 34, 801, 1010, 2362, -2254
0.214684, -1925, 34, 801, 1010, 2362, -2254
0.214818, -1925, 34, 801, 1010, 2362, -2254
0.214953, -1925, 34, 801, 1010, 2362, -2254
0.215087, -1925, 34, 801, 1010, 2362, -2254
0.215222, -2264, 76, 1191, 405, 2065, -979
0.215357, -2264, 76, 1191, 405, 2065, -979
0.215491, -2264, 76, 1191, 405, 2065, -979
0.215626, -2264, 76, 1191, 405, 2065, -979
0.215761, -2264, 76, 1191, 405, 2065, -979
0.215895, -2264, 76, 1191, 405, 2065, -979
0.216030, -2264, 76, 1191, 405, 2065, -979
0.216164, -2264, 76, 1191, 405, 2065, -979
0.216299, -899, 238, 2155, 122, 1449, 71
0.216434, -899, 238, 2155, 122, 1449, 71
0.216568, -899, 238, 2155, 122, 1449, 71
0.216703, -899, 238, 2155, 122, 1449, 71
0.216838, -899, 238, 2155, 122, 1449, 71
0.216972, -899, 238, 2155, 122, 1449, 71
0.217107, -899, 238, 2155, 122, 1449, 71
0.217241, 861, 319, 2521, 101, 796, 121
0.217376, 861, 319, 2521, 101, 796, 121
0.217511, 861, 319, 2521, 101, 796, 121
0.217645, 861, 319, 2521, 101, 796, 121
0.217780, 861, 319, 2521, 101, 796, 121
0.217915, 861, 319, 2521, 101, 796, 121
0.218049, 861, 319, 2521, 101, 796, 121
0.218184, 861, 319, 2521, 101, 796, 121
0.218319, 1086, 289, 2439, 97, 426, -602
0.218454, 1086, 289, 2439, 97, 426, -602
0.218588, 1086, 289, 2439, 97, 426, -602
0.218723, 1086, 289, 2439, 97, 426, -602
0.218858, 1086, 289, 2439, 97, 426, -602
0.218992, 1086, 289, 2439, 97, 426, -602
0.219127, 1086, 289, 2439, 97, 426, -602
0.219261, 82, 201, 2108, 105, 356, -1054
0.219396, 82, 201, 2108, 105, 356, -1054
0.219531, 82, 201, 2108, 105, 356, -1054
0.219666, 82, 201, 2108, 105, 356, -1054
0.219800, 82, 201, 2108, 105, 356, -1054
0.219935, 82, 201, 2108, 105, 356, -1054
0.220069, 82, 201, 2108, 105, 356, -1054
0.220204, 82, 201, 2108, 105, 356, -1054
0.220339, -700, 41, 1753, 168, 247, -929
0.220473, -700, 41, 1753, 168, 247, -929
0.220608, -700, 41, 1753, 168, 247, -929
0.220743, -700, 41, 1753, 168, 247, -929
0.220878, -700, 41, 1753, 168, 247, -929
0.221012, -700, 41, 1753, 168, 247, -929
0.221147, -700, 41, 1753, 168, 247, -929
0.221281, -1174, 73, 1758, 287, 30, -439
0.221416, -1174, 73, 1758, 287, 30, -439
0.221551, -1174, 73, 1758, 287, 30, -439
0.221686, -1174, 73, 1758, 287, 30, -439
0.221821, -1174, 73, 1758, 287, 30, -439
0.221955, -1174, 73, 1758, 287, 30, -439
0.222089, -1174, 73, 1758, 287, 30, -439
0.222223, -1174, 73, 1758, 287, 30, -439
0.222357, -1080, 265, 1860, 360, -97, 296
0.222491, -1080, 265, 1860, 360, -97, 296
0.222625, -1080, 265, 1860, 360, -97, 296
0.222760, -1080, 265, 1860, 360, -97, 296
0.222894, -1080, 265, 1860, 360, -97, 296
0.223029, -1080, 265, 1860, 360, -97, 296
0.223163, -1080, 265, 1860, 360, -97, 296
0.223298, -410, 291, 1896, 262, -46, 847
0.223432, -410, 291, 1896, 262, -46, 847
0.223567, -410, 291, 1896, 262, -46, 847
0.223701, -410, 291, 1896, 262, -46, 847
0.223836, -410, 291, 1896, 262, -46, 847
0.223970, -410, 291, 1896, 262, -46, 847
0.224105, -410, 291, 1896, 262, -46, 847
0.224239, -410, 291, 1896, 262, -46, 847
0.224373, -28, 240, 1989, 50, 149, 1001
0.224508, -28, 240, 1989, 50, 149, 1001
0.224642, -28, 240, 1989, 50, 149, 1001
0.224777, -28, 240, 1989, 50, 149, 1001
0.224911, -28, 240, 1989, 50, 149, 1001
0.225046, -28, 240, 1989, 50, 149, 1001
0.225180, -28, 240, 1989, 50, 149, 1001
0.225315, -69, 214, 2136, -111, 389, 1001
0.225449, -69, 214, 2136, -111, 389, 1001
0.225584, -69, 214, 2136, -111, 389, 1001
0.225714, -69, 214, 2136, -111, 389, 1001
0.225848, -69, 214, 2136, -111, 389, 1001
0.225983, -69, 214, 2136, -111, 389, 1001
0.226118, -69, 214, 2136, -111, 389, 1001
0.226252, -69, 214, 2136, -111, 389, 1001
0.226387, -296, 196, 2087, -166, 534, 1030
0.226522, -296, 196, 2087, -166, 534, 1030
0.226661, -296, 196, 2087, -166, 534, 1030
0.226796, -296, 196, 2087, -166, 534, 1030
0.226931, -296, 196, 2087, -166, 534, 1030
0.227066, -296, 196, 2087, -166, 534, 1030
0.227200, -296, 196, 2087, -166, 534, 1030
0.227335, -301, 178, 1869, -245, 486, 1129
0.227470, -301, 178, 1869, -245, 486, 1129
0.227604, -301, 178, 1869, -245, 486, 1129
0.227739, -301, 178, 1869, -245, 486, 1129
0.227874, -301, 178, 1869, -245, 486, 1129
0.228008, -301, 178, 1869, -245, 486, 1129
0.228143, -301, 178, 1869, -245, 486, 1129
0.228278, -301, 178, 1869, -245, 486, 1129
0.228412, 350, 128, 2015, -372, 260, 1067
0.228547, 350, 128, 2015, -372, 260, 1067
0.228682, 350, 128, 2015, -372, 260, 1067
0.228816, 350, 128, 2015, -372, 260, 1067
0.228951, 350, 128, 2015, -372, 260, 1067
0.229086, 350, 128, 2015, -372, 260, 1067
0.229220, 350, 128, 2015, -372, 260, 1067
0.229355, 568, 131, 2353, -366, 77, 648
0.229490, 568, 131, 2353, -366, 77, 648
0.229625, 568, 131, 2353, -366, 77, 648
0.229760, 568, 131, 2353, -366, 77, 648
0.229894, 568, 131, 2353, -366, 77, 648
0.230029, 568, 131, 2353, -366, 77, 648
0.230164, 568, 131, 2353, -366, 77, 648
0.230298, 568, 131, 2353, -366, 77, 648
0.230433, 325, 242, 2424, -204, 95, 282
0.230568, 325, 242, 2424, -204, 95, 282
0.230703, 325, 242, 2424, -204, 95, 282
0.230837, 325, 242, 2424, -204, 95, 282
0.230972, 325, 242, 2424, -204, 95, 282
0.231106, 325, 242, 2424, -204, 95, 282
0.231241, 325, 242, 2424, -204, 95, 282
0.231376, 1541, 384, 2675, 65, 169, -187
0.231510, 1541, 384, 2675, 65, 169, -187
0.231645, 1541, 384, 2675, 65, 169, -187
0.231780, 1541, 384, 2675, 65, 169, -187
0.231914, 1541, 384, 2675, 65, 169, -187
0.232049, 1541, 384, 2675, 65, 169, -187
0.232184, 1541, 384, 2675, 65, 169, -187
0.232318, 1541, 384, 2675, 65, 169, -187
0.232453, 2320, 366, 2896, 500, 345, -1486
0.232588, 2320, 366, 2896, 500, 345, -1486
0.232722, 2320, 366, 2896, 500, 345, -1486
0.232857, 2320, 366, 2896, 500, 345, -1486
0.232992, 2320, 366, 2896, 500, 345, -1486
0.233126, 2320, 366, 2896, 500, 345, -1486
0.233261, 2320, 366, 2896, 500, 345, -1486
0.233396, 2320, 366, 2896, 500, 345, -1486
0.233530, 394, 178, 2189, 859, 753, -2652
0.233665, 394, 178, 2189, 859, 753, -2652
0.233801, 394, 178, 2189, 859, 753, -2652
0.233947, 394, 178, 2189, 859, 753, -2652
0.234092, 394, 178, 2189, 859, 753, -2652
0.234235, 394, 178, 2189, 859, 753, -2652
0.234375, 394, 178, 2189, 859, 753, -2652
0.234516, -1587, 14, 1368, 871, 1114, -2428
0.234660, -1587, 14, 1368, 871, 1114, -2428
0.234801, -1587, 14, 1368, 871, 1114, -2428
0.234941, -1587, 14, 1368, 871, 1114, -2428
0.235083, -1587, 14, 1368, 871, 1114, -2428
0.235228, -1587, 14, 1368, 871, 1114, -2428
0.235369, -1587, 14, 1368, 871, 1114, -2428
0.235509, -2612, 47, 1175, 619, 1283, -1233
0.235654, -2612, 47, 1175, 619, 1283, -1233
0.235793, -2612, 47, 1175, 619, 1283, -1233
0.235935, -2612, 47, 1175, 619, 1283, -1233
0.236075, -2612, 47, 1175, 619, 1283, -1233
0.236218, -2612, 47, 1175, 619, 1283, -1233
0.236362, -2612, 47, 1175, 619, 1283, -1233
0.236497, -3016, 234, 1234, 146, 1250, 453
0.236641, -3016, 234, 1234, 146, 1250, 453
0.236781, -3016, 234, 1234, 146, 1250, 453
0.236920, -3016, 234, 1234, 146, 1250, 453
0.237062, -3016, 234, 1234, 146, 1250, 453
0.237202, -3016, 234, 1234, 146, 1250, 453
0.237342, -3016, 234, 1234, 146, 1250, 453
0.237481, -1771, 299, 1654, -431, 900, 2066
0.237626, -1771, 299, 1654, -431, 900, 2066
0.237765, -1771, 299, 1654, -431, 900, 2066
0.237904, -1771, 299, 1654, -431, 900, 2066
0.238044, -1771, 299, 1654, -431, 900, 2066
0.238183, -1771, 299, 1654, -431, 900, 2066
0.238322, -1771, 299, 1654, -431, 900, 2066
0.238461, -1771, 299, 1654, -431, 900, 2066
0.238600, 76, 266, 2228, -893, 448, 2704
0.238742, 76, 266, 2228, -893, 448, 2704
0.238880, 76, 266, 2228, -893, 448, 2704
0.239018, 76, 266, 2228, -893, 448, 2704
0.239158, 76, 266, 2228, -893, 448, 2704
0.239299, 76, 266, 2228, -893, 448, 2704
0.239439, 76, 266, 2228, -893, 448, 2704
0.239578, 1786, 312, 2669, -1090, 67, 2247
0.239719, 1786, 312, 2669, -1090, 67, 2247
0.239883, 1786, 312, 2669, -1090, 67, 2247
0.240029, 1786, 312, 2669, -1090, 67, 2247
0.240168, 1786, 312, 2669, -1090, 67, 2247
0.240306, 1786, 312, 2669, -1090, 67, 2247
0.240446, 1786, 312, 2669, -1090, 67, 2247
0.240586, 3627, 474, 3174, -801, -278, 644
0.240728, 3627, 474, 3174, -801, -278, 644
0.240867, 3627, 474, 3174, -801, -278, 644
0.241005, 3627, 474, 3174, -801, -278, 644
0.241144, 3627, 474, 3174, -801, -278, 644
0.241282, 3627, 474, 3174, -801, -278, 644
0.241420, 3627, 474, 3174, -801, -278, 644
0.241559, 2447, 376, 3011, -67, -257, -1610
0.241701, 2447, 376, 3011, -67, -257, -1610
0.241847, 2447, 376, 3011, -67, -257, -1610
0.241987, 2447, 376, 3011, -67, -257, -1610
0.242126, 2447, 376, 3011, -67, -257, -1610
0.242265, 2447, 376, 3011, -67, -257, -1610
0.242404, 2447, 376, 3011, -67, -257, -1610
0.242546, -1326, 2, 1882, 597, 128, -2341
0.242688, -1326, 2, 1882, 597, 128, -2341
0.242830, -1326, 2, 1882, 597, 128, -2341
0.242972, -1326, 2, 1882, 597, 128, -2341
0.243109, -1326, 2, 1882, 597, 128, -2341
0.243244, -1326, 2, 1882, 597, 128, -2341
0.243378, -1326, 2, 1882, 597, 128, -2341
0.243512, -1326, 2, 1882, 597, 128, -2341
0.243647, -2553, -38, 1240, 894, 308, -1048
0.243786, -2553, -38, 1240, 894, 308, -1048
0.243926, -2553, -38, 1240, 894, 308, -1048
0.244064, -2553, -38, 1240, 894, 308, -1048
0.244205, -2553, -38, 1240, 894, 308, -1048
0.244345, -2553, -38, 1240, 894, 308, -1048
0.244483, -2553, -38, 1240, 894, 308, -1048
0.244619, -1736, 94, 1470, 863, 263, 357
0.244755, -1736, 94, 1470, 863, 263, 357
0.244889, -1736, 94, 1470, 863, 263, 357
0.245024, -1736, 94, 1470, 863, 263, 357
0.245159, -1736, 94, 1470, 863, 263, 357
0.245293, -1736, 94, 1470, 863, 263, 357
0.245427, -1736, 94, 1470, 863, 263, 357
0.245560, -1736, 94, 1470, 863, 263, 357
0.245694, -1072, 139, 1743, 522, 242, 1180
0.245830, -1072, 139, 1743, 522, 242, 1180
0.245964, -1072, 139, 1743, 522, 242, 1180
0.246098, -1072, 139, 1743, 522, 242, 1180
0.246232, -1072, 139, 1743, 522, 242, 1180
0.246366, -1072, 139, 1743, 522, 242, 1180
0.246500, -1072, 139, 1743, 522, 242, 1180
0.246634, -1086, 183, 1670, -36, 343, 1797
0.246768, -1086, 183, 1670, -36, 343, 1797
0.246902, -1086, 183, 1670, -36, 343, 1797
0.247036, -1086, 183, 1670, -36, 343, 1797
0.247170, -1086, 183, 1670, -36, 343, 1797
0.247304, -1086, 183, 1670, -36, 343, 1797
0.247438, -1086, 183, 1670, -36, 343, 1797
0.247572, -1086, 183, 1670, -36, 343, 1797
0.247706, -1684, 182, 1448, -715, 541, 2563
0.247840, -1684, 182, 1448, -715, 541, 2563
0.247974, -1684, 182, 1448, -715, 541, 2563
0.248108, -1684, 182, 1448, -715, 541, 2563
0.248242, -1684, 182, 1448, -715, 541, 2563
0.248375, -1684, 182, 1448, -715, 541, 2563
0.248510, -1684, 182, 1448, -715, 541, 2563
0.248643, -1455, 177, 1601, -1315, 409, 3493
0.248777, -1455, 177, 1601, -1315, 409, 3493
0.248911, -1455, 177, 1601, -1315, 409, 3493
0.249045, -1455, 177, 1601, -1315, 409, 3493
0.249179, -1455, 177, 1601, -1315, 409, 3493
0.249313, -1455, 177, 1601, -1315, 409, 3493
0.249447, -1455, 177, 1601, -1315, 409, 3493
0.249581, -1455, 177, 1601, -1315, 409, 3493
0.249717, -341, 179, 2031, -1623, -165, 3992
0.249851, -341, 179, 2031, -1623, -165, 3992
0.249985, -341, 179, 2031, -1623, -165, 3992
0.250119, -341, 179, 2031, -1623, -165, 3992
0.250254, -341, 179, 2031, -1623, -165, 3992
0.250384, -341, 179, 2031, -1623, -165, 3992
0.250519, -341, 179, 2031, -1623, -165, 3992
0.250654, 543, 145, 2264, -1712, -792, 3828
0.250788, 543, 145, 2264, -1712, -792, 3828
0.250922, 543, 145, 2264, -1712, -792, 3828
0.251056, 543, 145, 2264, -1712, -792, 3828
0.251190, 543, 145, 2264, -1712, -792, 3828
0.251324, 543, 145, 2264, -1712, -792, 3828
0.251458, 543, 145, 2264, -1712, -792, 3828
0.251592, 543, 145, 2264, -1712, -792, 3828
0.251726, 1332, 98, 2419, -1659, -1256, 3243
0.251860, 1332, 98, 2419, -1659, -1256, 3243
0.251994, 1332, 98, 2419, -1659, -1256, 3243
0.252128, 1332, 98, 2419, -1659, -1256, 3243
0.252262, 1332, 98, 2419, -1659, -1256, 3243
0.252396, 1332, 98, 2419, -1659, -1256, 3243
0.252530, 1332, 98, 2419, -1659, -1256, 3243
0.252691, 2867, 112, 2802, -1352, -1440, 2064
0.252826, 2867, 112, 2802, -1352, -1440, 2064
0.252960, 2867, 112, 2802, -1352, -1440, 2064
0.253094, 2867, 112, 2802, -1352, -1440, 2064
0.253228, 2867, 112, 2802, -1352, -1440, 2064
0.253362, 2867, 112, 2802, -1352, -1440, 2064
0.253496, 2867, 112, 2802, -1352, -1440, 2064
0.253630, 2867, 112, 2802, -1352, -1440, 2064
0.253764, 4460, 120, 2824, -781, -1245, -165
0.253898, 4460, 120, 2824, -781, -1245, -165
0.254032, 4460, 120, 2824, -781, -1245, -165
0.254166, 4460, 120, 2824, -781, -1245, -165
0.254300, 4460, 120, 2824, -781, -1245, -165
0.254434, 4460, 120, 2824, -781, -1245, -165
0.254568, 4460, 120, 2824, -781, -1245, -165
0.254702, 4276, 95, 2223, -265, -692, -3052
0.254836, 4276, 95, 2223, -265, -692, -3052
0.254970, 4276, 95, 2223, -265, -692, -3052
0.255104, 4276, 95, 2223, -265, -692, -3052
0.255238, 4276, 95, 2223, -265, -692, -3052
0.255371, 4276, 95, 2223, -265, -692, -3052
0.255506, 4276, 95, 2223, -265, -692, -3052
0.255640, 4276, 95, 2223, -265, -692, -3052
0.255774, 2579, 151, 2176, 129, 209, -5340
0.255909, 2579, 151, 2176, 129, 209, -5340
0.256042, 2579, 151, 2176, 129, 209, -5340
0.256176, 2579, 151, 2176, 129, 209, -5340
0.256310, 2579, 151, 2176, 129, 209, -5340
0.256444, 2579, 151, 2176, 129, 209, -5340
0.256578, 2579, 151, 2176, 129, 209, -5340
0.256712, 2579, 151, 2176, 129, 209, -5340
0.256846, 1505, 161, 2631, 813, 1388, -6585
0.256980, 1505, 161, 2631, 813, 1388, -6585
0.257114, 1505, 161, 2631, 813, 1388, -6585
0.257248, 1505, 161, 2631, 813, 1388, -6585
0.257382, 1505, 161, 2631, 813, 1388, -6585
0.257516, 1505, 161, 2631, 813, 1388, -6585
0.257650, 1505, 161, 2631, 813, 1388, -6585
0.257785, 280, -13, 2348, 1590, 2579, -7220
0.257920, 280, -13, 2348, 1590, 2579, -7220
0.258055, 280, -13, 2348, 1590, 2579, -7220
0.258190, 280, -13, 2348, 1590, 2579, -7220
0.258324, 280, -13, 2348, 1590, 2579, -7220
0.258459, 280, -13, 2348, 1590, 2579, -7220
0.258594, 280, -13, 2348, 1590, 2579, -7220
0.258728, 280, -13, 2348, 1590, 2579, -7220
0.258863, -1254, 14, 2275, 2089, 3426, -7010
0.258998, -1254, 14, 2275, 2089, 3426, -7010
0.259132, -1254, 14, 2275, 2089, 3426, -7010
0.259267, -1254, 14, 2275, 2089, 3426, -7010
0.259401, -1254, 14, 2275, 2089, 3426, -7010
0.259531, -1254, 14, 2275, 2089, 3426, -7010
0.259668, -1254, 14, 2275, 2089, 3426, -7010
0.259805, -1358, 296, 3053, 2623, 3784, -6072
0.259945, -1358, 296, 3053, 2623, 3784, -6072
0.260079, -1358, 296, 3053, 2623, 3784, -6072
0.260214, -1358, 296, 3053, 2623, 3784, -6072
0.260349, -1358, 296, 3053, 2623, 3784, -6072
0.260484, -1358, 296, 3053, 2623, 3784, -6072
0.260618, -1358, 296, 3053, 2623, 3784, -6072
0.260753, -1358, 296, 3053, 2623, 3784, -6072
0.260887, -905, 336, 2903, 3142, 3747, -5313
0.261022, -905, 336, 2903, 3142, 3747, -5313
0.261157, -905, 336, 2903, 3142, 3747, -5313
0.261292, -905, 336, 2903, 3142, 3747, -5313
0.261426, -905, 336, 2903, 3142, 3747, -5313
0.261561, -905, 336, 2903, 3142, 3747, -5313
0.261696, -905, 336, 2903, 3142, 3747, -5313
0.261831, -1517, 251, 1549, 3120, 3334, -4783
0.261966, -1517, 251, 1549, 3120, 3334, -4783
0.262100, -1517, 251, 1549, 3120, 3334, -4783
0.262235, -1517, 251, 1549, 3120, 3334, -4783
0.262370, -1517, 251, 1549, 3120, 3334, -4783
0.262504, -1517, 251, 1549, 3120, 3334, -4783
0.262639, -1517, 251, 1549, 3120, 3334, -4783
0.262774, -1517, 251, 1549, 3120, 3334, -4783
0.262908, -3267, 237, 377, 2293, 2631, -3552
0.263043, -3267, 237, 377, 2293, 2631, -3552
0.263178, -3267, 237, 377, 2293, 2631, -3552
0.263312, -3267, 237, 377, 2293, 2631, -3552
0.263447, -3267, 237, 377, 2293, 2631, -3552
0.263582, -3267, 237, 377, 2293, 2631, -3552
0.263716, -3267, 237, 377, 2293, 2631, -3552
0.263851, -3780, 235, 360, 1034, 1652, -1339
0.263986, -3780, 235, 360, 1034, 1652, -1339
0.264121, -3780, 235, 360, 1034, 1652, -1339
0.264255, -3780, 235, 360, 1034, 1652, -1339
0.264390, -3780, 235, 360, 1034, 1652, -1339
0.264524, -3780, 235, 360, 1034, 1652, -1339
0.264659, -3780, 235, 360, 1034, 1652, -1339
0.264794, -3780, 235, 360, 1034, 1652, -1339
0.264928, -2709, 263, 1193, 62, 437, 750
0.265081, -2709, 263, 1193, 62, 437, 750
0.265217, -2709, 263, 1193, 62, 437, 750
0.265351, -2709, 263, 1193, 62, 437, 750
0.265486, -2709, 263, 1193, 62, 437, 750
0.265621, -2709, 263, 1193, 62, 437, 750
0.265756, -2709, 263, 1193, 62, 437, 750
0.265890, -1424, 256, 1786, -530, -624, 2067
0.266025, -1424, 256, 1786, -530, -624, 2067
0.266160, -1424, 256, 1786, -530, -624, 2067
0.266295, -1424, 256, 1786, -530, -624, 2067
0.266429, -1424, 256, 1786, -530, -624, 2067
0.266564, -1424, 256, 1786, -530, -624, 2067
0.266698, -1424, 256, 1786, -530, -624, 2067
0.266833, -1424, 256, 1786, -530, -624, 2067
0.266968, -38, 218, 2118, -941, -1349, 2605
0.267103, -38, 218, 2118, -941, -1349, 2605
0.267237, -38, 218, 2118, -941, -1349, 2605
0.267372, -38, 218, 2118, -941, -1349, 2605
0.267507, -38, 218, 2118, -941, -1349, 2605
0.267641, -38, 218, 2118, -941, -1349, 2605
0.267776, -38, 218, 2118, -941, -1349, 2605
0.267911, 356, 193, 2239, -1145, -1701, 2483
0.268045, 356, 193, 2239, -1145, -1701, 2483
0.268180, 356, 193, 2239, -1145, -1701, 2483
0.268315, 356, 193, 2239, -1145, -1701, 2483
0.268449, 356, 193, 2239, -1145, -1701, 2483
0.268584, 356, 193, 2239, -1145, -1701, 2483
0.268718, 356, 193, 2239, -1145, -1701, 2483
0.268853, 356, 193, 2239, -1145, -1701, 2483
0.268987, 140, 169, 2101, -1172, -1734, 2285
0.269122, 140, 169, 2101, -1172, -1734, 2285
0.269257, 140, 169, 2101, -1172, -1734, 2285
0.269391, 140, 169, 2101, -1172, -1734, 2285
0.269526, 140, 169, 2101, -1172, -1734, 2285
0.269660, 140, 169, 2101, -1172, -1734, 2285
0.269795, 140, 169, 2101, -1172, -1734, 2285
0.269930, 524, 156, 2147, -1034, -1665, 2086
0.270064, 524, 156, 2147, -1034, -1665, 2086
0.270199, 524, 156, 2147, -1034, -1665, 2086
0.270334, 524, 156, 2147, -1034, -1665, 2086
0.270468, 524, 156, 2147, -1034, -1665, 2086
0.270603, 524, 156, 2147, -1034, -1665, 2086
0.270738, 524, 156, 2147, -1034, -1665, 2086
0.270872, 524, 156, 2147, -1034, -1665, 2086
0.271007, 1143, 169, 2370, -756, -1408, 1571
0.271142, 1143, 169, 2370, -756, -1408, 1571
0.271277, 1143, 169, 2370, -756, -1408, 1571
0.271411, 1143, 169, 2370, -756, -1408, 1571
0.271546, 1143, 169, 2370, -756, -1408, 1571
0.271681, 1143, 169, 2370, -756, -1408, 1571
0.271815, 1143, 169, 2370, -756, -1408, 1571
0.271950, 1404, 165, 2517, -440, -847, 740
0.272085, 1404, 165, 2517, -440, -847, 740
0.272219, 1404, 165, 2517, -440, -847, 740
0.272354, 1404, 165, 2517, -440, -847, 740
0.272488, 1404, 165, 2517, -440, -847, 740
0.272623, 1404, 165, 2517, -440, -847, 740
0.272758, 1404, 165, 2517, -440, -847, 740
0.272892, 1404, 165, 2517, -440, -847, 740
0.273027, 1300, 209, 2519, -114, -42, -95
0.273162, 1300, 209, 2519, -114, -42, -95
0.273296, 1300, 209, 2519, -114, -42, -95
0.273431, 1300, 209, 2519, -114, -42, -95
0.273566, 1300, 209, 2519, -114, -42, -95
0.273700, 1300, 209, 2519, -114, -42, -95
0.273835, 1300, 209, 2519, -114, -42, -95
0.273970, 1863, 342, 2592, 244, 787, -965
0.274105, 1863, 342, 2592, 244, 787, -965
0.274240, 1863, 342, 2592, 244, 787, -965
0.274374, 1863, 342, 2592, 244, 787, -965
0.274509, 1863, 342, 2592, 244, 787, -965
0.274643, 1863, 342, 2592, 244, 787, -965
0.274778, 1863, 342, 2592, 244, 787, -965
0.274913, 1863, 342, 2592, 244, 787, -965
0.275047, 1745, 305, 2676, 675, 1471, -2265
0.275182, 1745, 305, 2676, 675, 1471, -2265
0.275317, 1745, 305, 2676, 675, 1471, -2265
0.275451, 1745, 305, 2676, 675, 1471, -2265
0.275586, 1745, 305, 2676, 675, 1471, -2265
0.275721, 1745, 305, 2676, 675, 1471, -2265
0.275855, 1745, 305, 2676, 675, 1471, -2265
0.275990, -611, 83, 2183, 1036, 2053, -2989
0.276125, -611, 83, 2183, 1036, 2053, -2989
0.276260, -611, 83, 2183, 1036, 2053, -2989
0.276394, -611, 83, 2183, 1036, 2053, -2989
0.276529, -611, 83, 2183, 1036, 2053, -2989
0.276663, -611, 83, 2183, 1036, 2053, -2989
0.276798, -611, 83, 2183, 1036, 2053, -2989
0.276933, -611, 83, 2183, 1036, 2053, -2989
0.277067, -1634, 42, 1638, 1120, 2234, -2305
0.277202, -1634, 42, 1638, 1120, 2234, -2305
0.277337, -1634, 42, 1638, 1120, 2234, -2305
0.277472, -1634, 42, 1638, 1120, 2234, -2305
0.277612, -1634, 42, 1638, 1120, 2234, -2305
0.277747, -1634, 42, 1638, 1120, 2234, -2305
0.277882, -1634, 42, 1638, 1120, 2234, -2305
0.278016, -627, 157, 1676, 942, 1881, -1555
0.278151, -627, 157, 1676, 942, 1881, -1555
0.278286, -627, 157, 1676, 942, 1881, -1555
0.278419, -627, 157, 1676, 942, 1881, -1555
0.278557, -627, 157, 1676, 942, 1881, -1555
0.278698, -627, 157, 1676, 942, 1881, -1555
0.278838, -627, 157, 1676, 942, 1881, -1555
0.278978, -627, 157, 1676, 942, 1881, -1555
0.279114, -123, 230, 1769, 587, 1391, -1429
0.279251, -123, 230, 1769, 587, 1391, -1429
0.279386, -123, 230, 1769, 587, 1391, -1429
0.279520, -123, 230, 1769, 587, 1391, -1429
0.279655, -123, 230, 1769, 587, 1391, -1429
0.279789, -123, 230, 1769, 587, 1391, -1429
0.279924, -123, 230, 1769, 587, 1391, -1429
0.280059, 15, 306, 1890, 249, 972, -1433
0.280189, 15, 306, 1890, 249, 972, -1433
0.280323, 15, 306, 1890, 249, 972, -1433
0.280458, 15, 306, 1890, 249, 972, -1433
0.280592, 15, 306, 1890, 249, 972, -1433
0.280727, 15, 306, 1890, 249, 972, -1433
0.280862, 15, 306, 1890, 249, 972, -1433
0.280996, 15, 306, 1890, 249, 972, -1433
0.281131, -126, 342, 2181, 138, 729, -1428
0.281266, -126, 342, 2181, 138, 729, -1428
0.281401, -126, 342, 2181, 138, 729, -1428
0.281535, -126, 342, 2181, 138, 729, -1428
0.281670, -126, 342, 2181, 138, 729, -1428
0.281806, -126, 342, 2181, 138, 729, -1428
0.281941, -126, 342, 2181, 138, 729, -1428
0.282075, -977, 213, 1987, 196, 654, -1178
0.282210, -977, 213, 1987, 196, 654, -1178
0.282345, -977, 213, 1987, 196, 654, -1178
0.282479, -977, 213, 1987, 196, 654, -1178
0.282614, -977, 213, 1987, 196, 654, -1178
0.282749, -977, 213, 1987, 196, 654, -1178
0.282883, -977, 213, 1987, 196, 654, -1178
0.283018, -977, 213, 1987, 196, 654, -1178
0.283152, -1771, 117, 1468, 133, 477, -339
0.283287, -1771, 117, 1468, 133, 477, -339
0.283422, -1771, 117, 1468, 133, 477, -339
0.283557, -1771, 117, 1468, 133, 477, -339
0.283691, -1771, 117, 1468, 133, 477, -339
0.283826, -1771, 117, 1468, 133, 477, -339
0.283961, -1771, 117, 1468, 133, 477, -339
0.284095, -1513, 201, 1556, -98, 101, 753
0.284230, -1513, 201, 1556, -98, 101, 753
0.284365, -1513, 201, 1556, -98, 101, 753
0.284500, -1513, 201, 1556, -98, 101, 753
0.284634, -1513, 201, 1556, -98, 101, 753
0.284769, -1513, 201, 1556, -98, 101, 753
0.284904, -1513, 201, 1556, -98, 101, 753
0.285038, -1513, 201, 1556, -98, 101, 753
0.285173, -1488, 210, 1738, -351, -225, 1648
0.285308, -1488, 210, 1738, -351, -225, 1648
0.285442, -1488, 210, 1738, -351, -225, 1648
0.285577, -1488, 210, 1738, -351, -225, 1648
0.285713, -1488, 210, 1738, -351, -225, 1648
0.285848, -1488, 210, 1738, -351, -225, 1648
0.285982, -1488, 210, 1738, -351, -225, 1648
0.286117, -1471, 130, 1708, -648, -415, 2605
0.286252, -1471, 130, 1708, -648, -415, 2605
0.286386, -1471, 130, 1708, -648, -415, 2605
0.286521, -1471, 130, 1708, -648, -415, 2605
0.286656, -1471, 130, 1708, -648, -415, 2605
0.286790, -1471, 130, 1708, -648, -415, 2605
0.286925, -1471, 130, 1708, -648, -415, 2605
0.287059, -1471, 130, 1708, -648, -415, 2605
0.287194, 15, 163, 2117, -874, -591, 3242
0.287329, 15, 163, 2117, -874, -591, 3242
0.287464, 15, 163, 2117, -874, -591, 3242
0.287598, 15, 163, 2117, -874, -591, 3242
0.287733, 15, 163, 2117, -874, -591, 3242
0.287867, 15, 163, 2117, -874, -591, 3242
0.288002, 15, 163, 2117, -874, -591, 3242
0.288137, 15, 163, 2117, -874, -591, 3242
0.288271, 1539, 219, 2639, -863, -643, 2796
0.288406, 1539, 219, 2639, -863, -643, 2796
0.288541, 1539, 219, 2639, -863, -643, 2796
0.288675, 1539, 219, 2639, -863, -643, 2796
0.288810, 1539, 219, 2639, -863, -643, 2796
0.288945, 1539, 219, 2639, -863, -643, 2796
0.289079, 1539, 219, 2639, -863, -643, 2796
0.289214, 1602, 174, 2522, -676, -506, 1672
0.289349, 1602, 174, 2522, -676, -506, 1672
0.289483, 1602, 174, 2522, -676, -506, 1672
0.289618, 1602, 174, 2522, -676, -506, 1672
0.289753, 1602, 174, 2522, -676, -506, 1672
0.289887, 1602, 174, 2522, -676, -506, 1672
0.290022, 1602, 174, 2522, -676, -506, 1672
0.290157, 1602, 174, 2522, -676, -506, 1672
0.290291, 1304, 153, 2104, -507, -292, 707
0.290439, 1304, 153, 2104, -507, -292, 707
0.290574, 1304, 153, 2104, -507, -292, 707
0.290709, 1304, 153, 2104, -507, -292, 707
0.290843, 1304, 153, 2104, -507, -292, 707
0.290978, 1304, 153, 2104, -507, -292, 707
0.291113, 1304, 153, 2104, -507, -292, 707
0.291247, 2302, 232, 2655, -206, -69, -325
0.291382, 2302, 232, 2655, -206, -69, -325
0.291517, 2302, 232, 2655, -206, -69, -325
0.291651, 2302, 232, 2655, -206, -69, -325
0.291786, 2302, 232, 2655, -206, -69, -325
0.291920, 2302, 232, 2655, -206, -69, -325
0.292055, 2302, 232, 2655, -206, -69, -325
0.292190, 2302, 232, 2655, -206, -69, -325
0.292324, 2651, 213, 3555, 653, 328, -1999
0.292459, 2651, 213, 3555, 653, 328, -1999
0.292593, 2651, 213, 3555, 653, 328, -1999
0.292728, 2651, 213, 3555, 653, 328, -1999
0.292862, 2651, 213, 3555, 653, 328, -1999
0.292997, 2651, 213, 3555, 653, 328, -1999
0.293132, 2651, 213, 3555, 653, 328, -1999
0.293267, 832, 128, 3054, 1737, 1043, -3372
0.293402, 832, 128, 3054, 1737, 1043, -3372
0.293537, 832, 128, 3054, 1737, 1043, -3372
0.293672, 832, 128, 3054, 1737, 1043, -3372
0.293807, 832, 128, 3054, 1737, 1043, -3372
0.293941, 832, 128, 3054, 1737, 1043, -3372
0.294076, 832, 128, 3054, 1737, 1043, -3372
0.294210, 832, 128, 3054, 1737, 1043, -3372
0.294345, -1137, 108, 1818, 2332, 1734, -3416
0.294480, -1137, 108, 1818, 2332, 1734, -3416
0.294614, -1137, 108, 1818, 2332, 1734, -3416
0.294749, -1137, 108, 1818, 2332, 1734, -3416
0.294884, -1137, 108, 1818, 2332, 1734, -3416
0.295018, -1137, 108, 1818, 2332, 1734, -3416
0.295153, -1137, 108, 1818, 2332, 1734, -3416
0.295288, -2220, 37, 879, 2181, 2057, -2460
0.295422, -2220, 37, 879, 2181, 2057, -2460
0.295557, -2220, 37, 879, 2181, 2057, -2460
0.295692, -2220, 37, 879, 2181, 2057, -2460
0.295826, -2220, 37, 879, 2181, 2057, -2460
0.295961, -2220, 37, 879, 2181, 2057, -2460
0.296095, -2220, 37, 879, 2181, 2057, -2460
0.296230, -2220, 37, 879, 2181, 2057, -2460
0.296365, -2293, 99, 621, 1418, 1910, -1130
0.296499, -2293, 99, 621, 1418, 1910, -1130
0.296634, -2293, 99, 621, 1418, 1910, -1130
0.296768, -2293, 99, 621, 1418, 1910, -1130
0.296903, -2293, 99, 621, 1418, 1910, -1130
0.297038, -2293, 99, 621, 1418, 1910, -1130
0.297172, -2293, 99, 621, 1418, 1910, -1130
0.297307, -1659, 316, 1252, 517, 1434, 79
0.297442, -1659, 316, 1252, 517, 1434, 79
0.297576, -1659, 316, 1252, 517, 1434, 79
0.297712, -1659, 316, 1252, 517, 1434, 79
0.297846, -1659, 316, 1252, 517, 1434, 79
0.297981, -1659, 316, 1252, 517, 1434, 79
0.298115, -1659, 316, 1252, 517, 1434, 79
0.298250, -1659, 316, 1252, 517, 1434, 79
0.298385, -404, 357, 1962, -162, 999, 856
0.298519, -404, 357, 1962, -162, 999, 856
0.298654, -404, 357, 1962, -162, 999, 856
0.298789, -404, 357, 1962, -162, 999, 856
0.298923, -404, 357, 1962, -162, 999, 856
0.299058, -404, 357, 1962, -162, 999, 856
0.299192, -404, 357, 1962, -162, 999, 856
0.299327, 1773, 316, 2426, -470, 585, 650
0.299462, 1773, 316, 2426, -470, 585, 650
0.299596, 1773, 316, 2426, -470, 585, 650
0.299731, 1773, 316, 2426, -470, 585, 650
0.299866, 1773, 316, 2426, -470, 585, 650
0.300000, 1773, 316, 2426, -470, 585, 650
0.300135, 1773, 316, 2426, -470, 585, 650
0.300269, 1773, 316, 2426, -470, 585, 650
0.300404, 2679, 221, 2626, -354, 200, -808
0.300539, 2679, 221, 2626, -354, 200, -808
0.300673, 2679, 221, 2626, -354, 200, -808
0.300808, 2679, 221, 2626, -354, 200, -808
0.300942, 2679, 221, 2626, -354, 200, -808
0.301077, 2679, 221, 2626, -354, 200, -808
0.301211, 2679, 221, 2626, -354, 200, -808
0.301346, 1170, 54, 2491, 107, 73, -2286
0.301481, 1170, 54, 2491, 107, 73, -2286
0.301616, 1170, 54, 2491, 107, 73, -2286
0.301751, 1170, 54, 2491, 107, 73, -2286
0.301885, 1170, 54, 2491, 107, 73, -2286
0.302020, 1170, 54, 2491, 107, 73, -2286
0.302154, 1170, 54, 2491, 107, 73, -2286
0.302289, 1170, 54, 2491, 107, 73, -2286
0.302424, -832, 131, 1923, 691, 66, -2569
0.302558, -832, 131, 1923, 691, 66, -2569
0.302693, -832, 131, 1923, 691, 66, -2569
0.302827, -832, 131, 1923, 691, 66, -2569
0.302962, -832, 131, 1923, 691, 66, -2569
0.303097, -832, 131, 1923, 691, 66, -2569
0.303237, -832, 131, 1923, 691, 66, -2569
0.303372, -2296, 237, 1188, 950, 64, -1709
0.303507, -2296, 237, 1188, 950, 64, -1709
0.303641, -2296, 237, 1188, 950, 64, -1709
0.303776, -2296, 237, 1188, 950, 64, -1709
0.303910, -2296, 237, 1188, 950, 64, -1709
0.304045, -2296, 237, 1188, 950, 64, -1709
0.304180, -2296, 237, 1188, 950, 64, -1709
0.304314, -2296, 237, 1188, 950, 64, -1709
0.304449, -3477, 110, 953, 699, 69, 4
0.304584, -3477, 110, 953, 699, 69, 4
0.304718, -3477, 110, 953, 699, 69, 4
0.304853, -3477, 110, 953, 699, 69, 4
0.304987, -3477, 110, 953, 699, 69, 4
0.305122, -3477, 110, 953, 699, 69, 4
0.305257, -3477, 110, 953, 699, 69, 4
0.305391, -3392, 138, 1174, 88, -21, 2284
0.305526, -3392, 138, 1174, 88, -21, 2284
0.305661, -3392, 138, 1174, 88, -21, 2284
0.305796, -3392, 138, 1174, 88, -21, 2284
0.305930, -3392, 138, 1174, 88, -21, 2284
0.306065, -3392, 138, 1174, 88, -21, 2284
0.306200, -3392, 138, 1174, 88, -21, 2284
0.306334, -3392, 138, 1174, 88, -21, 2284
0.306469, -1234, 291, 1845, -620, -233, 4011
0.306604, -1234, 291, 1845, -620, -233, 4011
0.306738, -1234, 291, 1845, -620, -233, 4011
0.306873, -1234, 291, 1845, -620, -233, 4011
0.307007, -1234, 291, 1845, -620, -233, 4011
0.307142, -1234, 291, 1845, -620, -233, 4011
0.307277, -1234, 291, 1845, -620, -233, 4011
0.307411, 1207, 312, 2605, -1083, -446, 4124
0.307546, 1207, 312, 2605, -1083, -446, 4124
0.307681, 1207, 312, 2605, -1083, -446, 4124
0.307816, 1207, 312, 2605, -1083, -446, 4124
0.307950, 1207, 312, 2605, -1083, -446, 4124
0.308085, 1207, 312, 2605, -1083, -446, 4124
0.308219, 1207, 312, 2605, -1083, -446, 4124
0.308354, 1207, 312, 2605, -1083, -446, 4124
0.308489, 2904, 304, 2963, -1146, -548, 2860
0.308623, 2904, 304, 2963, -1146, -548, 2860
0.308758, 2904, 304, 2963, -1146, -548, 2860
0.308892, 2904, 304, 2963, -1146, -548, 2860
0.309027, 2904, 304, 2963, -1146, -548, 2860
0.309161, 2904, 304, 2963, -1146, -548, 2860
0.309296, 2904, 304, 2963, -1146, -548, 2860
0.309431, 4477, 382, 2801, -847, -578, 609
0.309565, 4477, 382, 2801, -847, -578, 609
0.309700, 4477, 382, 2801, -847, -578, 609
0.309835, 4477, 382, 2801, -847, -578, 609
0.309970, 4477, 382, 2801, -847, -578, 609
0.310104, 4477, 382, 2801, -847, -578, 609
0.310239, 4477, 382, 2801, -847, -578, 609
0.310373, 4477, 382, 2801, -847, -578, 609
0.310508, 4216, 293, 2224, -435, -433, -2353
0.310643, 4216, 293, 2224, -435, -433, -2353
0.310777, 4216, 293, 2224, -435, -433, -2353
0.310912, 4216, 293, 2224, -435, -433, -2353
0.311046, 4216, 293, 2224, -435, -433, -2353
0.311181, 4216, 293, 2224, -435, -433, -2353
0.311316, 4216, 293, 2224, -435, -433, -2353
0.311450, 4216, 293, 2224, -435, -433, -2353
0.311585, 702, -72, 1885, 5, 67, -4431
0.311720, 702, -72, 1885, 5, 67, -4431
0.311854, 702, -72, 1885, 5, 67, -4431
0.311989, 702, -72, 1885, 5, 67, -4431
0.312124, 702, -72, 1885, 5, 67, -4431
0.312258, 702, -72, 1885, 5, 67, -4431
0.312393, 702, -72, 1885, 5, 67, -4431
0.312527, -3530, -169, 1580, 549, 798, -3941
0.312662, -3530, -169, 1580, 549, 798, -3941
0.312797, -3530, -169, 1580, 549, 798, -3941
0.312931, -3530, -169, 1580, 549, 798, -3941
0.313066, -3530, -169, 1580, 549, 798, -3941
0.313200, -3530, -169, 1580, 549, 798, -3941
0.313335, -3530, -169, 1580, 549, 798, -3941
0.313470, -3530, -169, 1580, 549, 798, -3941
0.313604, -5388, 78, 1029, 741, 1343, -1247
0.313739, -5388, 78, 1029, 741, 1343, -1247
0.313874, -5388, 78, 1029, 741, 1343, -1247
0.314009, -5388, 78, 1029, 741, 1343, -1247
0.314143, -5388, 78, 1029, 741, 1343, -1247
0.314278, -5388, 78, 1029, 741, 1343, -1247
0.314412, -5388, 78, 1029, 741, 1343, -1247
0.314547, -4154, 265, 1159, 243, 1289, 1824
0.314681, -4154, 265, 1159, 243, 1289, 1824
0.314816, -4154, 265, 1159, 243, 1289, 1824
0.314951, -4154, 265, 1159, 243, 1289, 1824
0.315085, -4154, 265, 1159, 243, 1289, 1824
0.315220, -4154, 265, 1159, 243, 1289, 1824
0.315354, -4154, 265, 1159, 243, 1289, 1824
0.315489, -4154, 265, 1159, 243, 1289, 1824
0.315623, -1895, 316, 1935, -622, 766, 3758
0.315758, -1895, 316, 1935, -622, 766, 3758
0.315893, -1895, 316, 1935, -622, 766, 3758
0.316037, -1895, 316, 1935, -622, 766, 3758
0.316172, -1895, 316, 1935, -622, 766, 3758
0.316306, -1895, 316, 1935, -622, 766, 3758
0.316441, -1895, 316, 1935, -622, 766, 3758
0.316576, -609, 324, 2318, -1475, 212, 4494
0.316710, -609, 324, 2318, -1475, 212, 4494
0.316845, -609, 324, 2318, -1475, 212, 4494
0.316980, -609, 324, 2318, -1475, 212, 4494
0.317115, -609, 324, 2318, -1475, 212, 4494
0.317249, -609, 324, 2318, -1475, 212, 4494
0.317384, -609, 324, 2318, -1475, 212, 4494
0.317518, -609, 324, 2318, -1475, 212, 4494
0.317653, -125, 281, 2238, -2086, -322, 4618
0.317788, -125, 281, 2238, -2086, -322, 4618
0.317922, -125, 281, 2238, -2086, -322, 4618
0.318056, -125, 281, 2238, -2086, -322, 4618
0.318190, -125, 281, 2238, -2086, -322, 4618
0.318324, -125, 281, 2238, -2086, -322, 4618
0.318458, -125, 281, 2238, -2086, -322, 4618
0.318592, 67, 211, 2130, -2348, -911, 4439
0.318726, 67, 211, 2130, -2348, -911, 4439
0.318861, 67, 211, 2130, -2348, -911, 4439
0.318995, 67, 211, 2130, -2348, -911, 4439
0.319129, 67, 211, 2130, -2348, -911, 4439
0.319264, 67, 211, 2130, -2348, -911, 4439
0.319398, 67, 211, 2130, -2348, -911, 4439
0.319533, 67, 211, 2130, -2348, -911, 4439
0.319667, 13, 172, 2034, -2329, -1539, 4179
0.319802, 13, 172, 2034, -2329, -1539, 4179
0.319936, 13, 172, 2034, -2329, -1539, 4179
0.320070, 13, 172, 2034, -2329, -1539, 4179
0.320205, 13, 172, 2034, -2329, -1539, 4179
0.320339, 13, 172, 2034, -2329, -1539, 4179
0.320474, 13, 172, 2034, -2329, -1539, 4179
0.320608, -360, 149, 1917, -2189, -2083, 4087
0.320743, -360, 149, 1917, -2189, -2083, 4087
0.320877, -360, 149, 1917, -2189, -2083, 4087
0.321011, -360, 149, 1917, -2189, -2083, 4087
0.321146, -360, 149, 1917, -2189, -2083, 4087
0.321280, -360, 149, 1917, -2189, -2083, 4087
0.321415, -360, 149, 1917, -2189, -2083, 4087
0.321549, -360, 149, 1917, -2189, -2083, 4087
0.321683, -604, 141, 1882, -2054, -2322, 4299
0.321819, -604, 141, 1882, -2054, -2322, 4299
0.321953, -604, 141, 1882, -2054, -2322, 4299
0.322088, -604, 141, 1882, -2054, -2322, 4299
0.322222, -604, 141, 1882, -2054, -2322, 4299
0.322357, -604, 141, 1882, -2054, -2322, 4299
0.322491, -604, 141, 1882, -2054, -2322, 4299
0.322626, -384, 161, 1970, -1969, -2185, 4597
0.322760, -384, 161, 1970, -1969, -2185, 4597
0.322895, -384, 161, 1970, -1969, -2185, 4597
0.323029, -384, 161, 1970, -1969, -2185, 4597
0.323164, -384, 161, 1970, -1969, -2185, 4597
0.323298, -384, 161, 1970, -1969, -2185, 4597
0.323433, -384, 161, 1970, -1969, -2185, 4597
0.323567, -384, 161, 1970, -1969, -2185, 4597
0.323702, -98, 189, 2073, -1958, -1756, 4720
0.323836, -98, 189, 2073, -1958, -1756, 4720
0.323971, -98, 189, 2073, -1958, -1756, 4720
0.324105, -98, 189, 2073, -1958, -1756, 4720
0.324240, -98, 189, 2073, -1958, -1756, 4720
0.324374, -98, 189, 2073, -1958, -1756, 4720
0.324509, -98, 189, 2073, -1958, -1756, 4720
0.324643, -5, 202, 2110, -2025, -1187, 4705
0.324778, -5, 202, 2110, -2025, -1187, 4705
0.324912, -5, 202, 2110, -2025, -1187, 4705
0.325047, -5, 202, 2110, -2025, -1187, 4705
0.325181, -5, 202, 2110, -2025, -1187, 4705
0.325316, -5, 202, 2110, -2025, -1187, 4705
0.325450, -5, 202, 2110, -2025, -1187, 4705
0.325585, -5, 202, 2110, -2025, -1187, 4705
0.325720, -5, 204, 2105, -2122, -641, 4651
0.325855, -5, 204, 2105, -2122, -641, 4651
0.325989, -5, 204, 2105, -2122, -641, 4651
0.326124, -5, 204, 2105, -2122, -641, 4651
0.326258, -5, 204, 2105, -2122, -641, 4651
0.326393, -5, 204, 2105, -2122, -641, 4651
0.326527, -5, 204, 2105, -2122, -641, 4651
0.326662, -21, 199, 2089, -2193, -218, 4583
0.326797, -21, 199, 2089, -2193, -218, 4583
0.326931, -21, 199, 2089, -2193, -218, 4583
0.327066, -21, 199, 2089, -2193, -218, 4583
0.327200, -21, 199, 2089, -2193, -218, 4583
0.327335, -21, 199, 2089, -2193, -218, 4583
0.327469, -21, 199, 2089, -2193, -218, 4583
0.327604, -21, 199, 2089, -2193, -218, 4583
0.327738, -42, 192, 2069, -2222, 41, 4506
0.327873, -42, 192, 2069, -2222, 41, 4506
0.328008, -42, 192, 2069, -2222, 41, 4506
0.328142, -42, 192, 2069, -2222, 41, 4506
0.328277, -42, 192, 2069, -2222, 41, 4506
0.328415, -42, 192, 2069, -2222, 41, 4506
0.328550, -42, 192, 2069, -2222, 41, 4506
0.328685, -62, 189, 2061, -2231, 129, 4423
0.328819, -62, 189, 2061, -2231, 129, 4423
0.328954, -62, 189, 2061, -2231, 129, 4423
0.329089, -62, 189, 2061, -2231, 129, 4423
0.329223, -62, 189, 2061, -2231, 129, 4423
0.329358, -62, 189, 2061, -2231, 129, 4423
0.329492, -62, 189, 2061, -2231, 129, 4423
0.329626, -62, 189, 2061, -2231, 129, 4423
0.329761, -62, 192, 2062, -2237, 78, 4337
0.329896, -62, 192, 2062, -2237, 78, 4337
0.330031, -62, 192, 2062, -2237, 78, 4337
0.330165, -62, 192, 2062, -2237, 78, 4337
0.330300, -62, 192, 2062, -2237, 78, 4337
0.330434, -62, 192, 2062, -2237, 78, 4337
0.330569, -62, 192, 2062, -2237, 78, 4337
0.330704, -62, 192, 2062, -2237, 78, 4337
0.330838, -66, 193, 2058, -2240, -44, 4246
0.330973, -66, 193, 2058, -2240, -44, 4246
0.331108, -66, 193, 2058, -2240, -44, 4246
0.331243, -66, 193, 2058, -2240, -44, 4246
0.331377, -66, 193, 2058, -2240, -44, 4246
0.331512, -66, 193, 2058, -2240, -44, 4246
0.331646, -66, 193, 2058, -2240, -44, 4246
0.331781, -105, 189, 2046, -2240, -173, 4167
0.331916, -105, 189, 2046, -2240, -173, 4167
0.332051, -105, 189, 2046, -2240, -173, 4167
0.332185, -105, 189, 2046, -2240, -173, 4167
0.332320, -105, 189, 2046, -2240, -173, 4167
0.332455, -105, 189, 2046, -2240, -173, 4167
0.332589, -105, 189, 2046, -2240, -173, 4167
0.332724, -105, 189, 2046, -2240, -173, 4167
0.332858, -117, 187, 2043, -2249, -294, 4119
0.332993, -117, 187, 2043, -2249, -294, 4119
0.333128, -117, 187, 2043, -2249, -294, 4119
0.333262, -117, 187, 2043, -2249, -294, 4119
0.333397, -117, 187, 2043, -2249, -294, 4119
0.333532, -117, 187, 2043, -2249, -294, 4119
0.333666, -117, 187, 2043, -2249, -294, 4119
0.333801, -108, 185, 2050, -2275, -395, 4087
0.333936, -108, 185, 2050, -2275, -395, 4087
0.334071, -108, 185, 2050, -2275, -395, 4087
0.334205, -108, 185, 2050, -2275, -395, 4087
0.334340, -108, 185, 2050, -2275, -395, 4087
0.334475, -108, 185, 2050, -2275, -395, 4087
0.334609, -108, 185, 2050, -2275, -395, 4087
0.334744, -108, 185, 2050, -2275, -395, 4087
0.334879, -133, 176, 2050, -2314, -455, 4072
0.335014, -133, 176, 2050, -2314, -455, 4072
0.335148, -133, 176, 2050, -2314, -455, 4072
0.335283, -133, 176, 2050, -2314, -455, 4072
0.335417, -133, 176, 2050, -2314, -455, 4072
0.335552, -133, 176, 2050, -2314, -455, 4072
0.335687, -133, 176, 2050, -2314, -455, 4072
0.335821, -144, 170, 2046, -2348, -472, 4084
0.335956, -144, 170, 2046, -2348, -472, 4084
0.336091, -144, 170, 2046, -2348, -472, 4084
0.336226, -144, 170, 2046, -2348, -472, 4084
0.336360, -144, 170, 2046, -2348, -472, 4084
0.336495, -144, 170, 2046, -2348, -472, 4084
0.336629, -144, 170, 2046, -2348, -472, 4084
0.336764, -144, 170, 2046, -2348, -472, 4084
0.336899, -107, 172, 2054, -2363, -446, 4092
0.337033, -107, 172, 2054, -2363, -446, 4092
0.337168, -107, 172, 2054, -2363, -446, 4092
0.337303, -107, 172, 2054, -2363, -446, 4092
0.337437, -107, 172, 2054, -2363, -446, 4092
0.337572, -107, 172, 2054, -2363, -446, 4092
0.337712, -107, 172, 2054, -2363, -446, 4092
0.337847, -72, 173, 2060, -2363, -373, 4068
0.337982, -72, 173, 2060, -2363, -373, 4068
0.338117, -72, 173, 2060, -2363, -373, 4068
0.338252, -72, 173, 2060, -2363, -373, 4068
0.338386, -72, 173, 2060, -2363, -373, 4068
0.338521, -72, 173, 2060, -2363, -373, 4068
0.338656, -72, 173, 2060, -2363, -373, 4068
0.338790, -72, 173, 2060, -2363, -373, 4068
0.338925, -67, 170, 2054, -2361, -266, 4031
0.339060, -67, 170, 2054, -2361, -266, 4031
0.339194, -67, 170, 2054, -2361, -266, 4031
0.339329, -67, 170, 2054, -2361, -266, 4031
0.339464, -67, 170, 2054, -2361, -266, 4031
0.339598, -67, 170, 2054, -2361, -266, 4031
0.339733, -67, 170, 2054, -2361, -266, 4031
0.339867, -64, 172, 2048, -2364, -149, 3996
0.340002, -64, 172, 2048, -2364, -149, 3996
0.340137, -64, 172, 2048, -2364, -149, 3996
0.340272, -64, 172, 2048, -2364, -149, 3996
0.340406, -64, 172, 2048, -2364, -149, 3996
0.340541, -64, 172, 2048, -2364, -149, 3996
0.340675, -64, 172, 2048, -2364, -149, 3996
0.340810, -64, 172, 2048, -2364, -149, 3996
0.340949, -43, 178, 2053, -2364, -45, 3952
0.341086, -43, 178, 2053, -2364, -45, 3952
0.341221, -43, 178, 2053, -2364, -45, 3952
0.341356, -43, 178, 2053, -2364, -45, 3952
0.341490, -43, 178, 2053, -2364, -45, 3952
0.341625, -43, 178, 2053, -2364, -45, 3952
0.341760, -43, 178, 2053, -2364, -45, 3952
0.341895, -60, 188, 2068, -2375, 19, 3882
0.342029, -60, 188, 2068, -2375, 19, 3882
0.342164, -60, 188, 2068, -2375, 19, 3882
0.342299, -60, 188, 2068, -2375, 19, 3882
0.342433, -60, 188, 2068, -2375, 19, 3882
0.342568, -60, 188, 2068, -2375, 19, 3882
0.342702, -60, 188, 2068, -2375, 19, 3882
0.342837, -60, 188, 2068, -2375, 19, 3882
0.342971, -153, 194, 2073, -2424, -2, 3803
0.343106, -153, 194, 2073, -2424, -2, 3803
0.343241, -153, 194, 2073, -2424, -2, 3803
0.343375, -153, 194, 2073, -2424, -2, 3803
0.343510, -153, 194, 2073, -2424, -2, 3803
0.343644, -153, 194, 2073, -2424, -2, 3803
0.343779, -153, 194, 2073, -2424, -2, 3803
0.343913, -153, 177, 2063, -2493, -75, 3762
0.344048, -153, 177, 2063, -2493, -75, 3762
0.344183, -153, 177, 2063, -2493, -75, 3762
0.344317, -153, 177, 2063, -2493, -75, 3762
0.344452, -153, 177, 2063, -2493, -75, 3762
0.344587, -153, 177, 2063, -2493, -75, 3762
0.344721, -153, 177, 2063, -2493, -75, 3762
0.344856, -153, 177, 2063, -2493, -75, 3762
0.344990, -22, 151, 2051, -2515, -88, 3737
0.345125, -22, 151, 2051, -2515, -88, 3737
0.345260, -22, 151, 2051, -2515, -88, 3737
0.345394, -22, 151, 2051, -2515, -88, 3737
0.345529, -22, 151, 2051, -2515, -88, 3737
0.345663, -22, 151, 2051, -2515, -88, 3737
0.345798, -22, 151, 2051, -2515, -88, 3737
0.345933, 45, 146, 2043, -2469, -17, 3669
0.346068, 45, 146, 2043, -2469, -17, 3669
0.346202, 45, 146, 2043, -2469, -17, 3669
0.346337, 45, 146, 2043, -2469, -17, 3669
0.346471, 45, 146, 2043, -2469, -17, 3669
0.346606, 45, 146, 2043, -2469, -17, 3669
0.346740, 45, 146, 2043, -2469, -17, 3669
0.346875, 45, 146, 2043, -2469, -17, 3669
0.347010, 77, 148, 2050, -2408, 49, 3566
0.347144, 77, 148, 2050, -2408, 49, 3566
0.347279, 77, 148, 2050, -2408, 49, 3566
0.347414, 77, 148, 2050, -2408, 49, 3566
0.347548, 77, 148, 2050, -2408, 49, 3566
0.347683, 77, 148, 2050, -2408, 49, 3566
0.347817, 77, 148, 2050, -2408, 49, 3566
0.347952, 218, 136, 2059, -2373, 55, 3424
0.348087, 218, 136, 2059, -2373, 55, 3424
0.348221, 218, 136, 2059, -2373, 55, 3424
0.348356, 218, 136, 2059, -2373, 55, 3424
0.348491, 218, 136, 2059, -2373, 55, 3424
0.348625, 218, 136, 2059, -2373, 55, 3424
0.348760, 218, 136, 2059, -2373, 55, 3424
0.348894, 218, 136, 2059, -2373, 55, 3424
0.349029, 446, 126, 2075, -2354, 15, 3186
0.349164, 446, 126, 2075, -2354, 15, 3186
0.349298, 446, 126, 2075, -2354, 15, 3186
0.349433, 446, 126, 2075, -2354, 15, 3186
0.349567, 446, 126, 2075, -2354, 15, 3186
0.349702, 446, 126, 2075, -2354, 15, 3186
0.349837, 446, 126, 2075, -2354, 15, 3186
0.349972, 534, 102, 2121, -2312, -29, 2822
0.350106, 534, 102, 2121, -2312, -29, 2822
0.350241, 534, 102, 2121, -2312, -29, 2822
0.350376, 534, 102, 2121, -2312, -29, 2822
0.350510, 534, 102, 2121, -2312, -29, 2822
0.350645, 534, 102, 2121, -2312, -29, 2822
0.350779, 534, 102, 2121, -2312, -29, 2822
0.350914, 534, 102, 2121, -2312, -29, 2822
0.351049, 255, 67, 2174, -2216, -41, 2464
0.351183, 255, 67, 2174, -2216, -41, 2464
0.351318, 255, 67, 2174, -2216, -41, 2464
0.351453, 255, 67, 2174, -2216, -41, 2464
0.351587, 255, 67, 2174, -2216, -41, 2464
0.351722, 255, 67, 2174, -2216, -41, 2464
0.351856, 255, 67, 2174, -2216, -41, 2464
0.351991, 255, 67, 2174, -2216, -41, 2464
0.352126, -75, 87, 2206, -2058, -37, 2322
0.352260, -75, 87, 2206, -2058, -37, 2322
0.352395, -75, 87, 2206, -2058, -37, 2322
0.352530, -75, 87, 2206, -2058, -37, 2322
0.352664, -75, 87, 2206, -2058, -37, 2322
0.352799, -75, 87, 2206, -2058, -37, 2322
0.352934, -75, 87, 2206, -2058, -37, 2322
0.353068, 69, 133, 2307, -1885, -144, 2254
0.353203, 69, 133, 2307, -1885, -144, 2254
0.353338, 69, 133, 2307, -1885, -144, 2254
0.353472, 69, 133, 2307, -1885, -144, 2254
0.353607, 69, 133, 2307, -1885, -144, 2254
0.353742, 69, 133, 2307, -1885, -144, 2254
0.353880, 69, 133, 2307, -1885, -144, 2254
0.354015, 69, 133, 2307, -1885, -144, 2254
0.354150, 594, 104, 2563, -1722, -450, 1896
0.354285, 594, 104, 2563, -1722, -450, 1896
0.354419, 594, 104, 2563, -1722, -450, 1896
0.354554, 594, 104, 2563, -1722, -450, 1896
0.354688, 594, 104, 2563, -1722, -450, 1896
0.354823, 594, 104, 2563, -1722, -450, 1896
0.354957, 594, 104, 2563, -1722, -450, 1896
0.355092, 1279, 18, 2888, -1442, -722, 1170
0.355227, 1279, 18, 2888, -1442, -722, 1170
0.355361, 1279, 18, 2888, -1442, -722, 1170
0.355496, 1279, 18, 2888, -1442, -722, 1170
0.355631, 1279, 18, 2888, -1442, -722, 1170
0.355765, 1279, 18, 2888, -1442, -722, 1170
0.355900, 1279, 18, 2888, -1442, -722, 1170
0.356034, 1279, 18, 2888, -1442, -722, 1170
0.356169, 3839, 94, 4015, -686, -729, -67
0.356304, 3839, 94, 4015, -686, -729, -67
0.356438, 3839, 94, 4015, -686, -729, -67
0.356573, 3839, 94, 4015, -686, -729, -67
0.356707, 3839, 94, 4015, -686, -729, -67
0.356842, 3839, 94, 4015, -686, -729, -67
0.356976, 3839, 94, 4015, -686, -729, -67
0.357111, 10974, 496, 5908, 1219, -545, -3799
0.357246, 10974, 496, 5908, 1219, -545, -3799
0.357380, 10974, 496, 5908, 1219, -545, -3799
0.357515, 10974, 496, 5908, 1219, -545, -3799
0.357650, 10974, 496, 5908, 1219, -545, -3799
0.357785, 10974, 496, 5908, 1219, -545, -3799
0.357919, 10974, 496, 5908, 1219, -545, -3799
0.358054, 10974, 496, 5908, 1219, -545, -3799
0.358188, 13750, 188, 5728, 3982, 264, -11570
0.358323, 13750, 188, 5728, 3982, 264, -11570
0.358458, 13750, 188, 5728, 3982, 264, -11570
0.358592, 13750, 188, 5728, 3982, 264, -11570
0.358727, 13750, 188, 5728, 3982, 264, -11570
0.358861, 13750, 188, 5728, 3982, 264, -11570
0.358996, 13750, 188, 5728, 3982, 264, -11570
0.359130, 3481, -856, 2975, 6325, 1902, -18241
0.359265, 3481, -856, 2975, 6325, 1902, -18241
0.359400, 3481, -856, 2975, 6325, 1902, -18241
0.359535, 3481, -856, 2975, 6325, 1902, -18241
0.359669, 3481, -856, 2975, 6325, 1902, -18241
0.359804, 3481, -856, 2975, 6325, 1902, -18241
0.359938, 3481, -856, 2975, 6325, 1902, -18241
0.360073, 3481, -856, 2975, 6325, 1902, -18241
0.360208, -8385, -756, -625, 7562, 3148, -17556
0.360342, -8385, -756, -625, 7562, 3148, -17556
0.360477, -8385, -756, -625, 7562, 3148, -17556
0.360612, -8385, -756, -625, 7562, 3148, -17556
0.360746, -8385, -756, -625, 7562, 3148, -17556
0.360881, -8385, -756, -625, 7562, 3148, -17556
0.361015, -8385, -756, -625, 7562, 3148, -17556
0.361150, -12497, 160, -3602, 6802, 3050, -11253
0.361285, -12497, 160, -3602, 6802, 3050, -11253
0.361419, -12497, 160, -3602, 6802, 3050, -11253
0.361554, -12497, 160, -3602, 6802, 3050, -11253
0.361688, -12497, 160, -3602, 6802, 3050, -11253
0.361824, -12497, 160, -3602, 6802, 3050, -11253
0.361958, -12497, 160, -3602, 6802, 3050, -11253
0.362093, -12497, 160, -3602, 6802, 3050, -11253
0.362228, -10637, 636, -2715, 4276, 1653, -4111
0.362362, -10637, 636, -2715, 4276, 1653, -4111
0.362497, -10637, 636, -2715, 4276, 1653, -4111
0.362632, -10637, 636, -2715, 4276, 1653, -4111
0.362766, -10637, 636, -2715, 4276, 1653, -4111
0.362901, -10637, 636, -2715, 4276, 1653, -4111
0.363036, -10637, 636, -2715, 4276, 1653, -4111
0.363170, -5266, 586, 998, 1847, 36, 1355
0.363305, -5266, 586, 998, 1847, 36, 1355
0.363440, -5266, 586, 998, 1847, 36, 1355
0.363574, -5266, 586, 998, 1847, 36, 1355
0.363709, -5266, 586, 998, 1847, 36, 1355
0.363843, -5266, 586, 998, 1847, 36, 1355
0.363978, -5266, 586, 998, 1847, 36, 1355
0.364112, -5266, 586, 998, 1847, 36, 1355
0.364247, -639, 245, 2851, 11, -663, 3951
0.364382, -639, 245, 2851, 11, -663, 3951
0.364516, -639, 245, 2851, 11, -663, 3951
0.364651, -639, 245, 2851, 11, -663, 3951
0.364786, -639, 245, 2851, 11, -663, 3951
0.364920, -639, 245, 2851, 11, -663, 3951
0.365055, -639, 245, 2851, 11, -663, 3951
0.365189, 419, 117, 2548, -1418, -1065, 4301
0.365324, 419, 117, 2548, -1418, -1065, 4301
0.365459, 419, 117, 2548, -1418, -1065, 4301
0.365593, 419, 117, 2548, -1418, -1065, 4301
0.365728, 419, 117, 2548, -1418, -1065, 4301
0.365863, 419, 117, 2548, -1418, -1065, 4301
0.365998, 419, 117, 2548, -1418, -1065, 4301
0.366138, 419, 117, 2548, -1418, -1065, 4301
0.366273, -185, 195, 2074, -2171, -1867, 4167
0.366408, -185, 195, 2074, -2171, -1867, 4167
0.366543, -185, 195, 2074, -2171, -1867, 4167
0.366677, -185, 195, 2074, -2171, -1867, 4167
0.366812, -185, 195, 2074, -2171, -1867, 4167
0.366947, -185, 195, 2074, -2171, -1867, 4167
0.367081, -185, 195, 2074, -2171, -1867, 4167
0.367216, -303, 188, 1850, -2243, -3092, 4145
0.367351, -303, 188, 1850, -2243, -3092, 4145
0.367485, -303, 188, 1850, -2243, -3092, 4145
0.367620, -303, 188, 1850, -2243, -3092, 4145
0.367754, -303, 188, 1850, -2243, -3092, 4145
0.367889, -303, 188, 1850, -2243, -3092, 4145
0.368024, -303, 188, 1850, -2243, -3092, 4145
0.368158, -303, 188, 1850, -2243, -3092, 4145
0.368293, -154, 141, 1761, -1885, -4552, 4042
0.368428, -154, 141, 1761, -1885, -4552, 4042
0.368562, -154, 141, 1761, -1885, -4552, 4042
0.368697, -154, 141, 1761, -1885, -4552, 4042
0.368831, -154, 141, 1761, -1885, -4552, 4042
0.368966, -154, 141, 1761, -1885, -4552, 4042
0.369100, -154, 141, 1761, -1885, -4552, 4042
0.369235, -8, 128, 1892, -1436, -5380, 3948
0.369370, -8, 128, 1892, -1436, -5380, 3948
0.369504, -8, 128, 1892, -1436, -5380, 3948
