Time, ax, ay, az, gx, gy, gz
0.000015, 2758, 183, 2388, -1876, -1679, 4998
0.000183, 2758, 183, 2388, -1876, -1679, 4998
0.000323, 2758, 183, 2388, -1876, -1679, 4998
0.000461, 2758, 183, 2388, -1876, -1679, 4998
0.000599, 2758, 183, 2388, -1876, -1679, 4998
0.000739, 2758, 183, 2388, -1876, -1679, 4998
0.000872, 7537, 473, 3347, -1433, -1524, 2392
0.001010, 7537, 473, 3347, -1433, -1524, 2392
0.001149, 7537, 473, 3347, -1433, -1524, 2392
0.001286, 7537, 473, 3347, -1433, -1524, 2392
0.001423, 7537, 473, 3347, -1433, -1524, 2392
0.001560, 7537, 473, 3347, -1433, -1524, 2392
0.001697, 7537, 473, 3347, -1433, -1524, 2392
0.001833, 10268, 171, 3782, -366, -1159, -3043
0.001970, 10268, 171, 3782, -366, -1159, -3043
0.002109, 10268, 171, 3782, -366, -1159, -3043
0.002246, 10268, 171, 3782, -366, -1159, -3043
0.002383, 10268, 171, 3782, -366, -1159, -3043
0.002520, 10268, 171, 3782, -366, -1159, -3043
0.002656, 10268, 171, 3782, -366, -1159, -3043
0.002793, 10268, 171, 3782, -366, -1159, -3043
0.002930, 8427, -270, 2246, 773, -229, -9133
0.003067, 8427, -270, 2246, 773, -229, -9133
0.003204, 8427, -270, 2246, 773, -229, -9133
0.003341, 8427, -270, 2246, 773, -229, -9133
0.003478, 8427, -270, 2246, 773, -229, -9133
0.003614, 8427, -270, 2246, 773, -229, -9133
0.003751, 8427, -270, 2246, 773, -229, -9133
0.003888, 5796, 371, -57, 1119, 1198, -13735
0.004025, 5796, 371, -57, 1119, 1198, -13735
0.004162, 5796, 371, -57, 1119, 1198, -13735
0.004299, 5796, 371, -57, 1119, 1198, -13735
0.004435, 5796, 371, -57, 1119, 1198, -13735
0.004572, 5796, 371, -57, 1119, 1198, -13735
0.004709, 5796, 371, -57, 1119, 1198, -13735
0.004847, 5796, 371, -57, 1119, 1198, -13735
0.004985, -124, 522, 9, 907, 2916, -16163
0.005118, -124, 522, 9, 907, 2916, -16163
0.005256, -124, 522, 9, 907, 2916, -16163
0.005399, -124, 522, 9, 907, 2916, -16163
0.005539, -124, 522, 9, 907, 2916, -16163
0.005676, -124, 522, 9, 907, 2916, -16163
0.005813, -124, 522, 9, 907, 2916, -16163
0.005949, -7747, -330, 2648, 1692, 4355, -14218
0.006088, -7747, -330, 2648, 1692, 4355, -14218
0.006224, -7747, -330, 2648, 1692, 4355, -14218
0.006362, -7747, -330, 2648, 1692, 4355, -14218
0.006499, -7747, -330, 2648, 1692, 4355, -14218
0.006637, -7747, -330, 2648, 1692, 4355, -14218
0.006774, -7747, -330, 2648, 1692, 4355, -14218
0.006911, -10437, -744, 2724, 3386, 4752, -8192
0.007048, -10437, -744, 2724, 3386, 4752, -8192
0.007184, -10437, -744, 2724, 3386, 4752, -8192
0.007321, -10437, -744, 2724, 3386, 4752, -8192
0.007458, -10437, -744, 2724, 3386, 4752, -8192
0.007594, -10437, -744, 2724, 3386, 4752, -8192
0.007731, -10437, -744, 2724, 3386, 4752, -8192
0.007868, -10437, -744, 2724, 3386, 4752, -8192
0.008005, -10075, -548, 463, 3632, 3858, -1306
0.008142, -10075, -548, 463, 3632, 3858, -1306
0.008279, -10075, -548, 463, 3632, 3858, -1306
0.008415, -10075, -548, 463, 3632, 3858, -1306
0.008552, -10075, -548, 463, 3632, 3858, -1306
0.008689, -10075, -548, 463, 3632, 3858, -1306
0.008826, -10075, -548, 463, 3632, 3858, -1306
0.008963, -6627, -7, 930, 2147, 1875, 4563
0.009100, -6627, -7, 930, 2147, 1875, 4563
0.009236, -6627, -7, 930, 2147, 1875, 4563
0.009373, -6627, -7, 930, 2147, 1875, 4563
0.009510, -6627, -7, 930, 2147, 1875, 4563
0.009647, -6627, -7, 930, 2147, 1875, 4563
0.009783, -6627, -7, 930, 2147, 1875, 4563
0.009920, -6627, -7, 930, 2147, 1875, 4563
0.010058, -1310, 218, 2658, 636, -363, 7544
0.010195, -1310, 218, 2658, 636, -363, 7544
0.010332, -1310, 218, 2658, 636, -363, 7544
0.010468, -1310, 218, 2658, 636, -363, 7544
0.010605, -1310, 218, 2658, 636, -363, 7544
0.010742, -1310, 218, 2658, 636, -363, 7544
0.010879, -1310, 218, 2658, 636, -363, 7544
0.011015, 351, 83, 2699, -301, -2197, 7628
0.011152, 351, 83, 2699, -301, -2197, 7628
0.011289, 351, 83, 2699, -301, -2197, 7628
0.011426, 351, 83, 2699, -301, -2197, 7628
0.011563, 351, 83, 2699, -301, -2197, 7628
0.011699, 351, 83, 2699, -301, -2197, 7628
0.011836, 351, 83, 2699, -301, -2197, 7628
0.011973, -300, 78, 2197, -899, -3555, 7252
0.012110, -300, 78, 2197, -899, -3555, 7252
0.012246, -300, 78, 2197, -899, -3555, 7252
0.012411, -300, 78, 2197, -899, -3555, 7252
0.012557, -300, 78, 2197, -899, -3555, 7252
0.012694, -300, 78, 2197, -899, -3555, 7252
0.012831, -300, 78, 2197, -899, -3555, 7252
0.012968, -300, 78, 2197, -899, -3555, 7252
0.013104, -315, 103, 2135, -1250, -4394, 7182
0.013241, -315, 103, 2135, -1250, -4394, 7182
0.013378, -315, 103, 2135, -1250, -4394, 7182
0.013515, -315, 103, 2135, -1250, -4394, 7182
0.013652, -315, 103, 2135, -1250, -4394, 7182
0.013788, -315, 103, 2135, -1250, -4394, 7182
0.013925, -315, 103, 2135, -1250, -4394, 7182
0.014063, -177, 77, 2075, -1329, -4987, 6926
0.014200, -177, 77, 2075, -1329, -4987, 6926
0.014336, -177, 77, 2075, -1329, -4987, 6926
0.014473, -177, 77, 2075, -1329, -4987, 6926
0.014610, -177, 77, 2075, -1329, -4987, 6926
0.014747, -177, 77, 2075, -1329, -4987, 6926
0.014883, -177, 77, 2075, -1329, -4987, 6926
0.015020, -155, 66, 2013, -1243, -5378, 6546
0.015157, -155, 66, 2013, -1243, -5378, 6546
0.015294, -155, 66, 2013, -1243, -5378, 6546
0.015430, -155, 66, 2013, -1243, -5378, 6546
0.015567, -155, 66, 2013, -1243, -5378, 6546
0.015704, -155, 66, 2013, -1243, -5378, 6546
0.015840, -155, 66, 2013, -1243, -5378, 6546
0.015977, -155, 66, 2013, -1243, -5378, 6546
0.016114, -32, 80, 2084, -1218, -5229, 6246
0.016251, -32, 80, 2084, -1218, -5229, 6246
0.016388, -32, 80, 2084, -1218, -5229, 6246
0.016524, -32, 80, 2084, -1218, -5229, 6246
0.016661, -32, 80, 2084, -1218, -5229, 6246
0.016798, -32, 80, 2084, -1218, -5229, 6246
0.016934, -32, 80, 2084, -1218, -5229, 6246
0.017071, 123, 79, 2132, -1331, -4581, 6035
0.017208, 123, 79, 2132, -1331, -4581, 6035
0.017345, 123, 79, 2132, -1331, -4581, 6035
0.017482, 123, 79, 2132, -1331, -4581, 6035
0.017618, 123, 79, 2132, -1331, -4581, 6035
0.017755, 123, 79, 2132, -1331, -4581, 6035
0.017892, 123, 79, 2132, -1331, -4581, 6035
0.018029, 123, 79, 2132, -1331, -4581, 6035
0.018166, 377, 69, 2154, -1503, -3729, 5829
0.018303, 377, 69, 2154, -1503, -3729, 5829
0.018439, 377, 69, 2154, -1503, -3729, 5829
0.018576, 377, 69, 2154, -1503, -3729, 5829
0.018713, 377, 69, 2154, -1503, -3729, 5829
0.018849, 377, 69, 2154, -1503, -3729, 5829
0.018986, 377, 69, 2154, -1503, -3729, 5829
0.019123, 1384, 70, 2199, -1695, -2827, 5454
0.019260, 1384, 70, 2199, -1695, -2827, 5454
0.019397, 1384, 70, 2199, -1695, -2827, 5454
0.019533, 1384, 70, 2199, -1695, -2827, 5454
0.019670, 1384, 70, 2199, -1695, -2827, 5454
0.019807, 1384, 70, 2199, -1695, -2827, 5454
0.019944, 1384, 70, 2199, -1695, -2827, 5454
0.020080, 5962, 683, 1810, -1948, -1948, 3950
0.020217, 5962, 683, 1810, -1948, -1948, 3950
0.020354, 5962, 683, 1810, -1948, -1948, 3950
0.020491, 5962, 683, 1810, -1948, -1948, 3950
0.020627, 5962, 683, 1810, -1948, -1948, 3950
0.020764, 5962, 683, 1810, -1948, -1948, 3950
0.020901, 5962, 683, 1810, -1948, -1948, 3950
0.021038, 5962, 683, 1810, -1948, -1948, 3950
0.021174, 12908, 1590, 1489, -2500, -939, -1097
0.021311, 12908, 1590, 1489, -2500, -939, -1097
0.021448, 12908, 1590, 1489, -2500, -939, -1097
0.021585, 12908, 1590, 1489, -2500, -939, -1097
0.021722, 12908, 1590, 1489, -2500, -939, -1097
0.021858, 12908, 1590, 1489, -2500, -939, -1097
0.021995, 12908, 1590, 1489, -2500, -939, -1097
0.022132, 11152, 705, 3511, -2463, 857, -8969
0.022269, 11152, 705, 3511, -2463, 857, -8969
0.022406, 11152, 705, 3511, -2463, 857, -8969
0.022543, 11152, 705, 3511, -2463, 857, -8969
0.022680, 11152, 705, 3511, -2463, 857, -8969
0.022817, 11152, 705, 3511, -2463, 857, -8969
0.022953, 11152, 705, 3511, -2463, 857, -8969
0.023090, 11152, 705, 3511, -2463, 857, -8969
0.023227, 1057, -513, 4835, -381, 3413, -13407
0.023364, 1057, -513, 4835, -381, 3413, -13407
0.023500, 1057, -513, 4835, -381, 3413, -13407
0.023637, 1057, -513, 4835, -381, 3413, -13407
0.023774, 1057, -513, 4835, -381, 3413, -13407
0.023910, 1057, -513, 4835, -381, 3413, -13407
0.024047, 1057, -513, 4835, -381, 3413, -13407
0.024184, -3777, 131, 2198, 2243, 5481, -12373
0.024321, -3777, 131, 2198, 2243, 5481, -12373
0.024458, -3777, 131, 2198, 2243, 5481, -12373
0.024594, -3777, 131, 2198, 2243, 5481, -12373
0.024736, -3777, 131, 2198, 2243, 5481, -12373
0.024874, -3777, 131, 2198, 2243, 5481, -12373
0.025011, -3777, 131, 2198, 2243, 5481, -12373
0.025147, -3017, 147, 1021, 3453, 6223, -9988
0.025284, -3017, 147, 1021, 3453, 6223, -9988
0.025421, -3017, 147, 1021, 3453, 6223, -9988
0.025558, -3017, 147, 1021, 3453, 6223, -9988
0.025694, -3017, 147, 1021, 3453, 6223, -9988
0.025831, -3017, 147, 1021, 3453, 6223, -9988
0.025968, -3017, 147, 1021, 3453, 6223, -9988
0.026105, -3017, 147, 1021, 3453, 6223, -9988
0.026242, -2295, -575, 1188, 3672, 5732, -8238
0.026379, -2295, -575, 1188, 3672, 5732, -8238
0.026515, -2295, -575, 1188, 3672, 5732, -8238
0.026652, -2295, -575, 1188, 3672, 5732, -8238
0.026789, -2295, -575, 1188, 3672, 5732, -8238
0.026925, -2295, -575, 1188, 3672, 5732, -8238
0.027062, -2295, -575, 1188, 3672, 5732, -8238
0.027199, -1979, -40, -955, 2678, 4404, -6735
0.027336, -1979, -40, -955, 2678, 4404, -6735
0.027472, -1979, -40, -955, 2678, 4404, -6735
0.027609, -1979, -40, -955, 2678, 4404, -6735
0.027746, -1979, -40, -955, 2678, 4404, -6735
0.027883, -1979, -40, -955, 2678, 4404, -6735
0.028019, -1979, -40, -955, 2678, 4404, -6735
0.028156, -1979, -40, -955, 2678, 4404, -6735
0.028293, -366, 842, -2554, 56, 2851, -5621
0.028430, -366, 842, -2554, 56, 2851, -5621
0.028567, -366, 842, -2554, 56, 2851, -5621
0.028703, -366, 842, -2554, 56, 2851, -5621
0.028840, -366, 842, -2554, 56, 2851, -5621
0.028977, -366, 842, -2554, 56, 2851, -5621
0.029114, -366, 842, -2554, 56, 2851, -5621
0.029250, 816, -165, 285, -2530, 1890, -5592
0.029387, 816, -165, 285, -2530, 1890, -5592
0.029524, 816, -165, 285, -2530, 1890, -5592
0.029661, 816, -165, 285, -2530, 1890, -5592
0.029797, 816, -165, 285, -2530, 1890, -5592
0.029934, 816, -165, 285, -2530, 1890, -5592
0.030071, 816, -165, 285, -2530, 1890, -5592
0.030208, -98, -1054, 5943, -2032, 1712, -5625
0.030345, -98, -1054, 5943, -2032, 1712, -5625
0.030481, -98, -1054, 5943, -2032, 1712, -5625
0.030618, -98, -1054, 5943, -2032, 1712, -5625
0.030755, -98, -1054, 5943, -2032, 1712, -5625
0.030892, -98, -1054, 5943, -2032, 1712, -5625
0.031028, -98, -1054, 5943, -2032, 1712, -5625
0.031165, -98, -1054, 5943, -2032, 1712, -5625
0.031302, 1010, 524, 6109, 1155, 1792, -5359
0.031439, 1010, 524, 6109, 1155, 1792, -5359
0.031576, 1010, 524, 6109, 1155, 1792, -5359
0.031713, 1010, 524, 6109, 1155, 1792, -5359
0.031849, 1010, 524, 6109, 1155, 1792, -5359
0.031986, 1010, 524, 6109, 1155, 1792, -5359
0.032123, 1010, 524, 6109, 1155, 1792, -5359
0.032260, 361, 470, 1371, 2671, 1631, -6018
0.032397, 361, 470, 1371, 2671, 1631, -6018
0.032533, 361, 470, 1371, 2671, 1631, -6018
0.032670, 361, 470, 1371, 2671, 1631, -6018
0.032807, 361, 470, 1371, 2671, 1631, -6018
0.032943, 361, 470, 1371, 2671, 1631, -6018
0.033080, 361, 470, 1371, 2671, 1631, -6018
0.033217, 361, 470, 1371, 2671, 1631, -6018
0.033353, -2953, -771, 523, 2056, 858, -5726
0.033490, -2953, -771, 523, 2056, 858, -5726
0.033627, -2953, -771, 523, 2056, 858, -5726
0.033764, -2953, -771, 523, 2056, 858, -5726
0.033901, -2953, -771, 523, 2056, 858, -5726
0.034038, -2953, -771, 523, 2056, 858, -5726
0.034174, -2953, -771, 523, 2056, 858, -5726
0.034311, -2246, -222, 2894, 2037, -42, -3957
0.034448, -2246, -222, 2894, 2037, -42, -3957
0.034585, -2246, -222, 2894, 2037, -42, -3957
0.034722, -2246, -222, 2894, 2037, -42, -3957
0.034858, -2246, -222, 2894, 2037, -42, -3957
0.034995, -2246, -222, 2894, 2037, -42, -3957
0.035132, -2246, -222, 2894, 2037, -42, -3957
0.035268, -2246, -222, 2894, 2037, -42, -3957
0.035405, -835, 139, 2398, 2568, -483, -3077
0.035542, -835, 139, 2398, 2568, -483, -3077
0.035679, -835, 139, 2398, 2568, -483, -3077
0.035816, -835, 139, 2398, 2568, -483, -3077
0.035952, -835, 139, 2398, 2568, -483, -3077
0.036089, -835, 139, 2398, 2568, -483, -3077
0.036226, -835, 139, 2398, 2568, -483, -3077
0.036362, -2502, -235, 410, 2175, -625, -2539
0.036499, -2502, -235, 410, 2175, -625, -2539
0.036636, -2502, -235, 410, 2175, -625, -2539
0.036773, -2502, -235, 410, 2175, -625, -2539
0.036909, -2502, -235, 410, 2175, -625, -2539
0.037051, -2502, -235, 410, 2175, -625, -2539
0.037188, -2502, -235, 410, 2175, -625, -2539
0.037325, -3922, -311, 1229, 1064, -279, -658
0.037462, -3922, -311, 1229, 1064, -279, -658
0.037599, -3922, -311, 1229, 1064, -279, -658
0.037736, -3922, -311, 1229, 1064, -279, -658
0.037873, -3922, -311, 1229, 1064, -279, -658
0.038010, -3922, -311, 1229, 1064, -279, -658
0.038147, -3922, -311, 1229, 1064, -279, -658
0.038283, -3922, -311, 1229, 1064, -279, -658
0.038420, -2436, 5, 3037, 474, 278, 1676
0.038557, -2436, 5, 3037, 474, 278, 1676
0.038694, -2436, 5, 3037, 474, 278, 1676
0.038831, -2436, 5, 3037, 474, 278, 1676
0.038967, -2436, 5, 3037, 474, 278, 1676
0.039104, -2436, 5, 3037, 474, 278, 1676
0.039241, -2436, 5, 3037, 474, 278, 1676
0.039377, 452, 281, 2842, 429, 278, 2455
0.039514, 452, 281, 2842, 429, 278, 2455
0.039651, 452, 281, 2842, 429, 278, 2455
0.039788, 452, 281, 2842, 429, 278, 2455
0.039925, 452, 281, 2842, 429, 278, 2455
0.040061, 452, 281, 2842, 429, 278, 2455
0.040198, 452, 281, 2842, 429, 278, 2455
0.040335, 452, 281, 2842, 429, 278, 2455
0.040472, 1905, 324, 2217, 109, -4, 1496
0.040609, 1905, 324, 2217, 109, -4, 1496
0.040745, 1905, 324, 2217, 109, -4, 1496
0.040882, 1905, 324, 2217, 109, -4, 1496
0.041019, 1905, 324, 2217, 109, -4, 1496
0.041156, 1905, 324, 2217, 109, -4, 1496
0.041292, 1905, 324, 2217, 109, -4, 1496
0.041429, 1800, 327, 2399, -408, -99, 65
0.041566, 1800, 327, 2399, -408, -99, 65
0.041703, 1800, 327, 2399, -408, -99, 65
0.041839, 1800, 327, 2399, -408, -99, 65
0.041976, 1800, 327, 2399, -408, -99, 65
0.042113, 1800, 327, 2399, -408, -99, 65
0.042249, 1800, 327, 2399, -408, -99, 65
0.042385, 727, 168, 2394, -628, 32, -1073
0.042522, 727, 168, 2394, -628, 32, -1073
0.042658, 727, 168, 2394, -628, 32, -1073
0.042794, 727, 168, 2394, -628, 32, -1073
0.042930, 727, 168, 2394, -628, 32, -1073
0.043066, 727, 168, 2394, -628, 32, -1073
0.043202, 727, 168, 2394, -628, 32, -1073
0.043338, 727, 168, 2394, -628, 32, -1073
0.043474, -1880, -265, 2433, -402, 467, -1315
0.043610, -1880, -265, 2433, -402, 467, -1315
0.043746, -1880, -265, 2433, -402, 467, -1315
0.043882, -1880, -265, 2433, -402, 467, -1315
0.044018, -1880, -265, 2433, -402, 467, -1315
0.044154, -1880, -265, 2433, -402, 467, -1315
0.044290, -1880, -265, 2433, -402, 467, -1315
0.044426, -5531, -506, 2060, -19, 1000, 480
0.044563, -5531, -506, 2060, -19, 1000, 480
0.044699, -5531, -506, 2060, -19, 1000, 480
0.044835, -5531, -506, 2060, -19, 1000, 480
0.044971, -5531, -506, 2060, -19, 1000, 480
0.045107, -5531, -506, 2060, -19, 1000, 480
0.045243, -5531, -506, 2060, -19, 1000, 480
0.045379, -5531, -506, 2060, -19, 1000, 480
0.045515, -5838, -272, 1370, -129, 911, 4139
0.045651, -5838, -272, 1370, -129, 911, 4139
0.045787, -5838, -272, 1370, -129, 911, 4139
0.045924, -5838, -272, 1370, -129, 911, 4139
0.046061, -5838, -272, 1370, -129, 911, 4139
0.046194, -5838, -272, 1370, -129, 911, 4139
0.046331, -5838, -272, 1370, -129, 911, 4139
0.046467, -1617, 84, 1841, -651, -18, 6767
0.046604, -1617, 84, 1841, -651, -18, 6767
0.046741, -1617, 84, 1841, -651, -18, 6767
0.046878, -1617, 84, 1841, -651, -18, 6767
0.047015, -1617, 84, 1841, -651, -18, 6767
0.047151, -1617, 84, 1841, -651, -18, 6767
0.047288, -1617, 84, 1841, -651, -18, 6767
0.047425, -1617, 84, 1841, -651, -18, 6767
0.047561, 982, 183, 2461, -1155, -961, 6833
0.047698, 982, 183, 2461, -1155, -961, 6833
0.047835, 982, 183, 2461, -1155, -961, 6833
0.047972, 982, 183, 2461, -1155, -961, 6833
0.048109, 982, 183, 2461, -1155, -961, 6833
0.048245, 982, 183, 2461, -1155, -961, 6833
0.048382, 982, 183, 2461, -1155, -961, 6833
0.048513, 1446, 159, 2239, -1594, -1434, 6046
0.048650, 1446, 159, 2239, -1594, -1434, 6046
0.048787, 1446, 159, 2239, -1594, -1434, 6046
0.048924, 1446, 159, 2239, -1594, -1434, 6046
0.049061, 1446, 159, 2239, -1594, -1434, 6046
0.049197, 1446, 159, 2239, -1594, -1434, 6046
0.049334, 1446, 159, 2239, -1594, -1434, 6046
0.049471, 3821, 383, 2170, -1837, -1544, 4784
0.049607, 3821, 383, 2170, -1837, -1544, 4784
0.049744, 3821, 383, 2170, -1837, -1544, 4784
0.049881, 3821, 383, 2170, -1837, -1544, 4784
0.050024, 3821, 383, 2170, -1837, -1544, 4784
0.050161, 3821, 383, 2170, -1837, -1544, 4784
0.050298, 3821, 383, 2170, -1837, -1544, 4784
0.050434, 3821, 383, 2170, -1837, -1544, 4784
0.050571, 7483, 936, 2702, -1669, -1375, 1619
0.050708, 7483, 936, 2702, -1669, -1375, 1619
0.050845, 7483, 936, 2702, -1669, -1375, 1619
0.050981, 7483, 936, 2702, -1669, -1375, 1619
0.051118, 7483, 936, 2702, -1669, -1375, 1619
0.051255, 7483, 936, 2702, -1669, -1375, 1619
0.051392, 7483, 936, 2702, -1669, -1375, 1619
0.051528, 8872, 1408, 2164, -1080, -967, -3513
0.051665, 8872, 1408, 2164, -1080, -967, -3513
0.051802, 8872, 1408, 2164, -1080, -967, -3513
0.051939, 8872, 1408, 2164, -1080, -967, -3513
0.052075, 8872, 1408, 2164, -1080, -967, -3513
0.052212, 8872, 1408, 2164, -1080, -967, -3513
0.052349, 8872, 1408, 2164, -1080, -967, -3513
0.052485, 8872, 1408, 2164, -1080, -967, -3513
0.052622, 5285, 763, -94, -998, -72, -8412
0.052759, 5285, 763, -94, -998, -72, -8412
0.052896, 5285, 763, -94, -998, -72, -8412
0.053033, 5285, 763, -94, -998, -72, -8412
0.053169, 5285, 763, -94, -998, -72, -8412
0.053306, 5285, 763, -94, -998, -72, -8412
0.053443, 5285, 763, -94, -998, -72, -8412
0.053580, 606, -75, 886, -1224, 1464, -10367
0.053717, 606, -75, 886, -1224, 1464, -10367
0.053854, 606, -75, 886, -1224, 1464, -10367
0.053991, 606, -75, 886, -1224, 1464, -10367
0.054129, 606, -75, 886, -1224, 1464, -10367
0.054265, 606, -75, 886, -1224, 1464, -10367
0.054401, 606, -75, 886, -1224, 1464, -10367
0.054537, 327, 449, 4653, 271, 3400, -9960
0.054674, 327, 449, 4653, 271, 3400, -9960
0.054810, 327, 449, 4653, 271, 3400, -9960
0.054946, 327, 449, 4653, 271, 3400, -9960
0.055082, 327, 449, 4653, 271, 3400, -9960
0.055219, 327, 449, 4653, 271, 3400, -9960
0.055355, 327, 449, 4653, 271, 3400, -9960
0.055491, 327, 449, 4653, 271, 3400, -9960
0.055627, 2464, 388, 3896, 2771, 4930, -10316
0.055764, 2464, 388, 3896, 2771, 4930, -10316
0.055900, 2464, 388, 3896, 2771, 4930, -10316
0.056036, 2464, 388, 3896, 2771, 4930, -10316
0.056172, 2464, 388, 3896, 2771, 4930, -10316
0.056308, 2464, 388, 3896, 2771, 4930, -10316
0.056445, 2464, 388, 3896, 2771, 4930, -10316
0.056581, 1788, -596, 579, 3752, 5314, -11813
0.056717, 1788, -596, 579, 3752, 5314, -11813
0.056853, 1788, -596, 579, 3752, 5314, -11813
0.056990, 1788, -596, 579, 3752, 5314, -11813
0.057126, 1788, -596, 579, 3752, 5314, -11813
0.057262, 1788, -596, 579, 3752, 5314, -11813
0.057398, 1788, -596, 579, 3752, 5314, -11813
0.057534, 1788, -596, 579, 3752, 5314, -11813
0.057670, -1382, -542, 293, 3189, 5170, -12025
0.057807, -1382, -542, 293, 3189, 5170, -12025
0.057943, -1382, -542, 293, 3189, 5170, -12025
0.058078, -1382, -542, 293, 3189, 5170, -12025
0.058213, -1382, -542, 293, 3189, 5170, -12025
0.058348, -1382, -542, 293, 3189, 5170, -12025
0.058482, -1382, -542, 293, 3189, 5170, -12025
0.058617, -2899, -158, 2103, 2753, 5133, -10346
0.058751, -2899, -158, 2103, 2753, 5133, -10346
0.058886, -2899, -158, 2103, 2753, 5133, -10346
0.059020, -2899, -158, 2103, 2753, 5133, -10346
0.059155, -2899, -158, 2103, 2753, 5133, -10346
0.059289, -2899, -158, 2103, 2753, 5133, -10346
0.059424, -2899, -158, 2103, 2753, 5133, -10346
0.059558, -2899, -158, 2103, 2753, 5133, -10346
0.059693, -3115, -191, 2326, 3083, 4746, -8252
0.059828, -3115, -191, 2326, 3083, 4746, -8252
0.059962, -3115, -191, 2326, 3083, 4746, -8252
0.060097, -3115, -191, 2326, 3083, 4746, -8252
0.060231, -3115, -191, 2326, 3083, 4746, -8252
0.060366, -3115, -191, 2326, 3083, 4746, -8252
0.060501, -3115, -191, 2326, 3083, 4746, -8252
0.060635, -3808, -309, 1120, 3117, 3867, -6188
0.060770, -3808, -309, 1120, 3117, 3867, -6188
0.060905, -3808, -309, 1120, 3117, 3867, -6188
0.061039, -3808, -309, 1120, 3117, 3867, -6188
0.061174, -3808, -309, 1120, 3117, 3867, -6188
0.061309, -3808, -309, 1120, 3117, 3867, -6188
0.061443, -3808, -309, 1120, 3117, 3867, -6188
0.061578, -3808, -309, 1120, 3117, 3867, -6188
0.061712, -5438, -628, 1678, 2565, 2616, -3592
0.061847, -5438, -628, 1678, 2565, 2616, -3592
0.061982, -5438, -628, 1678, 2565, 2616, -3592
0.062126, -5438, -628, 1678, 2565, 2616, -3592
0.062262, -5438, -628, 1678, 2565, 2616, -3592
0.062396, -5438, -628, 1678, 2565, 2616, -3592
0.062531, -5438, -628, 1678, 2565, 2616, -3592
0.062666, -7641, -829, 2530, 2341, 952, 121
0.062800, -7641, -829, 2530, 2341, 952, 121
0.062935, -7641, -829, 2530, 2341, 952, 121
0.063070, -7641, -829, 2530, 2341, 952, 121
0.063204, -7641, -829, 2530, 2341, 952, 121
0.063339, -7641, -829, 2530, 2341, 952, 121
0.063474, -7641, -829, 2530, 2341, 952, 121
0.063608, -7641, -829, 2530, 2341, 952, 121
0.063743, -6802, -618, 2061, 2208, -1071, 4526
0.063877, -6802, -618, 2061, 2208, -1071, 4526
0.064012, -6802, -618, 2061, 2208, -1071, 4526
0.064146, -6802, -618, 2061, 2208, -1071, 4526
0.064281, -6802, -618, 2061, 2208, -1071, 4526
0.064416, -6802, -618, 2061, 2208, -1071, 4526
0.064550, -6802, -618, 2061, 2208, -1071, 4526
0.064685, -2536, -170, 2176, 1642, -3209, 7449
0.064819, -2536, -170, 2176, 1642, -3209, 7449
0.064954, -2536, -170, 2176, 1642, -3209, 7449
0.065089, -2536, -170, 2176, 1642, -3209, 7449
0.065223, -2536, -170, 2176, 1642, -3209, 7449
0.065358, -2536, -170, 2176, 1642, -3209, 7449
0.065492, -2536, -170, 2176, 1642, -3209, 7449
0.065627, -2536, -170, 2176, 1642, -3209, 7449
0.065762, 106, 139, 2612, 843, -4844, 7856
0.065896, 106, 139, 2612, 843, -4844, 7856
0.066031, 106, 139, 2612, 843, -4844, 7856
0.066166, 106, 139, 2612, 843, -4844, 7856
0.066301, 106, 139, 2612, 843, -4844, 7856
0.066435, 106, 139, 2612, 843, -4844, 7856
0.066570, 106, 139, 2612, 843, -4844, 7856
0.066704, -56, 122, 2383, 99, -5661, 7308
0.066839, -56, 122, 2383, 99, -5661, 7308
0.066974, -56, 122, 2383, 99, -5661, 7308
0.067108, -56, 122, 2383, 99, -5661, 7308
0.067243, -56, 122, 2383, 99, -5661, 7308
0.067377, -56, 122, 2383, 99, -5661, 7308
0.067512, -56, 122, 2383, 99, -5661, 7308
0.067647, -56, 122, 2383, 99, -5661, 7308
0.067781, -266, 77, 2145, -381, -5708, 7020
0.067916, -266, 77, 2145, -381, -5708, 7020
0.068050, -266, 77, 2145, -381, -5708, 7020
0.068185, -266, 77, 2145, -381, -5708, 7020
0.068320, -266, 77, 2145, -381, -5708, 7020
0.068454, -266, 77, 2145, -381, -5708, 7020
0.068589, -266, 77, 2145, -381, -5708, 7020
0.068723, -60, 104, 2152, -688, -5093, 6828
0.068858, -60, 104, 2152, -688, -5093, 6828
0.068993, -60, 104, 2152, -688, -5093, 6828
0.069127, -60, 104, 2152, -688, -5093, 6828
0.069262, -60, 104, 2152, -688, -5093, 6828
0.069396, -60, 104, 2152, -688, -5093, 6828
0.069531, -60, 104, 2152, -688, -5093, 6828
0.069665, -60, 104, 2152, -688, -5093, 6828
0.069800, -13, 100, 2128, -956, -4228, 6592
0.069935, -13, 100, 2128, -956, -4228, 6592
0.070070, -13, 100, 2128, -956, -4228, 6592
0.070199, -13, 100, 2128, -956, -4228, 6592
0.070335, -13, 100, 2128, -956, -4228, 6592
0.070471, -13, 100, 2128, -956, -4228, 6592
0.070606, -13, 100, 2128, -956, -4228, 6592
0.070740, -13, 100, 2128, -956, -4228, 6592
0.070875, 31, 88, 2107, -1214, -3389, 6380
0.071010, 31, 88, 2107, -1214, -3389, 6380
0.071144, 31, 88, 2107, -1214, -3389, 6380
0.071279, 31, 88, 2107, -1214, -3389, 6380
0.071413, 31, 88, 2107, -1214, -3389, 6380
0.071548, 31, 88, 2107, -1214, -3389, 6380
0.071680, 31, 88, 2107, -1214, -3389, 6380
0.071814, 206, 102, 2136, -1508, -2614, 6167
0.071949, 206, 102, 2136, -1508, -2614, 6167
0.072084, 206, 102, 2136, -1508, -2614, 6167
0.072218, 206, 102, 2136, -1508, -2614, 6167
0.072353, 206, 102, 2136, -1508, -2614, 6167
0.072487, 206, 102, 2136, -1508, -2614, 6167
0.072622, 206, 102, 2136, -1508, -2614, 6167
0.072757, 206, 102, 2136, -1508, -2614, 6167
0.072891, 522, 121, 2110, -1811, -1920, 5850
0.073026, 522, 121, 2110, -1811, -1920, 5850
0.073161, 522, 121, 2110, -1811, -1920, 5850
0.073295, 522, 121, 2110, -1811, -1920, 5850
0.073430, 522, 121, 2110, -1811, -1920, 5850
0.073564, 522, 121, 2110, -1811, -1920, 5850
0.073699, 522, 121, 2110, -1811, -1920, 5850
0.073833, 1119, 89, 2050, -2054, -1268, 5297
0.073968, 1119, 89, 2050, -2054, -1268, 5297
0.074103, 1119, 89, 2050, -2054, -1268, 5297
0.074238, 1119, 89, 2050, -2054, -1268, 5297
0.074372, 1119, 89, 2050, -2054, -1268, 5297
0.074513, 1119, 89, 2050, -2054, -1268, 5297
0.074649, 1119, 89, 2050, -2054, -1268, 5297
0.074783, 1119, 89, 2050, -2054, -1268, 5297
0.074918, 2825, 63, 1915, -2256, -762, 4231
0.075052, 2825, 63, 1915, -2256, -762, 4231
0.075187, 2825, 63, 1915, -2256, -762, 4231
0.075322, 2825, 63, 1915, -2256, -762, 4231
0.075457, 2825, 63, 1915, -2256, -762, 4231
0.075593, 2825, 63, 1915, -2256, -762, 4231
0.075729, 2825, 63, 1915, -2256, -762, 4231
0.075863, 6739, 150, 1571, -2487, -427, 1688
0.075998, 6739, 150, 1571, -2487, -427, 1688
0.076133, 6739, 150, 1571, -2487, -427, 1688
0.076267, 6739, 150, 1571, -2487, -427, 1688
0.076402, 6739, 150, 1571, -2487, -427, 1688
0.076536, 6739, 150, 1571, -2487, -427, 1688
0.076671, 6739, 150, 1571, -2487, -427, 1688
0.076806, 6739, 150, 1571, -2487, -427, 1688
0.076940, 10694, 706, 210, -3022, 161, -3411
0.077075, 10694, 706, 210, -3022, 161, -3411
0.077210, 10694, 706, 210, -3022, 161, -3411
0.077344, 10694, 706, 210, -3022, 161, -3411
0.077479, 10694, 706, 210, -3022, 161, -3411
0.077613, 10694, 706, 210, -3022, 161, -3411
0.077748, 10694, 706, 210, -3022, 161, -3411
0.077883, 9423, 1131, -764, -4200, 1490, -9984
0.078018, 9423, 1131, -764, -4200, 1490, -9984
0.078152, 9423, 1131, -764, -4200, 1490, -9984
0.078287, 9423, 1131, -764, -4200, 1490, -9984
0.078421, 9423, 1131, -764, -4200, 1490, -9984
0.078556, 9423, 1131, -764, -4200, 1490, -9984
0.078690, 9423, 1131, -764, -4200, 1490, -9984
0.078825, 9423, 1131, -764, -4200, 1490, -9984
0.078959, 1711, 251, 3021, -4152, 3681, -14102
0.079094, 1711, 251, 3021, -4152, 3681, -14102
0.079229, 1711, 251, 3021, -4152, 3681, -14102
0.079363, 1711, 251, 3021, -4152, 3681, -14102
0.079498, 1711, 251, 3021, -4152, 3681, -14102
0.079633, 1711, 251, 3021, -4152, 3681, -14102
0.079767, 1711, 251, 3021, -4152, 3681, -14102
0.079902, -5742, -691, 6207, -930, 6108, -12883
0.080036, -5742, -691, 6207, -930, 6108, -12883
0.080171, -5742, -691, 6207, -930, 6108, -12883
0.080306, -5742, -691, 6207, -930, 6108, -12883
0.080440, -5742, -691, 6207, -930, 6108, -12883
0.080575, -5742, -691, 6207, -930, 6108, -12883
0.080710, -5742, -691, 6207, -930, 6108, -12883
0.080844, -5742, -691, 6207, -930, 6108, -12883
0.080979, -7105, -318, 1957, 2159, 7205, -8303
0.081114, -7105, -318, 1957, 2159, 7205, -8303
0.081248, -7105, -318, 1957, 2159, 7205, -8303
0.081383, -7105, -318, 1957, 2159, 7205, -8303
0.081517, -7105, -318, 1957, 2159, 7205, -8303
0.081652, -7105, -318, 1957, 2159, 7205, -8303
0.081787, -7105, -318, 1957, 2159, 7205, -8303
0.081921, -5184, 187, -746, 1941, 6091, -4044
0.082056, -5184, 187, -746, 1941, 6091, -4044
0.082191, -5184, 187, -746, 1941, 6091, -4044
0.082326, -5184, 187, -746, 1941, 6091, -4044
0.082460, -5184, 187, -746, 1941, 6091, -4044
0.082595, -5184, 187, -746, 1941, 6091, -4044
0.082729, -5184, 187, -746, 1941, 6091, -4044
0.082864, -5184, 187, -746, 1941, 6091, -4044
0.082998, -3947, -46, 2276, 635, 3944, -1008
0.083133, -3947, -46, 2276, 635, 3944, -1008
0.083268, -3947, -46, 2276, 635, 3944, -1008
0.083402, -3947, -46, 2276, 635, 3944, -1008
0.083537, -3947, -46, 2276, 635, 3944, -1008
0.083671, -3947, -46, 2276, 635, 3944, -1008
0.083806, -3947, -46, 2276, 635, 3944, -1008
0.083941, -3538, -266, 3478, 401, 1989, 1474
0.084075, -3538, -266, 3478, 401, 1989, 1474
0.084210, -3538, -266, 3478, 401, 1989, 1474
0.084345, -3538, -266, 3478, 401, 1989, 1474
0.084479, -3538, -266, 3478, 401, 1989, 1474
0.084614, -3538, -266, 3478, 401, 1989, 1474
0.084749, -3538, -266, 3478, 401, 1989, 1474
0.084883, -3538, -266, 3478, 401, 1989, 1474
0.085018, -3459, -269, 2186, 533, 217, 3601
0.085152, -3459, -269, 2186, 533, 217, 3601
0.085287, -3459, -269, 2186, 533, 217, 3601
0.085422, -3459, -269, 2186, 533, 217, 3601
0.085556, -3459, -269, 2186, 533, 217, 3601
0.085691, -3459, -269, 2186, 533, 217, 3601
0.085825, -3459, -269, 2186, 533, 217, 3601
0.085960, -3013, -250, 1977, 251, -1315, 5482
0.086095, -3013, -250, 1977, 251, -1315, 5482
0.086230, -3013, -250, 1977, 251, -1315, 5482
0.086364, -3013, -250, 1977, 251, -1315, 5482
0.086506, -3013, -250, 1977, 251, -1315, 5482
0.086641, -3013, -250, 1977, 251, -1315, 5482
0.086776, -3013, -250, 1977, 251, -1315, 5482
0.086910, -3013, -250, 1977, 251, -1315, 5482
0.087045, -1708, -81, 2426, -164, -2776, 6885
0.087180, -1708, -81, 2426, -164, -2776, 6885
0.087314, -1708, -81, 2426, -164, -2776, 6885
0.087449, -1708, -81, 2426, -164, -2776, 6885
0.087583, -1708, -81, 2426, -164, -2776, 6885
0.087718, -1708, -81, 2426, -164, -2776, 6885
0.087852, -1708, -81, 2426, -164, -2776, 6885
0.087987, -500, 53, 2297, -378, -4351, 7281
0.088122, -500, 53, 2297, -378, -4351, 7281
0.088256, -500, 53, 2297, -378, -4351, 7281
0.088391, -500, 53, 2297, -378, -4351, 7281
0.088525, -500, 53, 2297, -378, -4351, 7281
0.088660, -500, 53, 2297, -378, -4351, 7281
0.088794, -500, 53, 2297, -378, -4351, 7281
0.088929, -500, 53, 2297, -378, -4351, 7281
0.089063, -41, 78, 2087, -504, -5447, 6962
0.089198, -41, 78, 2087, -504, -5447, 6962
0.089333, -41, 78, 2087, -504, -5447, 6962
0.089467, -41, 78, 2087, -504, -5447, 6962
0.089602, -41, 78, 2087, -504, -5447, 6962
0.089736, -41, 78, 2087, -504, -5447, 6962
0.089871, -41, 78, 2087, -504, -5447, 6962
0.090011, 316, 107, 2077, -684, -5751, 6528
0.090146, 316, 107, 2077, -684, -5751, 6528
0.090281, 316, 107, 2077, -684, -5751, 6528
0.090415, 316, 107, 2077, -684, -5751, 6528
0.090550, 316, 107, 2077, -684, -5751, 6528
0.090684, 316, 107, 2077, -684, -5751, 6528
0.090819, 316, 107, 2077, -684, -5751, 6528
0.090954, 316, 107, 2077, -684, -5751, 6528
0.091088, 1079, 171, 1991, -877, -5383, 5952
0.091223, 1079, 171, 1991, -877, -5383, 5952
0.091357, 1079, 171, 1991, -877, -5383, 5952
0.091492, 1079, 171, 1991, -877, -5383, 5952
0.091627, 1079, 171, 1991, -877, -5383, 5952
0.091761, 1079, 171, 1991, -877, -5383, 5952
0.091896, 1079, 171, 1991, -877, -5383, 5952
0.092031, 1079, 171, 1991, -877, -5383, 5952
0.092165, 2596, 327, 1863, -1102, -4449, 4864
0.092300, 2596, 327, 1863, -1102, -4449, 4864
0.092434, 2596, 327, 1863, -1102, -4449, 4864
0.092569, 2596, 327, 1863, -1102, -4449, 4864
0.092704, 2596, 327, 1863, -1102, -4449, 4864
0.092838, 2596, 327, 1863, -1102, -4449, 4864
0.092973, 2596, 327, 1863, -1102, -4449, 4864
0.093107, 4677, 604, 1866, -1434, -3078, 2782
0.093242, 4677, 604, 1866, -1434, -3078, 2782
0.093377, 4677, 604, 1866, -1434, -3078, 2782
0.093511, 4677, 604, 1866, -1434, -3078, 2782
0.093646, 4677, 604, 1866, -1434, -3078, 2782
0.093781, 4677, 604, 1866, -1434, -3078, 2782
0.093915, 4677, 604, 1866, -1434, -3078, 2782
0.094050, 4677, 604, 1866, -1434, -3078, 2782
0.094185, 5037, 726, 2088, -1731, -1349, -225
0.094320, 5037, 726, 2088, -1731, -1349, -225
0.094454, 5037, 726, 2088, -1731, -1349, -225
0.094589, 5037, 726, 2088, -1731, -1349, -225
0.094723, 5037, 726, 2088, -1731, -1349, -225
0.094858, 5037, 726, 2088, -1731, -1349, -225
0.094993, 5037, 726, 2088, -1731, -1349, -225
0.095127, 2825, 589, 2303, -1738, 516, -2783
0.095262, 2825, 589, 2303, -1738, 516, -2783
0.095397, 2825, 589, 2303, -1738, 516, -2783
0.095531, 2825, 589, 2303, -1738, 516, -2783
0.095666, 2825, 589, 2303, -1738, 516, -2783
0.095800, 2825, 589, 2303, -1738, 516, -2783
0.095935, 2825, 589, 2303, -1738, 516, -2783
0.096070, 2825, 589, 2303, -1738, 516, -2783
0.096204, 384, 262, 2766, -1274, 2177, -3831
0.096339, 384, 262, 2766, -1274, 2177, -3831
0.096473, 384, 262, 2766, -1274, 2177, -3831
0.096608, 384, 262, 2766, -1274, 2177, -3831
0.096743, 384, 262, 2766, -1274, 2177, -3831
0.096877, 384, 262, 2766, -1274, 2177, -3831
0.097012, 384, 262, 2766, -1274, 2177, -3831
0.097146, -1616, -117, 3176, -260, 3310, -3541
0.097281, -1616, -117, 3176, -260, 3310, -3541
0.097416, -1616, -117, 3176, -260, 3310, -3541
0.097550, -1616, -117, 3176, -260, 3310, -3541
0.097685, -1616, -117, 3176, -260, 3310, -3541
0.097820, -1616, -117, 3176, -260, 3310, -3541
0.097954, -1616, -117, 3176, -260, 3310, -3541
0.098089, -1616, -117, 3176, -260, 3310, -3541
0.098223, -2349, -121, 2351, 675, 3487, -2256
0.098358, -2349, -121, 2351, 675, 3487, -2256
0.098493, -2349, -121, 2351, 675, 3487, -2256
0.098627, -2349, -121, 2351, 675, 3487, -2256
0.098766, -2349, -121, 2351, 675, 3487, -2256
0.098901, -2349, -121, 2351, 675, 3487, -2256
0.099036, -2349, -121, 2351, 675, 3487, -2256
0.099171, -186, 167, 1552, 797, 2719, -1166
0.099305, -186, 167, 1552, 797, 2719, -1166
0.099440, -186, 167, 1552, 797, 2719, -1166
0.099575, -186, 167, 1552, 797, 2719, -1166
0.099709, -186, 167, 1552, 797, 2719, -1166
0.099844, -186, 167, 1552, 797, 2719, -1166
0.099978, -186, 167, 1552, 797, 2719, -1166
0.100113, -186, 167, 1552, 797, 2719, -1166
0.100248, 2178, 360, 1874, 444, 1837, -1670
0.100383, 2178, 360, 1874, 444, 1837, -1670
0.100517, 2178, 360, 1874, 444, 1837, -1670
0.100652, 2178, 360, 1874, 444, 1837, -1670
0.100787, 2178, 360, 1874, 444, 1837, -1670
0.100921, 2178, 360, 1874, 444, 1837, -1670
0.101056, 2178, 360, 1874, 444, 1837, -1670
0.101191, 1125, 76, 2114, 244, 1476, -2908
0.101325, 1125, 76, 2114, 244, 1476, -2908
0.101460, 1125, 76, 2114, 244, 1476, -2908
0.101595, 1125, 76, 2114, 244, 1476, -2908
0.101729, 1125, 76, 2114, 244, 1476, -2908
0.101864, 1125, 76, 2114, 244, 1476, -2908
0.101998, 1125, 76, 2114, 244, 1476, -2908
0.102134, 1125, 76, 2114, 244, 1476, -2908
0.102269, 56, -55, 1954, 437, 1377, -3152
0.102409, 56, -55, 1954, 437, 1377, -3152
0.102545, 56, -55, 1954, 437, 1377, -3152
0.102682, 56, -55, 1954, 437, 1377, -3152
0.102818, 56, -55, 1954, 437, 1377, -3152
0.102955, 56, -55, 1954, 437, 1377, -3152
0.103089, 56, -55, 1954, 437, 1377, -3152
0.103224, 2813, 553, 1423, 658, 1198, -3546
0.103359, 2813, 553, 1423, 658, 1198, -3546
0.103497, 2813, 553, 1423, 658, 1198, -3546
0.103633, 2813, 553, 1423, 658, 1198, -3546
0.103781, 2813, 553, 1423, 658, 1198, -3546
0.103929, 2813, 553, 1423, 658, 1198, -3546
0.104077, 2813, 553, 1423, 658, 1198, -3546
0.104216, 3940, 618, 1491, 503, 1044, -5690
0.104352, 3940, 618, 1491, 503, 1044, -5690
0.104487, 3940, 618, 1491, 503, 1044, -5690
0.104629, 3940, 618, 1491, 503, 1044, -5690
0.104777, 3940, 618, 1491, 503, 1044, -5690
0.104918, 3940, 618, 1491, 503, 1044, -5690
0.105064, 3940, 618, 1491, 503, 1044, -5690
0.105207, 3940, 618, 1491, 503, 1044, -5690
0.105344, 2812, 757, 1979, 679, 1171, -7791
0.105478, 2812, 757, 1979, 679, 1171, -7791
0.105612, 2812, 757, 1979, 679, 1171, -7791
0.105752, 2812, 757, 1979, 679, 1171, -7791
0.105896, 2812, 757, 1979, 679, 1171, -7791
0.106049, 2812, 757, 1979, 679, 1171, -7791
0.106191, 2812, 757, 1979, 679, 1171, -7791
0.106329, 4579, 1721, 242, 746, 1675, -9588
0.106464, 4579, 1721, 242, 746, 1675, -9588
0.106599, 4579, 1721, 242, 746, 1675, -9588
0.106740, 4579, 1721, 242, 746, 1675, -9588
0.106882, 4579, 1721, 242, 746, 1675, -9588
0.107026, 4579, 1721, 242, 746, 1675, -9588
0.107167, 4579, 1721, 242, 746, 1675, -9588
0.107306, 881, 446, -26, -89, 2610, -12021
0.107442, 881, 446, -26, -89, 2610, -12021
0.107577, 881, 446, -26, -89, 2610, -12021
0.107712, 881, 446, -26, -89, 2610, -12021
0.107849, 881, 446, -26, -89, 2610, -12021
0.107986, 881, 446, -26, -89, 2610, -12021
0.108121, 881, 446, -26, -89, 2610, -12021
0.108259, -13108, -2888, 2556, 8, 3714, -9647
0.108394, -13108, -2888, 2556, 8, 3714, -9647
0.108531, -13108, -2888, 2556, 8, 3714, -9647
0.108665, -13108, -2888, 2556, 8, 3714, -9647
0.108800, -13108, -2888, 2556, 8, 3714, -9647
0.108936, -13108, -2888, 2556, 8, 3714, -9647
0.109071, -13108, -2888, 2556, 8, 3714, -9647
0.109205, -13108, -2888, 2556, 8, 3714, -9647
0.109339, -16835, -3203, 3021, 1378, 3580, 449
0.109481, -16835, -3203, 3021, 1378, 3580, 449
0.109616, -16835, -3203, 3021, 1378, 3580, 449
0.109749, -16835, -3203, 3021, 1378, 3580, 449
0.109884, -16835, -3203, 3021, 1378, 3580, 449
0.110027, -16835, -3203, 3021, 1378, 3580, 449
0.110161, -16835, -3203, 3021, 1378, 3580, 449
0.110295, -4342, -583, 2805, 2017, 1375, 8663
0.110429, -4342, -583, 2805, 2017, 1375, 8663
0.110563, -4342, -583, 2805, 2017, 1375, 8663
0.110697, -4342, -583, 2805, 2017, 1375, 8663
0.110831, -4342, -583, 2805, 2017, 1375, 8663
0.110965, -4342, -583, 2805, 2017, 1375, 8663
0.111099, -4342, -583, 2805, 2017, 1375, 8663
0.111233, -4342, -583, 2805, 2017, 1375, 8663
0.111394, 1954, 529, 2968, 1268, -1210, 9015
0.111531, 1954, 529, 2968, 1268, -1210, 9015
0.111666, 1954, 529, 2968, 1268, -1210, 9015
0.111800, 1954, 529, 2968, 1268, -1210, 9015
0.111934, 1954, 529, 2968, 1268, -1210, 9015
0.112067, 1954, 529, 2968, 1268, -1210, 9015
0.112201, 1954, 529, 2968, 1268, -1210, 9015
0.112335, -379, 86, 2495, -22, -2810, 7568
0.112469, -379, 86, 2495, -22, -2810, 7568
0.112603, -379, 86, 2495, -22, -2810, 7568
0.112737, -379, 86, 2495, -22, -2810, 7568
0.112871, -379, 86, 2495, -22, -2810, 7568
0.113005, -379, 86, 2495, -22, -2810, 7568
0.113139, -379, 86, 2495, -22, -2810, 7568
0.113273, -379, 86, 2495, -22, -2810, 7568
0.113407, -654, 25, 2291, -880, -3673, 7608
0.113541, -654, 25, 2291, -880, -3673, 7608
0.113675, -654, 25, 2291, -880, -3673, 7608
0.113809, -654, 25, 2291, -880, -3673, 7608
0.113943, -654, 25, 2291, -880, -3673, 7608
0.114077, -654, 25, 2291, -880, -3673, 7608
0.114211, -654, 25, 2291, -880, -3673, 7608
0.114345, -92, 130, 2218, -1228, -4091, 7446
0.114479, -92, 130, 2218, -1228, -4091, 7446
0.114613, -92, 130, 2218, -1228, -4091, 7446
0.114747, -92, 130, 2218, -1228, -4091, 7446
0.114881, -92, 130, 2218, -1228, -4091, 7446
0.115015, -92, 130, 2218, -1228, -4091, 7446
0.115149, -92, 130, 2218, -1228, -4091, 7446
0.115278, -92, 130, 2218, -1228, -4091, 7446
0.115407, -235, 66, 2069, -1337, -4713, 7012
0.115537, -235, 66, 2069, -1337, -4713, 7012
0.115673, -235, 66, 2069, -1337, -4713, 7012
0.115807, -235, 66, 2069, -1337, -4713, 7012
0.115941, -235, 66, 2069, -1337, -4713, 7012
0.116075, -235, 66, 2069, -1337, -4713, 7012
0.116209, -235, 66, 2069, -1337, -4713, 7012
0.116343, -235, 66, 2069, -1337, -4713, 7012
0.116477, -164, 63, 2026, -1324, -5340, 6735
0.116611, -164, 63, 2026, -1324, -5340, 6735
0.116745, -164, 63, 2026, -1324, -5340, 6735
0.116880, -164, 63, 2026, -1324, -5340, 6735
0.117014, -164, 63, 2026, -1324, -5340, 6735
0.117148, -164, 63, 2026, -1324, -5340, 6735
0.117282, -164, 63, 2026, -1324, -5340, 6735
0.117416, 20, 100, 2068, -1361, -5117, 6552
0.117550, 20, 100, 2068, -1361, -5117, 6552
0.117684, 20, 100, 2068, -1361, -5117, 6552
0.117818, 20, 100, 2068, -1361, -5117, 6552
0.117952, 20, 100, 2068, -1361, -5117, 6552
0.118086, 20, 100, 2068, -1361, -5117, 6552
0.118220, 20, 100, 2068, -1361, -5117, 6552
0.118354, 20, 100, 2068, -1361, -5117, 6552
0.118488, 105, 91, 2028, -1463, -4161, 6432
0.118622, 105, 91, 2028, -1463, -4161, 6432
0.118756, 105, 91, 2028, -1463, -4161, 6432
0.118890, 105, 91, 2028, -1463, -4161, 6432
0.119024, 105, 91, 2028, -1463, -4161, 6432
0.119158, 105, 91, 2028, -1463, -4161, 6432
0.119292, 105, 91, 2028, -1463, -4161, 6432
0.119426, 219, 103, 2030, -1596, -2923, 6367
0.119560, 219, 103, 2030, -1596, -2923, 6367
0.119694, 219, 103, 2030, -1596, -2923, 6367
0.119828, 219, 103, 2030, -1596, -2923, 6367
0.119962, 219, 103, 2030, -1596, -2923, 6367
0.120096, 219, 103, 2030, -1596, -2923, 6367
0.120229, 219, 103, 2030, -1596, -2923, 6367
0.120363, 219, 103, 2030, -1596, -2923, 6367
0.120497, 529, 179, 2000, -1832, -1886, 6283
0.120631, 529, 179, 2000, -1832, -1886, 6283
0.120765, 529, 179, 2000, -1832, -1886, 6283
0.120899, 529, 179, 2000, -1832, -1886, 6283
0.121028, 529, 179, 2000, -1832, -1886, 6283
0.121163, 529, 179, 2000, -1832, -1886, 6283
0.121298, 529, 179, 2000, -1832, -1886, 6283
0.121432, 1841, 497, 1511, -2220, -1271, 5831
0.121567, 1841, 497, 1511, -2220, -1271, 5831
0.121707, 1841, 497, 1511, -2220, -1271, 5831
0.121843, 1841, 497, 1511, -2220, -1271, 5831
0.121980, 1841, 497, 1511, -2220, -1271, 5831
0.122125, 1841, 497, 1511, -2220, -1271, 5831
0.122264, 1841, 497, 1511, -2220, -1271, 5831
0.122400, 1841, 497, 1511, -2220, -1271, 5831
0.122536, 4389, 896, 728, -2994, -816, 4212
0.122671, 4389, 896, 728, -2994, -816, 4212
0.122806, 4389, 896, 728, -2994, -816, 4212
0.122940, 4389, 896, 728, -2994, -816, 4212
0.123074, 4389, 896, 728, -2994, -816, 4212
0.123208, 4389, 896, 728, -2994, -816, 4212
0.123342, 4389, 896, 728, -2994, -816, 4212
0.123476, 6675, 533, 1498, -3760, -164, 1089
0.123610, 6675, 533, 1498, -3760, -164, 1089
0.123762, 6675, 533, 1498, -3760, -164, 1089
0.123901, 6675, 533, 1498, -3760, -164, 1089
0.124036, 6675, 533, 1498, -3760, -164, 1089
0.124170, 6675, 533, 1498, -3760, -164, 1089
0.124304, 6675, 533, 1498, -3760, -164, 1089
0.124438, 6675, 533, 1498, -3760, -164, 1089
0.124572, 9573, 492, 3052, -3525, 871, -3348
0.124706, 9573, 492, 3052, -3525, 871, -3348
0.124840, 9573, 492, 3052, -3525, 871, -3348
0.124974, 9573, 492, 3052, -3525, 871, -3348
0.125108, 9573, 492, 3052, -3525, 871, -3348
0.125242, 9573, 492, 3052, -3525, 871, -3348
0.125375, 9573, 492, 3052, -3525, 871, -3348
0.125509, 10760, 1113, 3255, -2363, 2511, -9476
0.125643, 10760, 1113, 3255, -2363, 2511, -9476
0.125777, 10760, 1113, 3255, -2363, 2511, -9476
0.125911, 10760, 1113, 3255, -2363, 2511, -9476
0.126046, 10760, 1113, 3255, -2363, 2511, -9476
0.126180, 10760, 1113, 3255, -2363, 2511, -9476
0.126314, 10760, 1113, 3255, -2363, 2511, -9476
0.126448, 10760, 1113, 3255, -2363, 2511, -9476
0.126582, 2941, -12, 3199, -675, 4758, -14765
0.126716, 2941, -12, 3199, -675, 4758, -14765
0.126850, 2941, -12, 3199, -675, 4758, -14765
0.126984, 2941, -12, 3199, -675, 4758, -14765
0.127118, 2941, -12, 3199, -675, 4758, -14765
0.127252, 2941, -12, 3199, -675, 4758, -14765
0.127386, 2941, -12, 3199, -675, 4758, -14765
0.127520, -9530, -1769, 2723, 1425, 6577, -13741
0.127654, -9530, -1769, 2723, 1425, 6577, -13741
0.127788, -9530, -1769, 2723, 1425, 6577, -13741
0.127921, -9530, -1769, 2723, 1425, 6577, -13741
0.128055, -9530, -1769, 2723, 1425, 6577, -13741
0.128189, -9530, -1769, 2723, 1425, 6577, -13741
0.128323, -9530, -1769, 2723, 1425, 6577, -13741
0.128457, -9530, -1769, 2723, 1425, 6577, -13741
0.128591, -14518, -1686, 1488, 3130, 6640, -6174
0.128725, -14518, -1686, 1488, 3130, 6640, -6174
0.128859, -14518, -1686, 1488, 3130, 6640, -6174
0.128993, -14518, -1686, 1488, 3130, 6640, -6174
0.129126, -14518, -1686, 1488, 3130, 6640, -6174
0.129260, -14518, -1686, 1488, 3130, 6640, -6174
0.129394, -14518, -1686, 1488, 3130, 6640, -6174
0.129528, -14518, -1686, 1488, 3130, 6640, -6174
0.129662, -9345, -508, 852, 3330, 4566, 1985
0.129796, -9345, -508, 852, 3330, 4566, 1985
0.129930, -9345, -508, 852, 3330, 4566, 1985
0.130064, -9345, -508, 852, 3330, 4566, 1985
0.130198, -9345, -508, 852, 3330, 4566, 1985
0.130332, -9345, -508, 852, 3330, 4566, 1985
0.130466, -9345, -508, 852, 3330, 4566, 1985
0.130600, -1900, 179, 1528, 2090, 1330, 5931
0.130734, -1900, 179, 1528, 2090, 1330, 5931
0.130867, -1900, 179, 1528, 2090, 1330, 5931
0.131001, -1900, 179, 1528, 2090, 1330, 5931
0.131135, -1900, 179, 1528, 2090, 1330, 5931
0.131269, -1900, 179, 1528, 2090, 1330, 5931
0.131403, -1900, 179, 1528, 2090, 1330, 5931
0.131537, -1900, 179, 1528, 2090, 1330, 5931
0.131671, 966, 114, 2580, 648, -1324, 6188
0.131805, 966, 114, 2580, 648, -1324, 6188
0.131939, 966, 114, 2580, 648, -1324, 6188
0.132073, 966, 114, 2580, 648, -1324, 6188
0.132207, 966, 114, 2580, 648, -1324, 6188
0.132340, 966, 114, 2580, 648, -1324, 6188
0.132474, 966, 114, 2580, 648, -1324, 6188
0.132608, 1381, 43, 2806, -215, -2594, 5494
0.132742, 1381, 43, 2806, -215, -2594, 5494
0.132876, 1381, 43, 2806, -215, -2594, 5494
0.133010, 1381, 43, 2806, -215, -2594, 5494
0.133144, 1381, 43, 2806, -215, -2594, 5494
0.133278, 1381, 43, 2806, -215, -2594, 5494
0.133412, 1381, 43, 2806, -215, -2594, 5494
0.133545, 1381, 43, 2806, -215, -2594, 5494
0.133679, 1985, 112, 2739, -374, -3049, 4466
0.133813, 1985, 112, 2739, -374, -3049, 4466
0.133947, 1985, 112, 2739, -374, -3049, 4466
0.134083, 1985, 112, 2739, -374, -3049, 4466
0.134217, 1985, 112, 2739, -374, -3049, 4466
0.134352, 1985, 112, 2739, -374, -3049, 4466
0.134486, 1985, 112, 2739, -374, -3049, 4466
0.134621, 1480, 184, 2701, 41, -3345, 3053
0.134755, 1480, 184, 2701, 41, -3345, 3053
0.134890, 1480, 184, 2701, 41, -3345, 3053
0.135024, 1480, 184, 2701, 41, -3345, 3053
0.135158, 1480, 184, 2701, 41, -3345, 3053
0.135293, 1480, 184, 2701, 41, -3345, 3053
0.135427, 1480, 184, 2701, 41, -3345, 3053
0.135561, 1480, 184, 2701, 41, -3345, 3053
0.135696, 487, 362, 2655, 708, -3676, 2069
0.135837, 487, 362, 2655, 708, -3676, 2069
0.135972, 487, 362, 2655, 708, -3676, 2069
0.136107, 487, 362, 2655, 708, -3676, 2069
0.136241, 487, 362, 2655, 708, -3676, 2069
0.136376, 487, 362, 2655, 708, -3676, 2069
0.136510, 487, 362, 2655, 708, -3676, 2069
0.136644, -187, 255, 2711, 1492, -3759, 1647
0.136779, -187, 255, 2711, 1492, -3759, 1647
0.136913, -187, 255, 2711, 1492, -3759, 1647
0.137048, -187, 255, 2711, 1492, -3759, 1647
0.137182, -187, 255, 2711, 1492, -3759, 1647
0.137316, -187, 255, 2711, 1492, -3759, 1647
0.137451, -187, 255, 2711, 1492, -3759, 1647
0.137585, -187, 255, 2711, 1492, -3759, 1647
0.137719, -1456, -172, 1944, 2033, -3206, 1814
0.137854, -1456, -172, 1944, 2033, -3206, 1814
0.137988, -1456, -172, 1944, 2033, -3206, 1814
0.138123, -1456, -172, 1944, 2033, -3206, 1814
0.138258, -1456, -172, 1944, 2033, -3206, 1814
0.138392, -1456, -172, 1944, 2033, -3206, 1814
0.138527, -1456, -172, 1944, 2033, -3206, 1814
0.138661, -1271, -208, 806, 1720, -2333, 2760
0.138796, -1271, -208, 806, 1720, -2333, 2760
0.138930, -1271, -208, 806, 1720, -2333, 2760
0.139064, -1271, -208, 806, 1720, -2333, 2760
0.139199, -1271, -208, 806, 1720, -2333, 2760
0.139333, -1271, -208, 806, 1720, -2333, 2760
0.139468, -1271, -208, 806, 1720, -2333, 2760
0.139602, -1271, -208, 806, 1720, -2333, 2760
0.139736, 2288, 295, 1465, 874, -1501, 2972
0.139871, 2288, 295, 1465, 874, -1501, 2972
0.140005, 2288, 295, 1465, 874, -1501, 2972
0.140140, 2288, 295, 1465, 874, -1501, 2972
0.140274, 2288, 295, 1465, 874, -1501, 2972
0.140409, 2288, 295, 1465, 874, -1501, 2972
0.140543, 2288, 295, 1465, 874, -1501, 2972
0.140677, 2288, 295, 1465, 874, -1501, 2972
0.140812, 5727, 629, 2770, 332, -544, 779
0.140946, 5727, 629, 2770, 332, -544, 779
0.141080, 5727, 629, 2770, 332, -544, 779
0.141215, 5727, 629, 2770, 332, -544, 779
0.141349, 5727, 629, 2770, 332, -544, 779
0.141484, 5727, 629, 2770, 332, -544, 779
0.141618, 5727, 629, 2770, 332, -544, 779
0.141752, 4850, 474, 2928, 283, 703, -2727
0.141887, 4850, 474, 2928, 283, 703, -2727
0.142021, 4850, 474, 2928, 283, 703, -2727
0.142156, 4850, 474, 2928, 283, 703, -2727
0.142290, 4850, 474, 2928, 283, 703, -2727
0.142424, 4850, 474, 2928, 283, 703, -2727
0.142559, 4850, 474, 2928, 283, 703, -2727
0.142693, 4850, 474, 2928, 283, 703, -2727
0.142827, 1622, 254, 3713, 928, 2207, -4914
0.142962, 1622, 254, 3713, 928, 2207, -4914
0.143096, 1622, 254, 3713, 928, 2207, -4914
0.143231, 1622, 254, 3713, 928, 2207, -4914
0.143365, 1622, 254, 3713, 928, 2207, -4914
0.143499, 1622, 254, 3713, 928, 2207, -4914
0.143634, 1622, 254, 3713, 928, 2207, -4914
0.143768, 943, 438, 5687, 2800, 3641, -5511
0.143903, 943, 438, 5687, 2800, 3641, -5511
0.144037, 943, 438, 5687, 2800, 3641, -5511
0.144171, 943, 438, 5687, 2800, 3641, -5511
0.144306, 943, 438, 5687, 2800, 3641, -5511
0.144440, 943, 438, 5687, 2800, 3641, -5511
0.144575, 943, 438, 5687, 2800, 3641, -5511
0.144709, 943, 438, 5687, 2800, 3641, -5511
0.144843, 2710, 1772, 6556, 5776, 4472, -6457
0.144978, 2710, 1772, 6556, 5776, 4472, -6457
0.145112, 2710, 1772, 6556, 5776, 4472, -6457
0.145246, 2710, 1772, 6556, 5776, 4472, -6457
0.145381, 2710, 1772, 6556, 5776, 4472, -6457
0.145515, 2710, 1772, 6556, 5776, 4472, -6457
0.145649, 2710, 1772, 6556, 5776, 4472, -6457
0.145784, 3520, 4073, 5175, 8521, 4689, -8547
0.145918, 3520, 4073, 5175, 8521, 4689, -8547
0.146053, 3520, 4073, 5175, 8521, 4689, -8547
0.146187, 3520, 4073, 5175, 8521, 4689, -8547
0.146321, 3520, 4073, 5175, 8521, 4689, -8547
0.146456, 3520, 4073, 5175, 8521, 4689, -8547
0.146590, 3520, 4073, 5175, 8521, 4689, -8547
0.146724, 3520, 4073, 5175, 8521, 4689, -8547
0.146859, -1488, 166, 1764, 9397, 4767, -10045
0.146993, -1488, 166, 1764, 9397, 4767, -10045
0.147128, -1488, 166, 1764, 9397, 4767, -10045
0.147262, -1488, 166, 1764, 9397, 4767, -10045
0.147396, -1488, 166, 1764, 9397, 4767, -10045
0.147531, -1488, 166, 1764, 9397, 4767, -10045
0.147665, -1488, 166, 1764, 9397, 4767, -10045
0.147799, -7788, -5527, -3223, 7927, 3912, -7679
0.147934, -7788, -5527, -3223, 7927, 3912, -7679
0.148072, -7788, -5527, -3223, 7927, 3912, -7679
0.148207, -7788, -5527, -3223, 7927, 3912, -7679
0.148342, -7788, -5527, -3223, 7927, 3912, -7679
0.148476, -7788, -5527, -3223, 7927, 3912, -7679
0.148611, -7788, -5527, -3223, 7927, 3912, -7679
0.148745, -7788, -5527, -3223, 7927, 3912, -7679
0.148879, -7627, -2052, -4840, 4918, 1593, -2464
0.149014, -7627, -2052, -4840, 4918, 1593, -2464
0.149148, -7627, -2052, -4840, 4918, 1593, -2464
0.149283, -7627, -2052, -4840, 4918, 1593, -2464
0.149417, -7627, -2052, -4840, 4918, 1593, -2464
0.149551, -7627, -2052, -4840, 4918, 1593, -2464
0.149686, -7627, -2052, -4840, 4918, 1593, -2464
0.149820, -6310, 755, -1109, 1908, -412, 1957
0.149955, -6310, 755, -1109, 1908, -412, 1957
0.150089, -6310, 755, -1109, 1908, -412, 1957
0.150224, -6310, 755, -1109, 1908, -412, 1957
0.150358, -6310, 755, -1109, 1908, -412, 1957
0.150493, -6310, 755, -1109, 1908, -412, 1957
0.150627, -6310, 755, -1109, 1908, -412, 1957
0.150761, -6310, 755, -1109, 1908, -412, 1957
0.150896, -4274, -446, 1527, 316, -1656, 5306
0.151031, -4274, -446, 1527, 316, -1656, 5306
0.151165, -4274, -446, 1527, 316, -1656, 5306
0.151299, -4274, -446, 1527, 316, -1656, 5306
0.151434, -4274, -446, 1527, 316, -1656, 5306
0.151568, -4274, -446, 1527, 316, -1656, 5306
0.151703, -4274, -446, 1527, 316, -1656, 5306
0.151837, -4274, -446, 1527, 316, -1656, 5306
0.151971, -504, -130, 1896, -126, -2636, 7074
0.152106, -504, -130, 1896, -126, -2636, 7074
0.152240, -504, -130, 1896, -126, -2636, 7074
0.152375, -504, -130, 1896, -126, -2636, 7074
0.152509, -504, -130, 1896, -126, -2636, 7074
0.152643, -504, -130, 1896, -126, -2636, 7074
0.152778, -504, -130, 1896, -126, -2636, 7074
0.152912, 583, 182, 2548, -663, -2829, 7158
0.153047, 583, 182, 2548, -663, -2829, 7158
0.153181, 583, 182, 2548, -663, -2829, 7158
0.153316, 583, 182, 2548, -663, -2829, 7158
0.153450, 583, 182, 2548, -663, -2829, 7158
0.153584, 583, 182, 2548, -663, -2829, 7158
0.153719, 583, 182, 2548, -663, -2829, 7158
0.153853, 583, 182, 2548, -663, -2829, 7158
0.153987, 416, 83, 2703, -1165, -3158, 6898
0.154122, 416, 83, 2703, -1165, -3158, 6898
0.154256, 416, 83, 2703, -1165, -3158, 6898
0.154391, 416, 83, 2703, -1165, -3158, 6898
0.154525, 416, 83, 2703, -1165, -3158, 6898
0.154660, 416, 83, 2703, -1165, -3158, 6898
0.154794, 416, 83, 2703, -1165, -3158, 6898
0.154928, 1163, -2, 2556, -911, -4089, 6194
0.155063, 1163, -2, 2556, -911, -4089, 6194
0.155197, 1163, -2, 2556, -911, -4089, 6194
0.155332, 1163, -2, 2556, -911, -4089, 6194
0.155466, 1163, -2, 2556, -911, -4089, 6194
0.155600, 1163, -2, 2556, -911, -4089, 6194
0.155735, 1163, -2, 2556, -911, -4089, 6194
0.155869, 1163, -2, 2556, -911, -4089, 6194
0.156004, 3310, 291, 3024, -172, -4529, 4622
0.156138, 3310, 291, 3024, -172, -4529, 4622
0.156272, 3310, 291, 3024, -172, -4529, 4622
0.156407, 3310, 291, 3024, -172, -4529, 4622
0.156541, 3310, 291, 3024, -172, -4529, 4622
0.156676, 3310, 291, 3024, -172, -4529, 4622
0.156810, 3310, 291, 3024, -172, -4529, 4622
0.156944, 5811, 646, 3511, 648, -4315, 1835
0.157079, 5811, 646, 3511, 648, -4315, 1835
0.157213, 5811, 646, 3511, 648, -4315, 1835
0.157348, 5811, 646, 3511, 648, -4315, 1835
0.157482, 5811, 646, 3511, 648, -4315, 1835
0.157616, 5811, 646, 3511, 648, -4315, 1835
0.157751, 5811, 646, 3511, 648, -4315, 1835
0.157885, 5811, 646, 3511, 648, -4315, 1835
0.158020, 5479, 745, 3385, 1523, -3233, -1879
0.158154, 5479, 745, 3385, 1523, -3233, -1879
0.158289, 5479, 745, 3385, 1523, -3233, -1879
0.158423, 5479, 745, 3385, 1523, -3233, -1879
0.158557, 5479, 745, 3385, 1523, -3233, -1879
0.158692, 5479, 745, 3385, 1523, -3233, -1879
0.158826, 5479, 745, 3385, 1523, -3233, -1879
0.158960, 2508, 919, 3620, 2673, -948, -4620
0.159095, 2508, 919, 3620, 2673, -948, -4620
0.159229, 2508, 919, 3620, 2673, -948, -4620
0.159364, 2508, 919, 3620, 2673, -948, -4620
0.159498, 2508, 919, 3620, 2673, -948, -4620
0.159632, 2508, 919, 3620, 2673, -948, -4620
0.159767, 2508, 919, 3620, 2673, -948, -4620
0.159901, 2508, 919, 3620, 2673, -948, -4620
0.160035, -321, 207, 2332, 3664, 1525, -5442
0.160180, -321, 207, 2332, 3664, 1525, -5442
0.160315, -321, 207, 2332, 3664, 1525, -5442
0.160449, -321, 207, 2332, 3664, 1525, -5442
0.160584, -321, 207, 2332, 3664, 1525, -5442
0.160718, -321, 207, 2332, 3664, 1525, -5442
0.160853, -321, 207, 2332, 3664, 1525, -5442
0.160987, -1754, -594, -18, 3278, 2875, -4870
0.161121, -1754, -594, -18, 3278, 2875, -4870
0.161256, -1754, -594, -18, 3278, 2875, -4870
0.161390, -1754, -594, -18, 3278, 2875, -4870
0.161525, -1754, -594, -18, 3278, 2875, -4870
0.161659, -1754, -594, -18, 3278, 2875, -4870
0.161793, -1754, -594, -18, 3278, 2875, -4870
0.161928, -1754, -594, -18, 3278, 2875, -4870
0.162063, -229, 697, 1824, 2554, 3158, -3856
0.162192, -229, 697, 1824, 2554, 3158, -3856
0.162327, -229, 697, 1824, 2554, 3158, -3856
0.162461, -229, 697, 1824, 2554, 3158, -3856
0.162596, -229, 697, 1824, 2554, 3158, -3856
0.162730, -229, 697, 1824, 2554, 3158, -3856
0.162865, -229, 697, 1824, 2554, 3158, -3856
0.162999, 1881, 1070, 2668, 2617, 3508, -4164
0.163134, 1881, 1070, 2668, 2617, 3508, -4164
0.163269, 1881, 1070, 2668, 2617, 3508, -4164
0.163403, 1881, 1070, 2668, 2617, 3508, -4164
0.163538, 1881, 1070, 2668, 2617, 3508, -4164
0.163672, 1881, 1070, 2668, 2617, 3508, -4164
0.163806, 1881, 1070, 2668, 2617, 3508, -4164
0.163941, 1881, 1070, 2668, 2617, 3508, -4164
0.164076, -1267, -878, -1237, 1394, 3773, -4919
0.164210, -1267, -878, -1237, 1394, 3773, -4919
0.164345, -1267, -878, -1237, 1394, 3773, -4919
0.164479, -1267, -878, -1237, 1394, 3773, -4919
0.164614, -1267, -878, -1237, 1394, 3773, -4919
0.164748, -1267, -878, -1237, 1394, 3773, -4919
0.164883, -1267, -878, -1237, 1394, 3773, -4919
0.165017, -5302, -1287, -909, -770, 3332, -3097
0.165152, -5302, -1287, -909, -770, 3332, -3097
0.165287, -5302, -1287, -909, -770, 3332, -3097
0.165421, -5302, -1287, -909, -770, 3332, -3097
0.165556, -5302, -1287, -909, -770, 3332, -3097
0.165690, -5302, -1287, -909, -770, 3332, -3097
0.165825, -5302, -1287, -909, -770, 3332, -3097
0.165959, -5302, -1287, -909, -770, 3332, -3097
0.166094, -2421, 555, 3467, -1089, 2813, -95
0.166228, -2421, 555, 3467, -1089, 2813, -95
0.166363, -2421, 555, 3467, -1089, 2813, -95
0.166497, -2421, 555, 3467, -1089, 2813, -95
0.166631, -2421, 555, 3467, -1089, 2813, -95
0.166766, -2421, 555, 3467, -1089, 2813, -95
0.166900, -2421, 555, 3467, -1089, 2813, -95
0.167035, -2421, 555, 3467, -1089, 2813, -95
0.167169, 466, 1039, 3634, -255, 2002, 417
0.167304, 466, 1039, 3634, -255, 2002, 417
0.167438, 466, 1039, 3634, -255, 2002, 417
0.167573, 466, 1039, 3634, -255, 2002, 417
0.167707, 466, 1039, 3634, -255, 2002, 417
0.167842, 466, 1039, 3634, -255, 2002, 417
0.167976, 466, 1039, 3634, -255, 2002, 417
0.168111, -3594, -660, 847, -296, 523, 363
0.168246, -3594, -660, 847, -296, 523, 363
0.168375, -3594, -660, 847, -296, 523, 363
0.168511, -3594, -660, 847, -296, 523, 363
0.168647, -3594, -660, 847, -296, 523, 363
0.168783, -3594, -660, 847, -296, 523, 363
0.168917, -3594, -660, 847, -296, 523, 363
0.169052, -3594, -660, 847, -296, 523, 363
0.169186, -6157, -1258, 692, -1067, -854, 3219
0.169321, -6157, -1258, 692, -1067, -854, 3219
0.169455, -6157, -1258, 692, -1067, -854, 3219
0.169590, -6157, -1258, 692, -1067, -854, 3219
0.169725, -6157, -1258, 692, -1067, -854, 3219
0.169859, -6157, -1258, 692, -1067, -854, 3219
0.169993, -6157, -1258, 692, -1067, -854, 3219
0.170129, -2592, -246, 2337, -1496, -2199, 6436
0.170264, -2592, -246, 2337, -1496, -2199, 6436
0.170398, -2592, -246, 2337, -1496, -2199, 6436
0.170533, -2592, -246, 2337, -1496, -2199, 6436
0.170667, -2592, -246, 2337, -1496, -2199, 6436
0.170802, -2592, -246, 2337, -1496, -2199, 6436
0.170936, -2592, -246, 2337, -1496, -2199, 6436
0.171070, -2592, -246, 2337, -1496, -2199, 6436
0.171205, 240, 173, 2410, -1483, -3653, 6968
0.171340, 240, 173, 2410, -1483, -3653, 6968
0.171474, 240, 173, 2410, -1483, -3653, 6968
0.171609, 240, 173, 2410, -1483, -3653, 6968
0.171743, 240, 173, 2410, -1483, -3653, 6968
0.171878, 240, 173, 2410, -1483, -3653, 6968
0.172012, 240, 173, 2410, -1483, -3653, 6968
0.172154, 86, 14, 1934, -1556, -4375, 6436
0.172291, 86, 14, 1934, -1556, -4375, 6436
0.172426, 86, 14, 1934, -1556, -4375, 6436
0.172560, 86, 14, 1934, -1556, -4375, 6436
0.172695, 86, 14, 1934, -1556, -4375, 6436
0.172829, 86, 14, 1934, -1556, -4375, 6436
0.172964, 86, 14, 1934, -1556, -4375, 6436
0.173099, 86, 14, 1934, -1556, -4375, 6436
0.173233, -108, 94, 2168, -1832, -4143, 6489
0.173368, -108, 94, 2168, -1832, -4143, 6489
0.173502, -108, 94, 2168, -1832, -4143, 6489
0.173637, -108, 94, 2168, -1832, -4143, 6489
0.173772, -108, 94, 2168, -1832, -4143, 6489
0.173906, -108, 94, 2168, -1832, -4143, 6489
0.174041, -108, 94, 2168, -1832, -4143, 6489
0.174176, 16, 145, 2174, -2075, -3497, 6618
0.174310, 16, 145, 2174, -2075, -3497, 6618
0.174445, 16, 145, 2174, -2075, -3497, 6618
0.174579, 16, 145, 2174, -2075, -3497, 6618
0.174714, 16, 145, 2174, -2075, -3497, 6618
0.174848, 16, 145, 2174, -2075, -3497, 6618
0.174983, 16, 145, 2174, -2075, -3497, 6618
0.175117, 16, 145, 2174, -2075, -3497, 6618
0.175252, -18, 74, 2010, -2121, -2830, 6485
0.175386, -18, 74, 2010, -2121, -2830, 6485
0.175521, -18, 74, 2010, -2121, -2830, 6485
0.175656, -18, 74, 2010, -2121, -2830, 6485
0.175790, -18, 74, 2010, -2121, -2830, 6485
0.175924, -18, 74, 2010, -2121, -2830, 6485
0.176059, -18, 74, 2010, -2121, -2830, 6485
0.176193, 14, 90, 2088, -2147, -2219, 6331
0.176328, 14, 90, 2088, -2147, -2219, 6331
0.176463, 14, 90, 2088, -2147, -2219, 6331
0.176597, 14, 90, 2088, -2147, -2219, 6331
0.176732, 14, 90, 2088, -2147, -2219, 6331
0.176866, 14, 90, 2088, -2147, -2219, 6331
0.177000, 14, 90, 2088, -2147, -2219, 6331
0.177135, 14, 90, 2088, -2147, -2219, 6331
0.177269, 62, 122, 2150, -2306, -1705, 6217
0.177404, 62, 122, 2150, -2306, -1705, 6217
0.177538, 62, 122, 2150, -2306, -1705, 6217
0.177669, 62, 122, 2150, -2306, -1705, 6217
0.177804, 62, 122, 2150, -2306, -1705, 6217
0.177939, 62, 122, 2150, -2306, -1705, 6217
0.178074, 62, 122, 2150, -2306, -1705, 6217
0.178209, 106, 92, 2096, -2464, -1277, 6049
0.178343, 106, 92, 2096, -2464, -1277, 6049
0.178478, 106, 92, 2096, -2464, -1277, 6049
0.178612, 106, 92, 2096, -2464, -1277, 6049
0.178747, 106, 92, 2096, -2464, -1277, 6049
0.178881, 106, 92, 2096, -2464, -1277, 6049
0.179016, 106, 92, 2096, -2464, -1277, 6049
0.179150, 106, 92, 2096, -2464, -1277, 6049
0.179285, 277, 66, 2110, -2575, -839, 5801
0.179419, 277, 66, 2110, -2575, -839, 5801
0.179554, 277, 66, 2110, -2575, -839, 5801
0.179688, 277, 66, 2110, -2575, -839, 5801
0.179823, 277, 66, 2110, -2575, -839, 5801
0.179957, 277, 66, 2110, -2575, -839, 5801
0.180092, 277, 66, 2110, -2575, -839, 5801
0.180226, 726, 42, 2144, -2715, -554, 5430
0.180361, 726, 42, 2144, -2715, -554, 5430
0.180495, 726, 42, 2144, -2715, -554, 5430
0.180630, 726, 42, 2144, -2715, -554, 5430
0.180764, 726, 42, 2144, -2715, -554, 5430
0.180899, 726, 42, 2144, -2715, -554, 5430
0.181033, 726, 42, 2144, -2715, -554, 5430
0.181168, 726, 42, 2144, -2715, -554, 5430
0.181302, 1606, 17, 2137, -2848, -573, 4689
0.181437, 1606, 17, 2137, -2848, -573, 4689
0.181571, 1606, 17, 2137, -2848, -573, 4689
0.181706, 1606, 17, 2137, -2848, -573, 4689
0.181841, 1606, 17, 2137, -2848, -573, 4689
0.181975, 1606, 17, 2137, -2848, -573, 4689
0.182110, 1606, 17, 2137, -2848, -573, 4689
0.182244, 1606, 17, 2137, -2848, -573, 4689
0.182379, 2938, 193, 2275, -2866, -711, 3274
0.182513, 2938, 193, 2275, -2866, -711, 3274
0.182648, 2938, 193, 2275, -2866, -711, 3274
0.182782, 2938, 193, 2275, -2866, -711, 3274
0.182917, 2938, 193, 2275, -2866, -711, 3274
0.183051, 2938, 193, 2275, -2866, -711, 3274
0.183186, 2938, 193, 2275, -2866, -711, 3274
0.183320, 4575, 608, 2300, -2702, -659, 1029
0.183455, 4575, 608, 2300, -2702, -659, 1029
0.183589, 4575, 608, 2300, -2702, -659, 1029
0.183724, 4575, 608, 2300, -2702, -659, 1029
0.183858, 4575, 608, 2300, -2702, -659, 1029
0.183993, 4575, 608, 2300, -2702, -659, 1029
0.184127, 4575, 608, 2300, -2702, -659, 1029
0.184262, 4575, 608, 2300, -2702, -659, 1029
0.184396, 5919, 413, 1600, -2590, -282, -2147
0.184531, 5919, 413, 1600, -2590, -282, -2147
0.184666, 5919, 413, 1600, -2590, -282, -2147
0.184806, 5919, 413, 1600, -2590, -282, -2147
0.184941, 5919, 413, 1600, -2590, -282, -2147
0.185075, 5919, 413, 1600, -2590, -282, -2147
0.185210, 5919, 413, 1600, -2590, -282, -2147
0.185344, 5780, 162, 664, -2824, 356, -5816
0.185479, 5780, 162, 664, -2824, 356, -5816
0.185614, 5780, 162, 664, -2824, 356, -5816
0.185748, 5780, 162, 664, -2824, 356, -5816
0.185883, 5780, 162, 664, -2824, 356, -5816
0.186017, 5780, 162, 664, -2824, 356, -5816
0.186152, 5780, 162, 664, -2824, 356, -5816
0.186286, 5780, 162, 664, -2824, 356, -5816
0.186421, 3504, 329, 1522, -2844, 1252, -8775
0.186556, 3504, 329, 1522, -2844, 1252, -8775
0.186690, 3504, 329, 1522, -2844, 1252, -8775
0.186825, 3504, 329, 1522, -2844, 1252, -8775
0.186959, 3504, 329, 1522, -2844, 1252, -8775
0.187094, 3504, 329, 1522, -2844, 1252, -8775
0.187228, 3504, 329, 1522, -2844, 1252, -8775
0.187363, 1562, 201, 3565, -1728, 2433, -10271
0.187497, 1562, 201, 3565, -1728, 2433, -10271
0.187632, 1562, 201, 3565, -1728, 2433, -10271
0.187766, 1562, 201, 3565, -1728, 2433, -10271
0.187901, 1562, 201, 3565, -1728, 2433, -10271
0.188035, 1562, 201, 3565, -1728, 2433, -10271
0.188170, 1562, 201, 3565, -1728, 2433, -10271
0.188304, 1562, 201, 3565, -1728, 2433, -10271
0.188439, 914, 615, 3102, -18, 3632, -10918
0.188574, 914, 615, 3102, -18, 3632, -10918
0.188708, 914, 615, 3102, -18, 3632, -10918
0.188843, 914, 615, 3102, -18, 3632, -10918
0.188977, 914, 615, 3102, -18, 3632, -10918
0.189112, 914, 615, 3102, -18, 3632, -10918
0.189246, 914, 615, 3102, -18, 3632, -10918
0.189381, -1746, 545, 2091, 1111, 4619, -10766
0.189515, -1746, 545, 2091, 1111, 4619, -10766
0.189650, -1746, 545, 2091, 1111, 4619, -10766
0.189784, -1746, 545, 2091, 1111, 4619, -10766
0.189919, -1746, 545, 2091, 1111, 4619, -10766
0.190054, -1746, 545, 2091, 1111, 4619, -10766
0.190188, -1746, 545, 2091, 1111, 4619, -10766
0.190322, -1746, 545, 2091, 1111, 4619, -10766
0.190456, -4785, -176, 1697, 1583, 5074, -8722
0.190590, -4785, -176, 1697, 1583, 5074, -8722
0.190724, -4785, -176, 1697, 1583, 5074, -8722
0.190858, -4785, -176, 1697, 1583, 5074, -8722
0.190991, -4785, -176, 1697, 1583, 5074, -8722
0.191125, -4785, -176, 1697, 1583, 5074, -8722
0.191259, -4785, -176, 1697, 1583, 5074, -8722
0.191393, -8058, -858, 166, 1071, 4547, -4842
0.191527, -8058, -858, 166, 1071, 4547, -4842
0.191661, -8058, -858, 166, 1071, 4547, -4842
0.191795, -8058, -858, 166, 1071, 4547, -4842
0.191929, -8058, -858, 166, 1071, 4547, -4842
0.192063, -8058, -858, 166, 1071, 4547, -4842
0.192197, -8058, -858, 166, 1071, 4547, -4842
0.192331, -8058, -858, 166, 1071, 4547, -4842
0.192465, -10108, -1301, 1005, 74, 3032, 848
0.192599, -10108, -1301, 1005, 74, 3032, 848
0.192733, -10108, -1301, 1005, 74, 3032, 848
0.192867, -10108, -1301, 1005, 74, 3032, 848
0.193001, -10108, -1301, 1005, 74, 3032, 848
0.193134, -10108, -1301, 1005, 74, 3032, 848
0.193268, -10108, -1301, 1005, 74, 3032, 848
0.193402, -4752, -205, 3006, -154, 936, 6194
0.193536, -4752, -205, 3006, -154, 936, 6194
0.193670, -4752, -205, 3006, -154, 936, 6194
0.193804, -4752, -205, 3006, -154, 936, 6194
0.193938, -4752, -205, 3006, -154, 936, 6194
0.194073, -4752, -205, 3006, -154, 936, 6194
0.194208, -4752, -205, 3006, -154, 936, 6194
0.194342, -4752, -205, 3006, -154, 936, 6194
0.194477, 548, 428, 2799, -423, -1079, 7564
0.194611, 548, 428, 2799, -423, -1079, 7564
0.194746, 548, 428, 2799, -423, -1079, 7564
0.194880, 548, 428, 2799, -423, -1079, 7564
0.195015, 548, 428, 2799, -423, -1079, 7564
0.195149, 548, 428, 2799, -423, -1079, 7564
0.195284, 548, 428, 2799, -423, -1079, 7564
0.195418, 548, 428, 2799, -423, -1079, 7564
0.195553, 83, 10, 2233, -1233, -2641, 6766
0.195688, 83, 10, 2233, -1233, -2641, 6766
0.195822, 83, 10, 2233, -1233, -2641, 6766
0.195957, 83, 10, 2233, -1233, -2641, 6766
0.196091, 83, 10, 2233, -1233, -2641, 6766
0.196226, 83, 10, 2233, -1233, -2641, 6766
0.196360, 83, 10, 2233, -1233, -2641, 6766
0.196495, -523, 57, 2260, -1834, -3590, 6600
0.196630, -523, 57, 2260, -1834, -3590, 6600
0.196764, -523, 57, 2260, -1834, -3590, 6600
0.196903, -523, 57, 2260, -1834, -3590, 6600
0.197038, -523, 57, 2260, -1834, -3590, 6600
0.197173, -523, 57, 2260, -1834, -3590, 6600
0.197307, -523, 57, 2260, -1834, -3590, 6600
0.197442, -523, 57, 2260, -1834, -3590, 6600
0.197576, -212, 134, 2218, -2107, -4145, 6507
0.197711, -212, 134, 2218, -2107, -4145, 6507
0.197845, -212, 134, 2218, -2107, -4145, 6507
0.197980, -212, 134, 2218, -2107, -4145, 6507
0.198115, -212, 134, 2218, -2107, -4145, 6507
0.198249, -212, 134, 2218, -2107, -4145, 6507
0.198384, -212, 134, 2218, -2107, -4145, 6507
0.198518, -195, 54, 2025, -2149, -4754, 6119
0.198653, -195, 54, 2025, -2149, -4754, 6119
0.198788, -195, 54, 2025, -2149, -4754, 6119
0.198922, -195, 54, 2025, -2149, -4754, 6119
0.199057, -195, 54, 2025, -2149, -4754, 6119
0.199191, -195, 54, 2025, -2149, -4754, 6119
0.199326, -195, 54, 2025, -2149, -4754, 6119
0.199460, -195, 54, 2025, -2149, -4754, 6119
0.199595, -99, 56, 2034, -2109, -4975, 5797
0.199730, -99, 56, 2034, -2109, -4975, 5797
0.199864, -99, 56, 2034, -2109, -4975, 5797
0.199999, -99, 56, 2034, -2109, -4975, 5797
0.200133, -99, 56, 2034, -2109, -4975, 5797
0.200268, -99, 56, 2034, -2109, -4975, 5797
0.200402, -99, 56, 2034, -2109, -4975, 5797
0.200537, 61, 96, 2115, -2219, -4433, 5644
0.200671, 61, 96, 2115, -2219, -4433, 5644
0.200806, 61, 96, 2115, -2219, -4433, 5644
0.200940, 61, 96, 2115, -2219, -4433, 5644
0.201075, 61, 96, 2115, -2219, -4433, 5644
0.201209, 61, 96, 2115, -2219, -4433, 5644
0.201344, 61, 96, 2115, -2219, -4433, 5644
0.201478, 61, 96, 2115, -2219, -4433, 5644
0.201613, 127, 87, 2078, -2429, -3390, 5554
0.201748, 127, 87, 2078, -2429, -3390, 5554
0.201882, 127, 87, 2078, -2429, -3390, 5554
0.202017, 127, 87, 2078, -2429, -3390, 5554
0.202151, 127, 87, 2078, -2429, -3390, 5554
0.202286, 127, 87, 2078, -2429, -3390, 5554
0.202420, 127, 87, 2078, -2429, -3390, 5554
0.202555, 182, 81, 2082, -2644, -2108, 5455
0.202689, 182, 81, 2082, -2644, -2108, 5455
0.202824, 182, 81, 2082, -2644, -2108, 5455
0.202959, 182, 81, 2082, -2644, -2108, 5455
0.203093, 182, 81, 2082, -2644, -2108, 5455
0.203227, 182, 81, 2082, -2644, -2108, 5455
0.203362, 182, 81, 2082, -2644, -2108, 5455
0.203496, 182, 81, 2082, -2644, -2108, 5455
0.203631, 344, 85, 2127, -2902, -1002, 5346
0.203766, 344, 85, 2127, -2902, -1002, 5346
0.203900, 344, 85, 2127, -2902, -1002, 5346
0.204035, 344, 85, 2127, -2902, -1002, 5346
0.204169, 344, 85, 2127, -2902, -1002, 5346
0.204304, 344, 85, 2127, -2902, -1002, 5346
0.204438, 344, 85, 2127, -2902, -1002, 5346
0.204573, 1109, 68, 2100, -3171, -326, 5064
0.204708, 1109, 68, 2100, -3171, -326, 5064
0.204842, 1109, 68, 2100, -3171, -326, 5064
0.204977, 1109, 68, 2100, -3171, -326, 5064
0.205111, 1109, 68, 2100, -3171, -326, 5064
0.205246, 1109, 68, 2100, -3171, -326, 5064
0.205380, 1109, 68, 2100, -3171, -326, 5064
0.205515, 1109, 68, 2100, -3171, -326, 5064
0.205649, 4360, 360, 2222, -3331, 101, 3906
0.205784, 4360, 360, 2222, -3331, 101, 3906
0.205918, 4360, 360, 2222, -3331, 101, 3906
0.206054, 4360, 360, 2222, -3331, 101, 3906
0.206188, 4360, 360, 2222, -3331, 101, 3906
0.206321, 4360, 360, 2222, -3331, 101, 3906
0.206455, 4360, 360, 2222, -3331, 101, 3906
0.206589, 11944, 1673, 2913, -3192, 639, -226
0.206723, 11944, 1673, 2913, -3192, 639, -226
0.206857, 11944, 1673, 2913, -3192, 639, -226
0.206991, 11944, 1673, 2913, -3192, 639, -226
0.207125, 11944, 1673, 2913, -3192, 639, -226
0.207259, 11944, 1673, 2913, -3192, 639, -226
0.207393, 11944, 1673, 2913, -3192, 639, -226
0.207527, 11944, 1673, 2913, -3192, 639, -226
0.207660, 13743, 1869, 3225, -2628, 1975, -8313
0.207794, 13743, 1869, 3225, -2628, 1975, -8313
0.207928, 13743, 1869, 3225, -2628, 1975, -8313
0.208062, 13743, 1869, 3225, -2628, 1975, -8313
0.208196, 13743, 1869, 3225, -2628, 1975, -8313
0.208330, 13743, 1869, 3225, -2628, 1975, -8313
0.208464, 13743, 1869, 3225, -2628, 1975, -8313
0.208598, 13743, 1869, 3225, -2628, 1975, -8313
0.208732, 4955, 832, 565, -2140, 4035, -14948
0.208866, 4955, 832, 565, -2140, 4035, -14948
0.209000, 4955, 832, 565, -2140, 4035, -14948
0.209141, 4955, 832, 565, -2140, 4035, -14948
0.209276, 4955, 832, 565, -2140, 4035, -14948
0.209410, 4955, 832, 565, -2140, 4035, -14948
0.209545, 4955, 832, 565, -2140, 4035, -14948
0.209679, 1271, 1002, -1772, -2438, 5662, -16514
0.209814, 1271, 1002, -1772, -2438, 5662, -16514
0.209948, 1271, 1002, -1772, -2438, 5662, -16514
0.210083, 1271, 1002, -1772, -2438, 5662, -16514
0.210217, 1271, 1002, -1772, -2438, 5662, -16514
0.210352, 1271, 1002, -1772, -2438, 5662, -16514
0.210486, 1271, 1002, -1772, -2438, 5662, -16514
0.210621, 1271, 1002, -1772, -2438, 5662, -16514
0.210755, 800, -879, 1591, -2281, 6820, -17160
0.210890, 800, -879, 1591, -2281, 6820, -17160
0.211025, 800, -879, 1591, -2281, 6820, -17160
0.211159, 800, -879, 1591, -2281, 6820, -17160
0.211294, 800, -879, 1591, -2281, 6820, -17160
0.211428, 800, -879, 1591, -2281, 6820, -17160
0.211563, 800, -879, 1591, -2281, 6820, -17160
0.211697, -6318, -2967, 3833, -420, 7516, -16288
0.211832, -6318, -2967, 3833, -420, 7516, -16288
0.211967, -6318, -2967, 3833, -420, 7516, -16288
0.212101, -6318, -2967, 3833, -420, 7516, -16288
0.212236, -6318, -2967, 3833, -420, 7516, -16288
0.212370, -6318, -2967, 3833, -420, 7516, -16288
0.212505, -6318, -2967, 3833, -420, 7516, -16288
0.212640, -6318, -2967, 3833, -420, 7516, -16288
0.212774, -9553, -1081, 664, 868, 6950, -10954
0.212909, -9553, -1081, 664, 868, 6950, -10954
0.213043, -9553, -1081, 664, 868, 6950, -10954
0.213178, -9553, -1081, 664, 868, 6950, -10954
0.213312, -9553, -1081, 664, 868, 6950, -10954
0.213447, -9553, -1081, 664, 868, 6950, -10954
0.213582, -9553, -1081, 664, 868, 6950, -10954
0.213716, -5211, 728, -557, -94, 5675, -5328
0.213851, -5211, 728, -557, -94, 5675, -5328
0.213985, -5211, 728, -557, -94, 5675, -5328
0.214120, -5211, 728, -557, -94, 5675, -5328
0.214255, -5211, 728, -557, -94, 5675, -5328
0.214389, -5211, 728, -557, -94, 5675, -5328
0.214524, -5211, 728, -557, -94, 5675, -5328
0.214659, -5211, 728, -557, -94, 5675, -5328
0.214793, -1977, 401, 1302, -1747, 4258, -2750
0.214928, -1977, 401, 1302, -1747, 4258, -2750
0.215062, -1977, 401, 1302, -1747, 4258, -2750
0.215197, -1977, 401, 1302, -1747, 4258, -2750
0.215331, -1977, 401, 1302, -1747, 4258, -2750
0.215466, -1977, 401, 1302, -1747, 4258, -2750
0.215601, -1977, 401, 1302, -1747, 4258, -2750
0.215735, -1321, -625, 3622, -2296, 2586, -1660
0.215870, -1321, -625, 3622, -2296, 2586, -1660
0.216004, -1321, -625, 3622, -2296, 2586, -1660
0.216139, -1321, -625, 3622, -2296, 2586, -1660
0.216274, -1321, -625, 3622, -2296, 2586, -1660
0.216408, -1321, -625, 3622, -2296, 2586, -1660
0.216543, -1321, -625, 3622, -2296, 2586, -1660
0.216677, -1321, -625, 3622, -2296, 2586, -1660
0.216812, 442, -456, 4843, -1241, 1174, -1047
0.216946, 442, -456, 4843, -1241, 1174, -1047
0.217081, 442, -456, 4843, -1241, 1174, -1047
0.217215, 442, -456, 4843, -1241, 1174, -1047
0.217350, 442, -456, 4843, -1241, 1174, -1047
0.217485, 442, -456, 4843, -1241, 1174, -1047
0.217619, 442, -456, 4843, -1241, 1174, -1047
0.217754, 1827, 568, 2998, -75, 283, -1717
0.217888, 1827, 568, 2998, -75, 283, -1717
0.218023, 1827, 568, 2998, -75, 283, -1717
0.218158, 1827, 568, 2998, -75, 283, -1717
0.218292, 1827, 568, 2998, -75, 283, -1717
0.218427, 1827, 568, 2998, -75, 283, -1717
0.218562, 1827, 568, 2998, -75, 283, -1717
0.218696, 1827, 568, 2998, -75, 283, -1717
0.218831, 310, 237, 1581, -8, -398, -2891
0.218965, 310, 237, 1581, -8, -398, -2891
0.219100, 310, 237, 1581, -8, -398, -2891
0.219234, 310, 237, 1581, -8, -398, -2891
0.219369, 310, 237, 1581, -8, -398, -2891
0.219503, 310, 237, 1581, -8, -398, -2891
0.219637, 310, 237, 1581, -8, -398, -2891
0.219772, -1175, -313, 2408, 116, -838, -3034
0.219906, -1175, -313, 2408, 116, -838, -3034
0.220041, -1175, -313, 2408, 116, -838, -3034
0.220175, -1175, -313, 2408, 116, -838, -3034
0.220310, -1175, -313, 2408, 116, -838, -3034
0.220444, -1175, -313, 2408, 116, -838, -3034
0.220578, -1175, -313, 2408, 116, -838, -3034
0.220713, -1175, -313, 2408, 116, -838, -3034
0.220847, -2125, -316, 2449, 669, -963, -2356
0.220982, -2125, -316, 2449, 669, -963, -2356
0.221120, -2125, -316, 2449, 669, -963, -2356
0.221255, -2125, -316, 2449, 669, -963, -2356
0.221389, -2125, -316, 2449, 669, -963, -2356
0.221524, -2125, -316, 2449, 669, -963, -2356
0.221658, -2125, -316, 2449, 669, -963, -2356
0.221793, -3192, -425, 1716, 769, -1116, -1031
0.221928, -3192, -425, 1716, 769, -1116, -1031
0.222062, -3192, -425, 1716, 769, -1116, -1031
0.222197, -3192, -425, 1716, 769, -1116, -1031
0.222331, -3192, -425, 1716, 769, -1116, -1031
0.222466, -3192, -425, 1716, 769, -1116, -1031
0.222600, -3192, -425, 1716, 769, -1116, -1031
0.222735, -3192, -425, 1716, 769, -1116, -1031
0.222869, -3196, -514, 1940, 511, -1174, 685
0.223004, -3196, -514, 1940, 511, -1174, 685
0.223138, -3196, -514, 1940, 511, -1174, 685
0.223272, -3196, -514, 1940, 511, -1174, 685
0.223407, -3196, -514, 1940, 511, -1174, 685
0.223541, -3196, -514, 1940, 511, -1174, 685
0.223676, -3196, -514, 1940, 511, -1174, 685
0.223810, -2647, -316, 2410, 117, -917, 2391
0.223945, -2647, -316, 2410, 117, -917, 2391
0.224079, -2647, -316, 2410, 117, -917, 2391
0.224214, -2647, -316, 2410, 117, -917, 2391
0.224348, -2647, -316, 2410, 117, -917, 2391
0.224483, -2647, -316, 2410, 117, -917, 2391
0.224617, -2647, -316, 2410, 117, -917, 2391
0.224751, -2647, -316, 2410, 117, -917, 2391
0.224886, 488, 132, 2193, -486, -758, 3405
0.225020, 488, 132, 2193, -486, -758, 3405
0.225155, 488, 132, 2193, -486, -758, 3405
0.225289, 488, 132, 2193, -486, -758, 3405
0.225424, 488, 132, 2193, -486, -758, 3405
0.225558, 488, 132, 2193, -486, -758, 3405
0.225693, 488, 132, 2193, -486, -758, 3405
0.225827, 488, 132, 2193, -486, -758, 3405
0.225962, 4178, 409, 1773, -1321, -581, 2087
0.226097, 4178, 409, 1773, -1321, -581, 2087
0.226231, 4178, 409, 1773, -1321, -581, 2087
0.226366, 4178, 409, 1773, -1321, -581, 2087
0.226500, 4178, 409, 1773, -1321, -581, 2087
0.226634, 4178, 409, 1773, -1321, -581, 2087
0.226769, 4178, 409, 1773, -1321, -581, 2087
0.226903, 4123, 389, 2044, -2129, 7, -826
0.227038, 4123, 389, 2044, -2129, 7, -826
0.227172, 4123, 389, 2044, -2129, 7, -826
0.227307, 4123, 389, 2044, -2129, 7, -826
0.227441, 4123, 389, 2044, -2129, 7, -826
0.227576, 4123, 389, 2044, -2129, 7, -826
0.227710, 4123, 389, 2044, -2129, 7, -826
0.227845, 4123, 389, 2044, -2129, 7, -826
0.227979, 2486, 241, 2533, -2254, 881, -3122
0.228114, 2486, 241, 2533, -2254, 881, -3122
0.228249, 2486, 241, 2533, -2254, 881, -3122
0.228383, 2486, 241, 2533, -2254, 881, -3122
0.228518, 2486, 241, 2533, -2254, 881, -3122
0.228652, 2486, 241, 2533, -2254, 881, -3122
0.228787, 2486, 241, 2533, -2254, 881, -3122
0.228921, 962, 57, 1867, -1889, 1908, -4355
0.229056, 962, 57, 1867, -1889, 1908, -4355
0.229190, 962, 57, 1867, -1889, 1908, -4355
0.229325, 962, 57, 1867, -1889, 1908, -4355
0.229460, 962, 57, 1867, -1889, 1908, -4355
0.229594, 962, 57, 1867, -1889, 1908, -4355
0.229729, 962, 57, 1867, -1889, 1908, -4355
0.229863, 962, 57, 1867, -1889, 1908, -4355
0.229998, -192, -54, 1501, -1657, 2723, -4688
0.230133, -192, -54, 1501, -1657, 2723, -4688
0.230267, -192, -54, 1501, -1657, 2723, -4688
0.230402, -192, -54, 1501, -1657, 2723, -4688
0.230536, -192, -54, 1501, -1657, 2723, -4688
0.230671, -192, -54, 1501, -1657, 2723, -4688
0.230805, -192, -54, 1501, -1657, 2723, -4688
0.230940, 155, 114, 2428, -1330, 3078, -4568
0.231075, 155, 114, 2428, -1330, 3078, -4568
0.231209, 155, 114, 2428, -1330, 3078, -4568
0.231344, 155, 114, 2428, -1330, 3078, -4568
0.231478, 155, 114, 2428, -1330, 3078, -4568
0.231613, 155, 114, 2428, -1330, 3078, -4568
0.231747, 155, 114, 2428, -1330, 3078, -4568
0.231882, 155, 114, 2428, -1330, 3078, -4568
0.232017, 607, 226, 2416, -809, 3269, -4749
0.232151, 607, 226, 2416, -809, 3269, -4749
0.232286, 607, 226, 2416, -809, 3269, -4749
0.232420, 607, 226, 2416, -809, 3269, -4749
0.232555, 607, 226, 2416, -809, 3269, -4749
0.232690, 607, 226, 2416, -809, 3269, -4749
0.232824, 607, 226, 2416, -809, 3269, -4749
0.232959, -656, 21, 1439, -645, 3351, -4835
0.233093, -656, 21, 1439, -645, 3351, -4835
0.233228, -656, 21, 1439, -645, 3351, -4835
0.233362, -656, 21, 1439, -645, 3351, -4835
0.233501, -656, 21, 1439, -645, 3351, -4835
0.233636, -656, 21, 1439, -645, 3351, -4835
0.233770, -656, 21, 1439, -645, 3351, -4835
0.233904, -656, 21, 1439, -645, 3351, -4835
0.234039, -1963, -76, 1623, -783, 3280, -3957
0.234174, -1963, -76, 1623, -783, 3280, -3957
0.234308, -1963, -76, 1623, -783, 3280, -3957
0.234443, -1963, -76, 1623, -783, 3280, -3957
0.234577, -1963, -76, 1623, -783, 3280, -3957
0.234712, -1963, -76, 1623, -783, 3280, -3957
0.234846, -1963, -76, 1623, -783, 3280, -3957
0.234981, -1088, 213, 2329, -668, 3063, -2629
0.235115, -1088, 213, 2329, -668, 3063, -2629
0.235250, -1088, 213, 2329, -668, 3063, -2629
0.235384, -1088, 213, 2329, -668, 3063, -2629
0.235519, -1088, 213, 2329, -668, 3063, -2629
0.235653, -1088, 213, 2329, -668, 3063, -2629
0.235788, -1088, 213, 2329, -668, 3063, -2629
0.235923, -1088, 213, 2329, -668, 3063, -2629
0.236057, 748, 469, 1999, -467, 2537, -2199
0.236192, 748, 469, 1999, -467, 2537, -2199
0.236326, 748, 469, 1999, -467, 2537, -2199
0.236461, 748, 469, 1999, -467, 2537, -2199
0.236595, 748, 469, 1999, -467, 2537, -2199
0.236730, 748, 469, 1999, -467, 2537, -2199
0.236864, 748, 469, 1999, -467, 2537, -2199
0.236999, 955, 295, 1542, -560, 1911, -2733
0.237133, 955, 295, 1542, -560, 1911, -2733
0.237268, 955, 295, 1542, -560, 1911, -2733
0.237402, 955, 295, 1542, -560, 1911, -2733
0.237537, 955, 295, 1542, -560, 1911, -2733
0.237671, 955, 295, 1542, -560, 1911, -2733
0.237806, 955, 295, 1542, -560, 1911, -2733
0.237940, 955, 295, 1542, -560, 1911, -2733
0.238075, -348, -17, 1968, -670, 1569, -2990
0.238210, -348, -17, 1968, -670, 1569, -2990
0.238345, -348, -17, 1968, -670, 1569, -2990
0.238479, -348, -17, 1968, -670, 1569, -2990
0.238614, -348, -17, 1968, -670, 1569, -2990
0.238748, -348, -17, 1968, -670, 1569, -2990
0.238883, -348, -17, 1968, -670, 1569, -2990
0.239017, -1115, -37, 2366, -354, 1389, -2434
0.239152, -1115, -37, 2366, -354, 1389, -2434
0.239286, -1115, -37, 2366, -354, 1389, -2434
0.239421, -1115, -37, 2366, -354, 1389, -2434
0.239555, -1115, -37, 2366, -354, 1389, -2434
0.239690, -1115, -37, 2366, -354, 1389, -2434
0.239824, -1115, -37, 2366, -354, 1389, -2434
0.239959, -1115, -37, 2366, -354, 1389, -2434
0.240093, -510, 198, 2059, 138, 1092, -1795
0.240228, -510, 198, 2059, 138, 1092, -1795
0.240362, -510, 198, 2059, 138, 1092, -1795
0.240497, -510, 198, 2059, 138, 1092, -1795
0.240631, -510, 198, 2059, 138, 1092, -1795
0.240766, -510, 198, 2059, 138, 1092, -1795
0.240901, -510, 198, 2059, 138, 1092, -1795
0.241035, -510, 198, 2059, 138, 1092, -1795
0.241169, 341, 304, 1868, 320, 733, -1752
0.241304, 341, 304, 1868, 320, 733, -1752
0.241439, 341, 304, 1868, 320, 733, -1752
0.241573, 341, 304, 1868, 320, 733, -1752
0.241708, 341, 304, 1868, 320, 733, -1752
0.241842, 341, 304, 1868, 320, 733, -1752
0.241977, 341, 304, 1868, 320, 733, -1752
0.242112, 1, 247, 1974, 278, 525, -1967
0.242246, 1, 247, 1974, 278, 525, -1967
0.242381, 1, 247, 1974, 278, 525, -1967
0.242515, 1, 247, 1974, 278, 525, -1967
0.242650, 1, 247, 1974, 278, 525, -1967
0.242784, 1, 247, 1974, 278, 525, -1967
0.242919, 1, 247, 1974, 278, 525, -1967
0.243053, 1, 247, 1974, 278, 525, -1967
0.243188, -572, 243, 1777, 198, 524, -1779
0.243322, -572, 243, 1777, 198, 524, -1779
0.243457, -572, 243, 1777, 198, 524, -1779
0.243591, -572, 243, 1777, 198, 524, -1779
0.243726, -572, 243, 1777, 198, 524, -1779
0.243860, -572, 243, 1777, 198, 524, -1779
0.243995, -572, 243, 1777, 198, 524, -1779
0.244129, 130, 293, 1889, 105, 663, -1497
0.244264, 130, 293, 1889, 105, 663, -1497
0.244398, 130, 293, 1889, 105, 663, -1497
0.244533, 130, 293, 1889, 105, 663, -1497
0.244667, 130, 293, 1889, 105, 663, -1497
0.244802, 130, 293, 1889, 105, 663, -1497
0.244936, 130, 293, 1889, 105, 663, -1497
0.245071, 130, 293, 1889, 105, 663, -1497
0.245205, 1136, 484, 2098, 73, 897, -1787
0.245340, 1136, 484, 2098, 73, 897, -1787
0.245475, 1136, 484, 2098, 73, 897, -1787
0.245609, 1136, 484, 2098, 73, 897, -1787
0.245744, 1136, 484, 2098, 73, 897, -1787
0.245878, 1136, 484, 2098, 73, 897, -1787
0.246017, 1136, 484, 2098, 73, 897, -1787
0.246152, 1065, 497, 1353, -223, 1139, -2511
0.246287, 1065, 497, 1353, -223, 1139, -2511
0.246421, 1065, 497, 1353, -223, 1139, -2511
0.246556, 1065, 497, 1353, -223, 1139, -2511
0.246690, 1065, 497, 1353, -223, 1139, -2511
0.246825, 1065, 497, 1353, -223, 1139, -2511
0.246959, 1065, 497, 1353, -223, 1139, -2511
0.247094, 1065, 497, 1353, -223, 1139, -2511
0.247228, -175, -134, 1552, -776, 1395, -2955
0.247363, -175, -134, 1552, -776, 1395, -2955
0.247497, -175, -134, 1552, -776, 1395, -2955
0.247632, -175, -134, 1552, -776, 1395, -2955
0.247766, -175, -134, 1552, -776, 1395, -2955
0.247901, -175, -134, 1552, -776, 1395, -2955
0.248035, -175, -134, 1552, -776, 1395, -2955
0.248170, -312, -339, 3489, -473, 1792, -2686
0.248305, -312, -339, 3489, -473, 1792, -2686
0.248439, -312, -339, 3489, -473, 1792, -2686
0.248574, -312, -339, 3489, -473, 1792, -2686
0.248708, -312, -339, 3489, -473, 1792, -2686
0.248843, -312, -339, 3489, -473, 1792, -2686
0.248977, -312, -339, 3489, -473, 1792, -2686
0.249112, -312, -339, 3489, -473, 1792, -2686
0.249246, 2082, 300, 3888, 670, 2158, -2973
0.249381, 2082, 300, 3888, 670, 2158, -2973
0.249515, 2082, 300, 3888, 670, 2158, -2973
0.249650, 2082, 300, 3888, 670, 2158, -2973
0.249785, 2082, 300, 3888, 670, 2158, -2973
0.249919, 2082, 300, 3888, 670, 2158, -2973
0.250054, 2082, 300, 3888, 670, 2158, -2973
0.250189, 103, -267, 2784, 1417, 2412, -4442
0.250323, 103, -267, 2784, 1417, 2412, -4442
0.250458, 103, -267, 2784, 1417, 2412, -4442
0.250592, 103, -267, 2784, 1417, 2412, -4442
0.250727, 103, -267, 2784, 1417, 2412, -4442
0.250861, 103, -267, 2784, 1417, 2412, -4442
0.250996, 103, -267, 2784, 1417, 2412, -4442
0.251130, 103, -267, 2784, 1417, 2412, -4442
0.251265, -8798, -1743, 1605, 1528, 2558, -2978
0.251400, -8798, -1743, 1605, 1528, 2558, -2978
0.251534, -8798, -1743, 1605, 1528, 2558, -2978
0.251669, -8798, -1743, 1605, 1528, 2558, -2978
0.251803, -8798, -1743, 1605, 1528, 2558, -2978
0.251938, -8798, -1743, 1605, 1528, 2558, -2978
0.252072, -8798, -1743, 1605, 1528, 2558, -2978
0.252207, -10223, -1431, 516, 1020, 1757, 3222
0.252342, -10223, -1431, 516, 1020, 1757, 3222
0.252476, -10223, -1431, 516, 1020, 1757, 3222
0.252611, -10223, -1431, 516, 1020, 1757, 3222
0.252745, -10223, -1431, 516, 1020, 1757, 3222
0.252880, -10223, -1431, 516, 1020, 1757, 3222
0.253014, -10223, -1431, 516, 1020, 1757, 3222
0.253149, -10223, -1431, 516, 1020, 1757, 3222
0.253283, -2072, -80, 1525, 121, -216, 7696
0.253418, -2072, -80, 1525, 121, -216, 7696
0.253553, -2072, -80, 1525, 121, -216, 7696
0.253687, -2072, -80, 1525, 121, -216, 7696
0.253822, -2072, -80, 1525, 121, -216, 7696
0.253956, -2072, -80, 1525, 121, -216, 7696
0.254091, -2072, -80, 1525, 121, -216, 7696
0.254226, 1160, 246, 2833, -645, -2022, 7412
0.254360, 1160, 246, 2833, -645, -2022, 7412
0.254495, 1160, 246, 2833, -645, -2022, 7412
0.254629, 1160, 246, 2833, -645, -2022, 7412
0.254764, 1160, 246, 2833, -645, -2022, 7412
0.254898, 1160, 246, 2833, -645, -2022, 7412
0.255033, 1160, 246, 2833, -645, -2022, 7412
0.255168, 1160, 246, 2833, -645, -2022, 7412
0.255302, -298, 11, 2394, -1298, -2854, 6590
0.255437, -298, 11, 2394, -1298, -2854, 6590
0.255571, -298, 11, 2394, -1298, -2854, 6590
0.255706, -298, 11, 2394, -1298, -2854, 6590
0.255840, -298, 11, 2394, -1298, -2854, 6590
0.255975, -298, 11, 2394, -1298, -2854, 6590
0.256109, -298, 11, 2394, -1298, -2854, 6590
0.256244, -269, 3, 2041, -1756, -2899, 6735
0.256379, -269, 3, 2041, -1756, -2899, 6735
0.256513, -269, 3, 2041, -1756, -2899, 6735
0.256648, -269, 3, 2041, -1756, -2899, 6735
0.256782, -269, 3, 2041, -1756, -2899, 6735
0.256917, -269, 3, 2041, -1756, -2899, 6735
0.257051, -269, 3, 2041, -1756, -2899, 6735
0.257186, -269, 3, 2041, -1756, -2899, 6735
0.257320, 31, 49, 2128, -1914, -2611, 6681
0.257455, 31, 49, 2128, -1914, -2611, 6681
0.257589, 31, 49, 2128, -1914, -2611, 6681
0.257724, 31, 49, 2128, -1914, -2611, 6681
0.257858, 31, 49, 2128, -1914, -2611, 6681
0.257993, 31, 49, 2128, -1914, -2611, 6681
0.258127, 31, 49, 2128, -1914, -2611, 6681
0.258267, 31, 49, 2128, -1914, -2611, 6681
0.258402, -86, 8, 2025, -1865, -2647, 6491
0.258537, -86, 8, 2025, -1865, -2647, 6491
0.258672, -86, 8, 2025, -1865, -2647, 6491
0.258806, -86, 8, 2025, -1865, -2647, 6491
0.258941, -86, 8, 2025, -1865, -2647, 6491
0.259075, -86, 8, 2025, -1865, -2647, 6491
0.259210, -86, 8, 2025, -1865, -2647, 6491
0.259344, -49, 10, 1956, -1706, -2841, 6414
0.259479, -49, 10, 1956, -1706, -2841, 6414
0.259613, -49, 10, 1956, -1706, -2841, 6414
0.259748, -49, 10, 1956, -1706, -2841, 6414
0.259883, -49, 10, 1956, -1706, -2841, 6414
0.260017, -49, 10, 1956, -1706, -2841, 6414
0.260152, -49, 10, 1956, -1706, -2841, 6414
0.260286, -49, 10, 1956, -1706, -2841, 6414
0.260420, 53, 59, 2038, -1582, -2587, 6400
0.260555, 53, 59, 2038, -1582, -2587, 6400
0.260690, 53, 59, 2038, -1582, -2587, 6400
0.260824, 53, 59, 2038, -1582, -2587, 6400
0.260959, 53, 59, 2038, -1582, -2587, 6400
0.261093, 53, 59, 2038, -1582, -2587, 6400
0.261228, 53, 59, 2038, -1582, -2587, 6400
0.261362, 77, 63, 2055, -1505, -1944, 6414
0.261497, 77, 63, 2055, -1505, -1944, 6414
0.261632, 77, 63, 2055, -1505, -1944, 6414
0.261766, 77, 63, 2055, -1505, -1944, 6414
0.261901, 77, 63, 2055, -1505, -1944, 6414
0.262036, 77, 63, 2055, -1505, -1944, 6414
0.262170, 77, 63, 2055, -1505, -1944, 6414
0.262305, 77, 63, 2055, -1505, -1944, 6414
0.262439, 54, 51, 2055, -1452, -1135, 6441
0.262574, 54, 51, 2055, -1452, -1135, 6441
0.262709, 54, 51, 2055, -1452, -1135, 6441
0.262843, 54, 51, 2055, -1452, -1135, 6441
0.262978, 54, 51, 2055, -1452, -1135, 6441
0.263112, 54, 51, 2055, -1452, -1135, 6441
0.263247, 54, 51, 2055, -1452, -1135, 6441
0.263381, -6, 53, 2093, -1478, -428, 6493
0.263516, -6, 53, 2093, -1478, -428, 6493
0.263650, -6, 53, 2093, -1478, -428, 6493
0.263785, -6, 53, 2093, -1478, -428, 6493
0.263920, -6, 53, 2093, -1478, -428, 6493
0.264054, -6, 53, 2093, -1478, -428, 6493
0.264189, -6, 53, 2093, -1478, -428, 6493
0.264323, -6, 53, 2093, -1478, -428, 6493
0.264458, -77, 48, 2089, -1552, -94, 6553
0.264592, -77, 48, 2089, -1552, -94, 6553
0.264727, -77, 48, 2089, -1552, -94, 6553
0.264861, -77, 48, 2089, -1552, -94, 6553
0.264996, -77, 48, 2089, -1552, -94, 6553
0.265130, -77, 48, 2089, -1552, -94, 6553
0.265265, -77, 48, 2089, -1552, -94, 6553
0.265399, -121, 34, 2064, -1598, -50, 6582
0.265534, -121, 34, 2064, -1598, -50, 6582
0.265668, -121, 34, 2064, -1598, -50, 6582
0.265803, -121, 34, 2064, -1598, -50, 6582
0.265938, -121, 34, 2064, -1598, -50, 6582
0.266072, -121, 34, 2064, -1598, -50, 6582
0.266207, -121, 34, 2064, -1598, -50, 6582
0.266341, -121, 34, 2064, -1598, -50, 6582
0.266476, -143, 26, 2057, -1625, -145, 6591
0.266611, -143, 26, 2057, -1625, -145, 6591
0.266745, -143, 26, 2057, -1625, -145, 6591
0.266880, -143, 26, 2057, -1625, -145, 6591
0.267014, -143, 26, 2057, -1625, -145, 6591
0.267149, -143, 26, 2057, -1625, -145, 6591
0.267283, -143, 26, 2057, -1625, -145, 6591
0.267418, -157, 24, 2045, -1654, -351, 6595
0.267552, -157, 24, 2045, -1654, -351, 6595
0.267687, -157, 24, 2045, -1654, -351, 6595
0.267821, -157, 24, 2045, -1654, -351, 6595
0.267956, -157, 24, 2045, -1654, -351, 6595
0.268090, -157, 24, 2045, -1654, -351, 6595
0.268225, -157, 24, 2045, -1654, -351, 6595
0.268359, -157, 24, 2045, -1654, -351, 6595
0.268494, -158, 25, 2033, -1665, -634, 6585
0.268629, -158, 25, 2033, -1665, -634, 6585
0.268763, -158, 25, 2033, -1665, -634, 6585
0.268898, -158, 25, 2033, -1665, -634, 6585
0.269032, -158, 25, 2033, -1665, -634, 6585
0.269167, -158, 25, 2033, -1665, -634, 6585
0.269301, -158, 25, 2033, -1665, -634, 6585
0.269436, -149, 26, 2033, -1651, -959, 6551
0.269570, -149, 26, 2033, -1651, -959, 6551
0.269705, -149, 26, 2033, -1651, -959, 6551
0.269839, -149, 26, 2033, -1651, -959, 6551
0.269974, -149, 26, 2033, -1651, -959, 6551
0.270109, -149, 26, 2033, -1651, -959, 6551
0.270243, -149, 26, 2033, -1651, -959, 6551
0.270378, -149, 26, 2033, -1651, -959, 6551
0.270512, -133, 25, 2036, -1623, -1297, 6510
0.270647, -133, 25, 2036, -1623, -1297, 6510
0.270781, -133, 25, 2036, -1623, -1297, 6510
0.270916, -133, 25, 2036, -1623, -1297, 6510
0.271054, -133, 25, 2036, -1623, -1297, 6510
0.271189, -133, 25, 2036, -1623, -1297, 6510
0.271323, -133, 25, 2036, -1623, -1297, 6510
0.271458, -109, 25, 2038, -1587, -1591, 6483
0.271593, -109, 25, 2038, -1587, -1591, 6483
0.271727, -109, 25, 2038, -1587, -1591, 6483
0.271862, -109, 25, 2038, -1587, -1591, 6483
0.271996, -109, 25, 2038, -1587, -1591, 6483
0.272134, -109, 25, 2038, -1587, -1591, 6483
0.272272, -109, 25, 2038, -1587, -1591, 6483
0.272414, -109, 25, 2038, -1587, -1591, 6483
0.272552, -83, 23, 2042, -1543, -1776, 6472
0.272696, -83, 23, 2042, -1543, -1776, 6472
0.272832, -83, 23, 2042, -1543, -1776, 6472
0.272967, -83, 23, 2042, -1543, -1776, 6472
0.273103, -83, 23, 2042, -1543, -1776, 6472
0.273238, -83, 23, 2042, -1543, -1776, 6472
0.273376, -83, 23, 2042, -1543, -1776, 6472
0.273515, -66, 21, 2043, -1502, -1836, 6481
0.273651, -66, 21, 2043, -1502, -1836, 6481
0.273788, -66, 21, 2043, -1502, -1836, 6481
0.273925, -66, 21, 2043, -1502, -1836, 6481
0.274064, -66, 21, 2043, -1502, -1836, 6481
0.274203, -66, 21, 2043, -1502, -1836, 6481
0.274339, -66, 21, 2043, -1502, -1836, 6481
0.274475, -66, 21, 2043, -1502, -1836, 6481
0.274612, -61, 24, 2045, -1478, -1795, 6501
0.274750, -61, 24, 2045, -1478, -1795, 6501
0.274890, -61, 24, 2045, -1478, -1795, 6501
0.275027, -61, 24, 2045, -1478, -1795, 6501
0.275162, -61, 24, 2045, -1478, -1795, 6501
0.275297, -61, 24, 2045, -1478, -1795, 6501
0.275432, -61, 24, 2045, -1478, -1795, 6501
0.275567, -62, 32, 2053, -1478, -1692, 6515
0.275705, -62, 32, 2053, -1478, -1692, 6515
0.275841, -62, 32, 2053, -1478, -1692, 6515
0.275976, -62, 32, 2053, -1478, -1692, 6515
0.276110, -62, 32, 2053, -1478, -1692, 6515
0.276247, -62, 32, 2053, -1478, -1692, 6515
0.276383, -62, 32, 2053, -1478, -1692, 6515
0.276517, -66, 35, 2064, -1503, -1550, 6513
0.276654, -66, 35, 2064, -1503, -1550, 6513
0.276790, -66, 35, 2064, -1503, -1550, 6513
0.276925, -66, 35, 2064, -1503, -1550, 6513
0.277060, -66, 35, 2064, -1503, -1550, 6513
0.277198, -66, 35, 2064, -1503, -1550, 6513
0.277336, -66, 35, 2064, -1503, -1550, 6513
0.277471, -66, 35, 2064, -1503, -1550, 6513
0.277607, -70, 33, 2075, -1542, -1400, 6496
0.277748, -70, 33, 2075, -1542, -1400, 6496
0.277886, -70, 33, 2075, -1542, -1400, 6496
0.278023, -70, 33, 2075, -1542, -1400, 6496
0.278159, -70, 33, 2075, -1542, -1400, 6496
0.278296, -70, 33, 2075, -1542, -1400, 6496
0.278431, -70, 33, 2075, -1542, -1400, 6496
0.278566, -73, 35, 2090, -1596, -1308, 6462
0.278703, -73, 35, 2090, -1596, -1308, 6462
0.278842, -73, 35, 2090, -1596, -1308, 6462
0.278978, -73, 35, 2090, -1596, -1308, 6462
0.279113, -73, 35, 2090, -1596, -1308, 6462
0.279249, -73, 35, 2090, -1596, -1308, 6462
0.279387, -73, 35, 2090, -1596, -1308, 6462
0.279524, -73, 35, 2090, -1596, -1308, 6462
0.279662, -76, 35, 2102, -1658, -1299, 6408
0.279799, -76, 35, 2102, -1658, -1299, 6408
0.279937, -76, 35, 2102, -1658, -1299, 6408
0.280077, -76, 35, 2102, -1658, -1299, 6408
0.280214, -76, 35, 2102, -1658, -1299, 6408
0.280350, -76, 35, 2102, -1658, -1299, 6408
0.280484, -76, 35, 2102, -1658, -1299, 6408
0.280619, -73, 27, 2105, -1713, -1326, 6330
0.280754, -73, 27, 2105, -1713, -1326, 6330
0.280889, -73, 27, 2105, -1713, -1326, 6330
0.281023, -73, 27, 2105, -1713, -1326, 6330
0.281158, -73, 27, 2105, -1713, -1326, 6330
0.281292, -73, 27, 2105, -1713, -1326, 6330
0.281426, -73, 27, 2105, -1713, -1326, 6330
0.281561, -73, 27, 2105, -1713, -1326, 6330
0.281695, -58, 20, 2107, -1760, -1368, 6245
0.281830, -58, 20, 2107, -1760, -1368, 6245
0.281964, -58, 20, 2107, -1760, -1368, 6245
0.282099, -58, 20, 2107, -1760, -1368, 6245
0.282234, -58, 20, 2107, -1760, -1368, 6245
0.282370, -58, 20, 2107, -1760, -1368, 6245
0.282504, -58, 20, 2107, -1760, -1368, 6245
0.282639, -20, 17, 2121, -1810, -1437, 6160
0.282774, -20, 17, 2121, -1810, -1437, 6160
0.282908, -20, 17, 2121, -1810, -1437, 6160
0.283042, -20, 17, 2121, -1810, -1437, 6160
0.283177, -20, 17, 2121, -1810, -1437, 6160
0.283311, -20, 17, 2121, -1810, -1437, 6160
0.283445, -20, 17, 2121, -1810, -1437, 6160
0.283580, -20, 17, 2121, -1810, -1437, 6160
0.283739, 21, 13, 2131, -1848, -1507, 6055
0.283879, 21, 13, 2131, -1848, -1507, 6055
0.284013, 21, 13, 2131, -1848, -1507, 6055
0.284148, 21, 13, 2131, -1848, -1507, 6055
0.284282, 21, 13, 2131, -1848, -1507, 6055
0.284416, 21, 13, 2131, -1848, -1507, 6055
0.284551, 21, 13, 2131, -1848, -1507, 6055
0.284685, 91, -5, 2149, -1854, -1533, 5925
0.284820, 91, -5, 2149, -1854, -1533, 5925
0.284954, 91, -5, 2149, -1854, -1533, 5925
0.285088, 91, -5, 2149, -1854, -1533, 5925
0.285222, 91, -5, 2149, -1854, -1533, 5925
0.285357, 91, -5, 2149, -1854, -1533, 5925
0.285491, 91, -5, 2149, -1854, -1533, 5925
0.285625, 91, -5, 2149, -1854, -1533, 5925
0.285760, 561, -66, 2373, -1776, -1499, 5721
0.285894, 561, -66, 2373, -1776, -1499, 5721
0.286029, 561, -66, 2373, -1776, -1499, 5721
0.286163, 561, -66, 2373, -1776, -1499, 5721
0.286298, 561, -66, 2373, -1776, -1499, 5721
0.286432, 561, -66, 2373, -1776, -1499, 5721
0.286567, 561, -66, 2373, -1776, -1499, 5721
0.286697, 3004, -149, 3075, -1406, -1392, 4984
0.286832, 3004, -149, 3075, -1406, -1392, 4984
0.286968, 3004, -149, 3075, -1406, -1392, 4984
0.287104, 3004, -149, 3075, -1406, -1392, 4984
0.287238, 3004, -149, 3075, -1406, -1392, 4984
0.287372, 3004, -149, 3075, -1406, -1392, 4984
0.287507, 3004, -149, 3075, -1406, -1392, 4984
0.287641, 3004, -149, 3075, -1406, -1392, 4984
0.287776, 10784, 558, 3837, -540, -1124, 1755
0.287910, 10784, 558, 3837, -540, -1124, 1755
0.288045, 10784, 558, 3837, -540, -1124, 1755
0.288178, 10784, 558, 3837, -540, -1124, 1755
0.288312, 10784, 558, 3837, -540, -1124, 1755
0.288447, 10784, 558, 3837, -540, -1124, 1755
0.288581, 10784, 558, 3837, -540, -1124, 1755
0.288716, 17957, 2486, 4915, 782, -158, -6559
0.288850, 17957, 2486, 4915, 782, -158, -6559
0.288985, 17957, 2486, 4915, 782, -158, -6559
0.289119, 17957, 2486, 4915, 782, -158, -6559
0.289253, 17957, 2486, 4915, 782, -158, -6559
0.289388, 17957, 2486, 4915, 782, -158, -6559
0.289522, 17957, 2486, 4915, 782, -158, -6559
0.289656, 17957, 2486, 4915, 782, -158, -6559
0.289791, 11905, 1624, 6441, 2958, 2217, -16788
0.289925, 11905, 1624, 6441, 2958, 2217, -16788
0.290060, 11905, 1624, 6441, 2958, 2217, -16788
0.290194, 11905, 1624, 6441, 2958, 2217, -16788
0.290329, 11905, 1624, 6441, 2958, 2217, -16788
0.290463, 11905, 1624, 6441, 2958, 2217, -16788
0.290598, 11905, 1624, 6441, 2958, 2217, -16788
0.290732, 4191, 726, 5911, 6820, 5130, -21835
0.290867, 4191, 726, 5911, 6820, 5130, -21835
0.291001, 4191, 726, 5911, 6820, 5130, -21835
0.291136, 4191, 726, 5911, 6820, 5130, -21835
0.291270, 4191, 726, 5911, 6820, 5130, -21835
0.291404, 4191, 726, 5911, 6820, 5130, -21835
0.291539, 4191, 726, 5911, 6820, 5130, -21835
0.291673, 4191, 726, 5911, 6820, 5130, -21835
0.291808, 5968, 1417, -1599, 9396, 6942, -24239
0.291942, 5968, 1417, -1599, 9396, 6942, -24239
0.292077, 5968, 1417, -1599, 9396, 6942, -24239
0.292211, 5968, 1417, -1599, 9396, 6942, -24239
0.292345, 5968, 1417, -1599, 9396, 6942, -24239
0.292475, 5968, 1417, -1599, 9396, 6942, -24239
0.292610, 5968, 1417, -1599, 9396, 6942, -24239
0.292744, 491, -1668, -8065, 6426, 7517, -27560
0.292879, 491, -1668, -8065, 6426, 7517, -27560
0.293013, 491, -1668, -8065, 6426, 7517, -27560
0.293148, 491, -1668, -8065, 6426, 7517, -27560
0.293282, 491, -1668, -8065, 6426, 7517, -27560
0.293416, 491, -1668, -8065, 6426, 7517, -27560
0.293551, 491, -1668, -8065, 6426, 7517, -27560
0.293685, 491, -1668, -8065, 6426, 7517, -27560
0.293814, -10502, -2916, -1379, 2766, 7388, -25129
0.293949, -10502, -2916, -1379, 2766, 7388, -25129
0.294084, -10502, -2916, -1379, 2766, 7388, -25129
0.294218, -10502, -2916, -1379, 2766, 7388, -25129
0.294353, -10502, -2916, -1379, 2766, 7388, -25129
0.294487, -10502, -2916, -1379, 2766, 7388, -25129
0.294621, -10502, -2916, -1379, 2766, 7388, -25129
0.294756, -10502, -2916, -1379, 2766, 7388, -25129
0.294890, -10668, -976, 5828, 4150, 7749, -17197
0.295025, -10668, -976, 5828, 4150, 7749, -17197
0.295159, -10668, -976, 5828, 4150, 7749, -17197
0.295294, -10668, -976, 5828, 4150, 7749, -17197
0.295438, -10668, -976, 5828, 4150, 7749, -17197
0.295573, -10668, -976, 5828, 4150, 7749, -17197
0.295708, -10668, -976, 5828, 4150, 7749, -17197
0.295842, -7895, -384, 2365, 6351, 8465, -10824
0.295977, -7895, -384, 2365, 6351, 8465, -10824
0.296111, -7895, -384, 2365, 6351, 8465, -10824
0.296246, -7895, -384, 2365, 6351, 8465, -10824
0.296380, -7895, -384, 2365, 6351, 8465, -10824
0.296514, -7895, -384, 2365, 6351, 8465, -10824
0.296649, -7895, -384, 2365, 6351, 8465, -10824
0.296783, -7895, -384, 2365, 6351, 8465, -10824
0.296917, -9233, -518, -2124, 5094, 7381, -5477
0.297052, -9233, -518, -2124, 5094, 7381, -5477
0.297186, -9233, -518, -2124, 5094, 7381, -5477
0.297321, -9233, -518, -2124, 5094, 7381, -5477
0.297455, -9233, -518, -2124, 5094, 7381, -5477
0.297590, -9233, -518, -2124, 5094, 7381, -5477
0.297724, -9233, -518, -2124, 5094, 7381, -5477
0.297858, -7152, -500, 242, 2191, 4872, 229
0.297993, -7152, -500, 242, 2191, 4872, 229
0.298127, -7152, -500, 242, 2191, 4872, 229
0.298262, -7152, -500, 242, 2191, 4872, 229
0.298396, -7152, -500, 242, 2191, 4872, 229
0.298530, -7152, -500, 242, 2191, 4872, 229
0.298665, -7152, -500, 242, 2191, 4872, 229
0.298799, -7152, -500, 242, 2191, 4872, 229
0.298933, -3751, -415, 3910, 671, 1821, 3771
0.299068, -3751, -415, 3910, 671, 1821, 3771
0.299202, -3751, -415, 3910, 671, 1821, 3771
0.299337, -3751, -415, 3910, 671, 1821, 3771
0.299471, -3751, -415, 3910, 671, 1821, 3771
0.299606, -3751, -415, 3910, 671, 1821, 3771
0.299740, -3751, -415, 3910, 671, 1821, 3771
0.299875, -3735, -354, 3144, 754, -1695, 5431
0.300009, -3735, -354, 3144, 754, -1695, 5431
0.300143, -3735, -354, 3144, 754, -1695, 5431
0.300278, -3735, -354, 3144, 754, -1695, 5431
0.300412, -3735, -354, 3144, 754, -1695, 5431
0.300547, -3735, -354, 3144, 754, -1695, 5431
0.300681, -3735, -354, 3144, 754, -1695, 5431
0.300815, -3735, -354, 3144, 754, -1695, 5431
0.300950, -2758, -127, 1853, 828, -4271, 6975
0.301084, -2758, -127, 1853, 828, -4271, 6975
0.301219, -2758, -127, 1853, 828, -4271, 6975
0.301353, -2758, -127, 1853, 828, -4271, 6975
0.301487, -2758, -127, 1853, 828, -4271, 6975
0.301622, -2758, -127, 1853, 828, -4271, 6975
0.301756, -2758, -127, 1853, 828, -4271, 6975
0.301890, -329, 36, 2256, 423, -5618, 7691
0.302025, -329, 36, 2256, 423, -5618, 7691
0.302160, -329, 36, 2256, 423, -5618, 7691
0.302294, -329, 36, 2256, 423, -5618, 7691
0.302428, -329, 36, 2256, 423, -5618, 7691
0.302563, -329, 36, 2256, 423, -5618, 7691
0.302697, -329, 36, 2256, 423, -5618, 7691
0.302831, -329, 36, 2256, 423, -5618, 7691
0.302966, 135, 78, 2323, 26, -6394, 7309
0.303100, 135, 78, 2323, 26, -6394, 7309
0.303235, 135, 78, 2323, 26, -6394, 7309
0.303369, 135, 78, 2323, 26, -6394, 7309
0.303503, 135, 78, 2323, 26, -6394, 7309
0.303638, 135, 78, 2323, 26, -6394, 7309
0.303772, 135, 78, 2323, 26, -6394, 7309
0.303907, -241, 25, 2037, -143, -6478, 6842
0.304041, -241, 25, 2037, -143, -6478, 6842
0.304176, -241, 25, 2037, -143, -6478, 6842
0.304310, -241, 25, 2037, -143, -6478, 6842
0.304444, -241, 25, 2037, -143, -6478, 6842
0.304579, -241, 25, 2037, -143, -6478, 6842
0.304713, -241, 25, 2037, -143, -6478, 6842
0.304847, -241, 25, 2037, -143, -6478, 6842
0.304982, 47, 67, 2113, -326, -5763, 6558
0.305116, 47, 67, 2113, -326, -5763, 6558
0.305251, 47, 67, 2113, -326, -5763, 6558
0.305385, 47, 67, 2113, -326, -5763, 6558
0.305519, 47, 67, 2113, -326, -5763, 6558
0.305654, 47, 67, 2113, -326, -5763, 6558
0.305788, 47, 67, 2113, -326, -5763, 6558
0.305922, 441, 105, 2135, -679, -4581, 6223
0.306057, 441, 105, 2135, -679, -4581, 6223
0.306191, 441, 105, 2135, -679, -4581, 6223
0.306326, 441, 105, 2135, -679, -4581, 6223
0.306461, 441, 105, 2135, -679, -4581, 6223
0.306595, 441, 105, 2135, -679, -4581, 6223
0.306730, 441, 105, 2135, -679, -4581, 6223
0.306864, 441, 105, 2135, -679, -4581, 6223
0.306999, 1258, 144, 1945, -1109, -3137, 5664
0.307133, 1258, 144, 1945, -1109, -3137, 5664
0.307268, 1258, 144, 1945, -1109, -3137, 5664
0.307403, 1258, 144, 1945, -1109, -3137, 5664
0.307537, 1258, 144, 1945, -1109, -3137, 5664
0.307672, 1258, 144, 1945, -1109, -3137, 5664
0.307819, 1258, 144, 1945, -1109, -3137, 5664
0.307954, 3343, 344, 1724, -1672, -1519, 4450
0.308089, 3343, 344, 1724, -1672, -1519, 4450
0.308223, 3343, 344, 1724, -1672, -1519, 4450
0.308358, 3343, 344, 1724, -1672, -1519, 4450
0.308492, 3343, 344, 1724, -1672, -1519, 4450
0.308627, 3343, 344, 1724, -1672, -1519, 4450
0.308761, 3343, 344, 1724, -1672, -1519, 4450
0.308896, 3343, 344, 1724, -1672, -1519, 4450
0.309031, 7512, 863, 1573, -2455, -26, 1614
0.309165, 7512, 863, 1573, -2455, -26, 1614
0.309300, 7512, 863, 1573, -2455, -26, 1614
0.309434, 7512, 863, 1573, -2455, -26, 1614
0.309569, 7512, 863, 1573, -2455, -26, 1614
0.309703, 7512, 863, 1573, -2455, -26, 1614
0.309838, 7512, 863, 1573, -2455, -26, 1614
0.309973, 12351, 1626, 2602, -2985, 1541, -4047
0.310109, 12351, 1626, 2602, -2985, 1541, -4047
0.310243, 12351, 1626, 2602, -2985, 1541, -4047
0.310378, 12351, 1626, 2602, -2985, 1541, -4047
0.310512, 12351, 1626, 2602, -2985, 1541, -4047
0.310647, 12351, 1626, 2602, -2985, 1541, -4047
0.310781, 12351, 1626, 2602, -2985, 1541, -4047
0.310916, 12351, 1626, 2602, -2985, 1541, -4047
0.311050, 12659, 1912, 3875, -2352, 3798, -11912
0.311185, 12659, 1912, 3875, -2352, 3798, -11912
0.311320, 12659, 1912, 3875, -2352, 3798, -11912
0.311454, 12659, 1912, 3875, -2352, 3798, -11912
0.311589, 12659, 1912, 3875, -2352, 3798, -11912
0.311723, 12659, 1912, 3875, -2352, 3798, -11912
0.311858, 12659, 1912, 3875, -2352, 3798, -11912
0.311992, 6587, 1718, 2297, -990, 6491, -18499
0.312127, 6587, 1718, 2297, -990, 6491, -18499
0.312262, 6587, 1718, 2297, -990, 6491, -18499
0.312397, 6587, 1718, 2297, -990, 6491, -18499
0.312532, 6587, 1718, 2297, -990, 6491, -18499
0.312668, 6587, 1718, 2297, -990, 6491, -18499
0.312803, 6587, 1718, 2297, -990, 6491, -18499
0.312937, 6587, 1718, 2297, -990, 6491, -18499
0.313072, -1086, 636, 254, -203, 8602, -20755
0.313207, -1086, 636, 254, -203, 8602, -20755
0.313341, -1086, 636, 254, -203, 8602, -20755
0.313476, -1086, 636, 254, -203, 8602, -20755
0.313611, -1086, 636, 254, -203, 8602, -20755
0.313745, -1086, 636, 254, -203, 8602, -20755
0.313875, -1086, 636, 254, -203, 8602, -20755
0.314009, -1086, 636, 254, -203, 8602, -20755
0.314144, -6535, -2082, 1969, 740, 9532, -18605
0.314279, -6535, -2082, 1969, 740, 9532, -18605
0.314414, -6535, -2082, 1969, 740, 9532, -18605
0.314548, -6535, -2082, 1969, 740, 9532, -18605
0.314683, -6535, -2082, 1969, 740, 9532, -18605
0.314817, -6535, -2082, 1969, 740, 9532, -18605
0.314952, -6535, -2082, 1969, 740, 9532, -18605
0.315086, -7121, -3075, 2896, 2588, 9003, -13930
0.315221, -7121, -3075, 2896, 2588, 9003, -13930
0.315356, -7121, -3075, 2896, 2588, 9003, -13930
0.315490, -7121, -3075, 2896, 2588, 9003, -13930
0.315625, -7121, -3075, 2896, 2588, 9003, -13930
0.315759, -7121, -3075, 2896, 2588, 9003, -13930
0.315894, -7121, -3075, 2896, 2588, 9003, -13930
0.316028, -7121, -3075, 2896, 2588, 9003, -13930
0.316163, -3438, -1111, 916, 3504, 7300, -9908
0.316298, -3438, -1111, 916, 3504, 7300, -9908
0.316432, -3438, -1111, 916, 3504, 7300, -9908
0.316567, -3438, -1111, 916, 3504, 7300, -9908
0.316701, -3438, -1111, 916, 3504, 7300, -9908
0.316836, -3438, -1111, 916, 3504, 7300, -9908
0.316970, -3438, -1111, 916, 3504, 7300, -9908
0.317105, -1792, 54, 1066, 2765, 5664, -8095
0.317240, -1792, 54, 1066, 2765, 5664, -8095
0.317374, -1792, 54, 1066, 2765, 5664, -8095
0.317509, -1792, 54, 1066, 2765, 5664, -8095
0.317643, -1792, 54, 1066, 2765, 5664, -8095
0.317778, -1792, 54, 1066, 2765, 5664, -8095
0.317912, -1792, 54, 1066, 2765, 5664, -8095
0.318047, -1792, 54, 1066, 2765, 5664, -8095
0.318182, -3454, -209, 2018, 1930, 4664, -6575
0.318317, -3454, -209, 2018, 1930, 4664, -6575
0.318451, -3454, -209, 2018, 1930, 4664, -6575
0.318586, -3454, -209, 2018, 1930, 4664, -6575
0.318720, -3454, -209, 2018, 1930, 4664, -6575
0.318855, -3454, -209, 2018, 1930, 4664, -6575
0.318989, -3454, -209, 2018, 1930, 4664, -6575
0.319124, -4490, -295, 2159, 1774, 3616, -4125
0.319258, -4490, -295, 2159, 1774, 3616, -4125
0.319393, -4490, -295, 2159, 1774, 3616, -4125
0.319535, -4490, -295, 2159, 1774, 3616, -4125
0.319670, -4490, -295, 2159, 1774, 3616, -4125
0.319804, -4490, -295, 2159, 1774, 3616, -4125
0.319939, -4490, -295, 2159, 1774, 3616, -4125
0.320073, -4490, -295, 2159, 1774, 3616, -4125
0.320208, -4799, -229, 2123, 1890, 2052, -1351
0.320342, -4799, -229, 2123, 1890, 2052, -1351
0.320477, -4799, -229, 2123, 1890, 2052, -1351
0.320611, -4799, -229, 2123, 1890, 2052, -1351
0.320746, -4799, -229, 2123, 1890, 2052, -1351
0.320880, -4799, -229, 2123, 1890, 2052, -1351
0.321015, -4799, -229, 2123, 1890, 2052, -1351
0.321149, -4896, -406, 1648, 1683, 92, 1557
0.321284, -4896, -406, 1648, 1683, 92, 1557
0.321419, -4896, -406, 1648, 1683, 92, 1557
0.321553, -4896, -406, 1648, 1683, 92, 1557
0.321688, -4896, -406, 1648, 1683, 92, 1557
0.321822, -4896, -406, 1648, 1683, 92, 1557
0.321957, -4896, -406, 1648, 1683, 92, 1557
0.322092, -4896, -406, 1648, 1683, 92, 1557
0.322226, -2553, -231, 1840, 1297, -2083, 3997
0.322361, -2553, -231, 1840, 1297, -2083, 3997
0.322496, -2553, -231, 1840, 1297, -2083, 3997
0.322630, -2553, -231, 1840, 1297, -2083, 3997
0.322765, -2553, -231, 1840, 1297, -2083, 3997
0.322899, -2553, -231, 1840, 1297, -2083, 3997
0.323034, -2553, -231, 1840, 1297, -2083, 3997
0.323168, 417, 134, 2287, 1076, -3738, 4568
0.323303, 417, 134, 2287, 1076, -3738, 4568
0.323438, 417, 134, 2287, 1076, -3738, 4568
0.323572, 417, 134, 2287, 1076, -3738, 4568
0.323707, 417, 134, 2287, 1076, -3738, 4568
0.323841, 417, 134, 2287, 1076, -3738, 4568
0.323976, 417, 134, 2287, 1076, -3738, 4568
0.324110, 417, 134, 2287, 1076, -3738, 4568
0.324245, -342, -22, 2211, 856, -4281, 3959
0.324379, -342, -22, 2211, 856, -4281, 3959
0.324514, -342, -22, 2211, 856, -4281, 3959
0.324649, -342, -22, 2211, 856, -4281, 3959
0.324783, -342, -22, 2211, 856, -4281, 3959
0.324918, -342, -22, 2211, 856, -4281, 3959
0.325052, -342, -22, 2211, 856, -4281, 3959
0.325187, -2719, -216, 2104, 643, -4110, 4487
0.325321, -2719, -216, 2104, 643, -4110, 4487
0.325456, -2719, -216, 2104, 643, -4110, 4487
0.325591, -2719, -216, 2104, 643, -4110, 4487
0.325725, -2719, -216, 2104, 643, -4110, 4487
0.325859, -2719, -216, 2104, 643, -4110, 4487
0.325994, -2719, -216, 2104, 643, -4110, 4487
0.326129, -2719, -216, 2104, 643, -4110, 4487
0.326263, -2323, -69, 2268, 516, -3722, 6064
0.326398, -2323, -69, 2268, 516, -3722, 6064
0.326532, -2323, -69, 2268, 516, -3722, 6064
0.326667, -2323, -69, 2268, 516, -3722, 6064
0.326801, -2323, -69, 2268, 516, -3722, 6064
0.326935, -2323, -69, 2268, 516, -3722, 6064
0.327070, -2323, -69, 2268, 516, -3722, 6064
0.327204, -357, 82, 2304, 301, -3440, 6857
0.327339, -357, 82, 2304, 301, -3440, 6857
0.327474, -357, 82, 2304, 301, -3440, 6857
0.327608, -357, 82, 2304, 301, -3440, 6857
0.327743, -357, 82, 2304, 301, -3440, 6857
0.327877, -357, 82, 2304, 301, -3440, 6857
0.328012, -357, 82, 2304, 301, -3440, 6857
0.328146, -357, 82, 2304, 301, -3440, 6857
0.328281, 416, 86, 2204, -138, -3173, 6570
0.328416, 416, 86, 2204, -138, -3173, 6570
0.328550, 416, 86, 2204, -138, -3173, 6570
0.328685, 416, 86, 2204, -138, -3173, 6570
0.328819, 416, 86, 2204, -138, -3173, 6570
0.328954, 416, 86, 2204, -138, -3173, 6570
0.329088, 416, 86, 2204, -138, -3173, 6570
0.329223, 416, 86, 2204, -138, -3173, 6570
0.329357, 465, 85, 2192, -700, -2524, 6081
0.329492, 465, 85, 2192, -700, -2524, 6081
0.329626, 465, 85, 2192, -700, -2524, 6081
0.329761, 465, 85, 2192, -700, -2524, 6081
0.329896, 465, 85, 2192, -700, -2524, 6081
0.330030, 465, 85, 2192, -700, -2524, 6081
0.330165, 465, 85, 2192, -700, -2524, 6081
0.330299, 733, 114, 2205, -1211, -1565, 5577
0.330434, 733, 114, 2205, -1211, -1565, 5577
0.330569, 733, 114, 2205, -1211, -1565, 5577
0.330703, 733, 114, 2205, -1211, -1565, 5577
0.330838, 733, 114, 2205, -1211, -1565, 5577
0.330973, 733, 114, 2205, -1211, -1565, 5577
0.331107, 733, 114, 2205, -1211, -1565, 5577
0.331242, 733, 114, 2205, -1211, -1565, 5577
0.331376, 940, 154, 2229, -1563, -719, 4840
0.331511, 940, 154, 2229, -1563, -719, 4840
0.331646, 940, 154, 2229, -1563, -719, 4840
0.331780, 940, 154, 2229, -1563, -719, 4840
0.331921, 940, 154, 2229, -1563, -719, 4840
0.332055, 940, 154, 2229, -1563, -719, 4840
0.332190, 940, 154, 2229, -1563, -719, 4840
0.332324, 961, 176, 2245, -1767, -277, 3983
0.332459, 961, 176, 2245, -1767, -277, 3983
0.332593, 961, 176, 2245, -1767, -277, 3983
0.332728, 961, 176, 2245, -1767, -277, 3983
0.332862, 961, 176, 2245, -1767, -277, 3983
0.332997, 961, 176, 2245, -1767, -277, 3983
0.333132, 961, 176, 2245, -1767, -277, 3983
0.333266, 961, 176, 2245, -1767, -277, 3983
0.333401, 980, 184, 2155, -1880, -160, 3146
0.333535, 980, 184, 2155, -1880, -160, 3146
0.333670, 980, 184, 2155, -1880, -160, 3146
0.333804, 980, 184, 2155, -1880, -160, 3146
0.333939, 980, 184, 2155, -1880, -160, 3146
0.334073, 980, 184, 2155, -1880, -160, 3146
0.334208, 980, 184, 2155, -1880, -160, 3146
0.334343, 1545, 243, 2095, -1888, -97, 2255
0.334477, 1545, 243, 2095, -1888, -97, 2255
0.334612, 1545, 243, 2095, -1888, -97, 2255
0.334747, 1545, 243, 2095, -1888, -97, 2255
0.334881, 1545, 243, 2095, -1888, -97, 2255
0.335016, 1545, 243, 2095, -1888, -97, 2255
0.335150, 1545, 243, 2095, -1888, -97, 2255
0.335285, 1545, 243, 2095, -1888, -97, 2255
0.335419, 3797, 369, 2202, -1753, 44, 778
0.335554, 3797, 369, 2202, -1753, 44, 778
0.335688, 3797, 369, 2202, -1753, 44, 778
0.335823, 3797, 369, 2202, -1753, 44, 778
0.335958, 3797, 369, 2202, -1753, 44, 778
0.336092, 3797, 369, 2202, -1753, 44, 778
0.336227, 3797, 369, 2202, -1753, 44, 778
0.336361, 6145, 628, 1870, -1588, 403, -2122
0.336496, 6145, 628, 1870, -1588, 403, -2122
0.336630, 6145, 628, 1870, -1588, 403, -2122
0.336765, 6145, 628, 1870, -1588, 403, -2122
0.336899, 6145, 628, 1870, -1588, 403, -2122
0.337034, 6145, 628, 1870, -1588, 403, -2122
0.337169, 6145, 628, 1870, -1588, 403, -2122
0.337303, 6145, 628, 1870, -1588, 403, -2122
0.337438, 5558, 739, 1152, -1605, 1211, -5844
0.337572, 5558, 739, 1152, -1605, 1211, -5844
0.337707, 5558, 739, 1152, -1605, 1211, -5844
0.337841, 5558, 739, 1152, -1605, 1211, -5844
0.337977, 5558, 739, 1152, -1605, 1211, -5844
0.338113, 5558, 739, 1152, -1605, 1211, -5844
0.338247, 5558, 739, 1152, -1605, 1211, -5844
0.338382, 2441, 592, 577, -1766, 2439, -8496
0.338517, 2441, 592, 577, -1766, 2439, -8496
0.338651, 2441, 592, 577, -1766, 2439, -8496
0.338786, 2441, 592, 577, -1766, 2439, -8496
0.338921, 2441, 592, 577, -1766, 2439, -8496
0.339055, 2441, 592, 577, -1766, 2439, -8496
0.339190, 2441, 592, 577, -1766, 2439, -8496
0.339324, 2441, 592, 577, -1766, 2439, -8496
0.339459, -1999, -26, 538, -1895, 3729, -8810
0.339594, -1999, -26, 538, -1895, 3729, -8810
0.339728, -1999, -26, 538, -1895, 3729, -8810
0.339863, -1999, -26, 538, -1895, 3729, -8810
0.339998, -1999, -26, 538, -1895, 3729, -8810
0.340132, -1999, -26, 538, -1895, 3729, -8810
0.340267, -1999, -26, 538, -1895, 3729, -8810
0.340401, -5331, -779, 2264, -1449, 4549, -6459
0.340536, -5331, -779, 2264, -1449, 4549, -6459
0.340671, -5331, -779, 2264, -1449, 4549, -6459
0.340805, -5331, -779, 2264, -1449, 4549, -6459
0.340940, -5331, -779, 2264, -1449, 4549, -6459
0.341075, -5331, -779, 2264, -1449, 4549, -6459
0.341209, -5331, -779, 2264, -1449, 4549, -6459
0.341344, -5331, -779, 2264, -1449, 4549, -6459
0.341478, -6088, -668, 3734, -108, 4555, -2599
0.341613, -6088, -668, 3734, -108, 4555, -2599
0.341747, -6088, -668, 3734, -108, 4555, -2599
0.341882, -6088, -668, 3734, -108, 4555, -2599
0.342017, -6088, -668, 3734, -108, 4555, -2599
0.342151, -6088, -668, 3734, -108, 4555, -2599
0.342286, -6088, -668, 3734, -108, 4555, -2599
0.342420, -6364, -509, 2701, 865, 3668, 1418
0.342555, -6364, -509, 2701, 865, 3668, 1418
0.342690, -6364, -509, 2701, 865, 3668, 1418
0.342824, -6364, -509, 2701, 865, 3668, 1418
0.342959, -6364, -509, 2701, 865, 3668, 1418
0.343094, -6364, -509, 2701, 865, 3668, 1418
0.343228, -6364, -509, 2701, 865, 3668, 1418
0.343363, -6364, -509, 2701, 865, 3668, 1418
0.343497, -4800, -482, 1948, 644, 1917, 5083
0.343632, -4800, -482, 1948, 644, 1917, 5083
0.343767, -4800, -482, 1948, 644, 1917, 5083
0.343901, -4800, -482, 1948, 644, 1917, 5083
0.344036, -4800, -482, 1948, 644, 1917, 5083
0.344175, -4800, -482, 1948, 644, 1917, 5083
0.344309, -4800, -482, 1948, 644, 1917, 5083
0.344444, -1365, -84, 2531, 27, -96, 7080
0.344579, -1365, -84, 2531, 27, -96, 7080
0.344713, -1365, -84, 2531, 27, -96, 7080
0.344848, -1365, -84, 2531, 27, -96, 7080
0.344983, -1365, -84, 2531, 27, -96, 7080
0.345117, -1365, -84, 2531, 27, -96, 7080
0.345252, -1365, -84, 2531, 27, -96, 7080
0.345386, -1365, -84, 2531, 27, -96, 7080
0.345521, -47, 86, 2566, -505, -1847, 7136
0.345656, -47, 86, 2566, -505, -1847, 7136
0.345790, -47, 86, 2566, -505, -1847, 7136
0.345925, -47, 86, 2566, -505, -1847, 7136
0.346060, -47, 86, 2566, -505, -1847, 7136
0.346195, -47, 86, 2566, -505, -1847, 7136
0.346329, -47, 86, 2566, -505, -1847, 7136
0.346464, -380, 18, 2178, -899, -3304, 6785
0.346599, -380, 18, 2178, -899, -3304, 6785
0.346733, -380, 18, 2178, -899, -3304, 6785
0.346868, -380, 18, 2178, -899, -3304, 6785
0.347002, -380, 18, 2178, -899, -3304, 6785
0.347137, -380, 18, 2178, -899, -3304, 6785
0.347271, -380, 18, 2178, -899, -3304, 6785
0.347406, -380, 18, 2178, -899, -3304, 6785
0.347540, -317, 15, 2109, -1077, -4170, 6621
0.347675, -317, 15, 2109, -1077, -4170, 6621
0.347810, -317, 15, 2109, -1077, -4170, 6621
0.347944, -317, 15, 2109, -1077, -4170, 6621
0.348079, -317, 15, 2109, -1077, -4170, 6621
0.348214, -317, 15, 2109, -1077, -4170, 6621
0.348348, -317, 15, 2109, -1077, -4170, 6621
0.348483, -147, 36, 2107, -1135, -4505, 6406
0.348617, -147, 36, 2107, -1135, -4505, 6406
0.348752, -147, 36, 2107, -1135, -4505, 6406
0.348886, -147, 36, 2107, -1135, -4505, 6406
0.349021, -147, 36, 2107, -1135, -4505, 6406
0.349156, -147, 36, 2107, -1135, -4505, 6406
0.349290, -147, 36, 2107, -1135, -4505, 6406
0.349425, -147, 36, 2107, -1135, -4505, 6406
0.349559, -75, 29, 2049, -1173, -4537, 6160
0.349694, -75, 29, 2049, -1173, -4537, 6160
0.349829, -75, 29, 2049, -1173, -4537, 6160
0.349963, -75, 29, 2049, -1173, -4537, 6160
0.350098, -75, 29, 2049, -1173, -4537, 6160
0.350232, -75, 29, 2049, -1173, -4537, 6160
0.350366, -75, 29, 2049, -1173, -4537, 6160
0.350500, -75, 29, 2049, -1173, -4537, 6160
0.350634, 49, 41, 2060, -1265, -4092, 5948
0.350768, 49, 41, 2060, -1265, -4092, 5948
0.350903, 49, 41, 2060, -1265, -4092, 5948
0.351037, 49, 41, 2060, -1265, -4092, 5948
0.351171, 49, 41, 2060, -1265, -4092, 5948
0.351306, 49, 41, 2060, -1265, -4092, 5948
0.351440, 49, 41, 2060, -1265, -4092, 5948
0.351575, 239, 61, 2085, -1450, -3259, 5747
0.351709, 239, 61, 2085, -1450, -3259, 5747
0.351844, 239, 61, 2085, -1450, -3259, 5747
0.351978, 239, 61, 2085, -1450, -3259, 5747
0.352112, 239, 61, 2085, -1450, -3259, 5747
0.352247, 239, 61, 2085, -1450, -3259, 5747
0.352381, 239, 61, 2085, -1450, -3259, 5747
0.352516, 239, 61, 2085, -1450, -3259, 5747
0.352650, 592, 85, 2078, -1679, -2253, 5481
0.352784, 592, 85, 2078, -1679, -2253, 5481
0.352919, 592, 85, 2078, -1679, -2253, 5481
0.353053, 592, 85, 2078, -1679, -2253, 5481
0.353188, 592, 85, 2078, -1679, -2253, 5481
0.353322, 592, 85, 2078, -1679, -2253, 5481
0.353456, 592, 85, 2078, -1679, -2253, 5481
0.353591, 1546, 179, 2149, -1908, -1235, 4951
0.353725, 1546, 179, 2149, -1908, -1235, 4951
0.353860, 1546, 179, 2149, -1908, -1235, 4951
0.353994, 1546, 179, 2149, -1908, -1235, 4951
0.354129, 1546, 179, 2149, -1908, -1235, 4951
0.354263, 1546, 179, 2149, -1908, -1235, 4951
0.354398, 1546, 179, 2149, -1908, -1235, 4951
0.354532, 1546, 179, 2149, -1908, -1235, 4951
0.354667, 4767, 669, 2195, -2117, -406, 3499
0.354802, 4767, 669, 2195, -2117, -406, 3499
0.354936, 4767, 669, 2195, -2117, -406, 3499
0.355071, 4767, 669, 2195, -2117, -406, 3499
0.355206, 4767, 669, 2195, -2117, -406, 3499
0.355340, 4767, 669, 2195, -2117, -406, 3499
0.355475, 4767, 669, 2195, -2117, -406, 3499
0.355609, 11105, 1635, 1987, -2328, 418, -686
0.355744, 11105, 1635, 1987, -2328, 418, -686
0.355879, 11105, 1635, 1987, -2328, 418, -686
0.356013, 11105, 1635, 1987, -2328, 418, -686
0.356148, 11105, 1635, 1987, -2328, 418, -686
0.356282, 11105, 1635, 1987, -2328, 418, -686
0.356417, 11105, 1635, 1987, -2328, 418, -686
0.356558, 11105, 1635, 1987, -2328, 418, -686
0.356693, 12572, 1258, 1900, -2547, 1775, -8302
0.356828, 12572, 1258, 1900, -2547, 1775, -8302
0.356963, 12572, 1258, 1900, -2547, 1775, -8302
0.357097, 12572, 1258, 1900, -2547, 1775, -8302
0.357232, 12572, 1258, 1900, -2547, 1775, -8302
0.357366, 12572, 1258, 1900, -2547, 1775, -8302
0.357501, 12572, 1258, 1900, -2547, 1775, -8302
0.357635, 3843, -260, 1940, -2185, 3755, -14499
0.357770, 3843, -260, 1940, -2185, 3755, -14499
0.357905, 3843, -260, 1940, -2185, 3755, -14499
0.358040, 3843, -260, 1940, -2185, 3755, -14499
0.358175, 3843, -260, 1940, -2185, 3755, -14499
0.358309, 3843, -260, 1940, -2185, 3755, -14499
0.358444, 3843, -260, 1940, -2185, 3755, -14499
0.358578, 3843, -260, 1940, -2185, 3755, -14499
0.358713, -3597, -189, 815, -1148, 5553, -14725
0.358848, -3597, -189, 815, -1148, 5553, -14725
0.358982, -3597, -189, 815, -1148, 5553, -14725
0.359117, -3597, -189, 815, -1148, 5553, -14725
0.359252, -3597, -189, 815, -1148, 5553, -14725
0.359386, -3597, -189, 815, -1148, 5553, -14725
0.359521, -3597, -189, 815, -1148, 5553, -14725
0.359655, -4782, -346, 927, -436, 6454, -11867
0.359790, -4782, -346, 927, -436, 6454, -11867
