Time, ax, ay, az, gx, gy, gz
0.000043, 209, 99, 2056, -2642, -1712, 6264
0.000211, 209, 99, 2056, -2642, -1712, 6264
0.000350, 685, 134, 2323, -2580, -1364, 6068
0.000491, 685, 134, 2323, -2580, -1364, 6068
0.000632, 685, 134, 2323, -2580, -1364, 6068
0.000772, 685, 134, 2323, -2580, -1364, 6068
0.000911, 685, 134, 2323, -2580, -1364, 6068
0.001049, 685, 134, 2323, -2580, -1364, 6068
0.001195, 685, 134, 2323, -2580, -1364, 6068
0.001328, 2350, 282, 3041, -2304, -1299, 5376
0.001466, 2350, 282, 3041, -2304, -1299, 5376
0.001603, 2350, 282, 3041, -2304, -1299, 5376
0.001740, 2350, 282, 3041, -2304, -1299, 5376
0.001877, 2350, 282, 3041, -2304, -1299, 5376
0.002014, 2350, 282, 3041, -2304, -1299, 5376
0.002150, 2350, 282, 3041, -2304, -1299, 5376
0.002287, 5252, 718, 3969, -1476, -1446, 3253
0.002424, 5252, 718, 3969, -1476, -1446, 3253
0.002561, 5252, 718, 3969, -1476, -1446, 3253
0.002698, 5252, 718, 3969, -1476, -1446, 3253
0.002834, 5252, 718, 3969, -1476, -1446, 3253
0.002971, 5252, 718, 3969, -1476, -1446, 3253
0.003108, 5252, 718, 3969, -1476, -1446, 3253
0.003244, 5252, 718, 3969, -1476, -1446, 3253
0.003381, 5586, 703, 4316, -123, -1278, -284
0.003518, 5586, 703, 4316, -123, -1278, -284
0.003654, 5586, 703, 4316, -123, -1278, -284
0.003791, 5586, 703, 4316, -123, -1278, -284
0.003923, 5586, 703, 4316, -123, -1278, -284
0.004056, 5586, 703, 4316, -123, -1278, -284
0.004193, 5586, 703, 4316, -123, -1278, -284
0.004330, 3323, -242, 2463, 1165, -661, -3275
0.004467, 3323, -242, 2463, 1165, -661, -3275
0.004603, 3323, -242, 2463, 1165, -661, -3275
0.004740, 3323, -242, 2463, 1165, -661, -3275
0.004872, 3323, -242, 2463, 1165, -661, -3275
0.005010, 3323, -242, 2463, 1165, -661, -3275
0.005149, 3323, -242, 2463, 1165, -661, -3275
0.005287, 3323, -242, 2463, 1165, -661, -3275
0.005425, 1661, -877, -328, 1341, -317, -4972
0.005565, 1661, -877, -328, 1341, -317, -4972
0.005702, 1661, -877, -328, 1341, -317, -4972
0.005839, 1661, -877, -328, 1341, -317, -4972
0.005975, 1661, -877, -328, 1341, -317, -4972
0.006112, 1661, -877, -328, 1341, -317, -4972
0.006252, 1661, -877, -328, 1341, -317, -4972
0.006392, -368, -445, 678, 853, -333, -5569
0.006536, -368, -445, 678, 853, -333, -5569
0.006675, -368, -445, 678, 853, -333, -5569
0.006812, -368, -445, 678, 853, -333, -5569
0.006949, -368, -445, 678, 853, -333, -5569
0.007086, -368, -445, 678, 853, -333, -5569
0.007223, -368, -445, 678, 853, -333, -5569
0.007359, -451, 91, 3518, 1484, 252, -4975
0.007496, -451, 91, 3518, 1484, 252, -4975
0.007633, -451, 91, 3518, 1484, 252, -4975
0.007769, -451, 91, 3518, 1484, 252, -4975
0.007906, -451, 91, 3518, 1484, 252, -4975
0.008043, -451, 91, 3518, 1484, 252, -4975
0.008179, -451, 91, 3518, 1484, 252, -4975
0.008316, -451, 91, 3518, 1484, 252, -4975
0.008452, 1655, 85, 3284, 2481, 1739, -4804
0.008589, 1655, 85, 3284, 2481, 1739, -4804
0.008726, 1655, 85, 3284, 2481, 1739, -4804
0.008863, 1655, 85, 3284, 2481, 1739, -4804
0.008999, 1655, 85, 3284, 2481, 1739, -4804
0.009136, 1655, 85, 3284, 2481, 1739, -4804
0.009273, 1655, 85, 3284, 2481, 1739, -4804
0.009409, -84, -87, 1359, 2198, 3148, -5465
0.009546, -84, -87, 1359, 2198, 3148, -5465
0.009683, -84, -87, 1359, 2198, 3148, -5465
0.009819, -84, -87, 1359, 2198, 3148, -5465
0.009956, -84, -87, 1359, 2198, 3148, -5465
0.010093, -84, -87, 1359, 2198, 3148, -5465
0.010229, -84, -87, 1359, 2198, 3148, -5465
0.010372, -84, -87, 1359, 2198, 3148, -5465
0.010509, -3752, -51, 1588, 1480, 3472, -4503
0.010641, -3752, -51, 1588, 1480, 3472, -4503
0.010774, -3752, -51, 1588, 1480, 3472, -4503
0.010912, -3752, -51, 1588, 1480, 3472, -4503
0.011048, -3752, -51, 1588, 1480, 3472, -4503
0.011185, -3752, -51, 1588, 1480, 3472, -4503
0.011321, -3752, -51, 1588, 1480, 3472, -4503
0.011458, -2478, 307, 2839, 1705, 2628, -2231
0.011595, -2478, 307, 2839, 1705, 2628, -2231
0.011731, -2478, 307, 2839, 1705, 2628, -2231
0.011868, -2478, 307, 2839, 1705, 2628, -2231
0.012010, -2478, 307, 2839, 1705, 2628, -2231
0.012148, -2478, 307, 2839, 1705, 2628, -2231
0.012285, -2478, 307, 2839, 1705, 2628, -2231
0.012422, 949, 511, 2857, 2328, 1419, -1692
0.012596, 949, 511, 2857, 2328, 1419, -1692
0.012740, 949, 511, 2857, 2328, 1419, -1692
0.012877, 949, 511, 2857, 2328, 1419, -1692
0.013014, 949, 511, 2857, 2328, 1419, -1692
0.013151, 949, 511, 2857, 2328, 1419, -1692
0.013287, 949, 511, 2857, 2328, 1419, -1692
0.013424, 949, 511, 2857, 2328, 1419, -1692
0.013560, 827, 369, 3518, 2918, 714, -2471
0.013697, 827, 369, 3518, 2918, 714, -2471
0.013833, 827, 369, 3518, 2918, 714, -2471
0.013970, 827, 369, 3518, 2918, 714, -2471
0.014106, 827, 369, 3518, 2918, 714, -2471
0.014243, 827, 369, 3518, 2918, 714, -2471
0.014381, 827, 369, 3518, 2918, 714, -2471
0.014518, -236, 24, 2240, 3483, 348, -2507
0.014655, -236, 24, 2240, 3483, 348, -2507
0.014791, -236, 24, 2240, 3483, 348, -2507
0.014928, -236, 24, 2240, 3483, 348, -2507
0.015064, -236, 24, 2240, 3483, 348, -2507
0.015201, -236, 24, 2240, 3483, 348, -2507
0.015337, -236, 24, 2240, 3483, 348, -2507
0.015474, -799, -303, -1106, 2700, -279, -2138
0.015611, -799, -303, -1106, 2700, -279, -2138
0.015747, -799, -303, -1106, 2700, -279, -2138
0.015884, -799, -303, -1106, 2700, -279, -2138
0.016020, -799, -303, -1106, 2700, -279, -2138
0.016157, -799, -303, -1106, 2700, -279, -2138
0.016294, -799, -303, -1106, 2700, -279, -2138
0.016430, -799, -303, -1106, 2700, -279, -2138
0.016567, -2176, 85, -662, 1032, -1044, -1415
0.016703, -2176, 85, -662, 1032, -1044, -1415
0.016840, -2176, 85, -662, 1032, -1044, -1415
0.016976, -2176, 85, -662, 1032, -1044, -1415
0.017113, -2176, 85, -662, 1032, -1044, -1415
0.017250, -2176, 85, -662, 1032, -1044, -1415
0.017386, -2176, 85, -662, 1032, -1044, -1415
0.017523, -2504, 518, 1683, 227, -1285, 162
0.017659, -2504, 518, 1683, 227, -1285, 162
0.017796, -2504, 518, 1683, 227, -1285, 162
0.017933, -2504, 518, 1683, 227, -1285, 162
0.018069, -2504, 518, 1683, 227, -1285, 162
0.018206, -2504, 518, 1683, 227, -1285, 162
0.018342, -2504, 518, 1683, 227, -1285, 162
0.018479, -2504, 518, 1683, 227, -1285, 162
0.018616, -1472, 363, 2063, -31, -965, 1728
0.018753, -1472, 363, 2063, -31, -965, 1728
0.018889, -1472, 363, 2063, -31, -965, 1728
0.019026, -1472, 363, 2063, -31, -965, 1728
0.019162, -1472, 363, 2063, -31, -965, 1728
0.019299, -1472, 363, 2063, -31, -965, 1728
0.019435, -1472, 363, 2063, -31, -965, 1728
0.019572, -436, 212, 1806, -421, -672, 2548
0.019708, -436, 212, 1806, -421, -672, 2548
0.019845, -436, 212, 1806, -421, -672, 2548
0.019981, -436, 212, 1806, -421, -672, 2548
0.020118, -436, 212, 1806, -421, -672, 2548
0.020254, -436, 212, 1806, -421, -672, 2548
0.020391, -436, 212, 1806, -421, -672, 2548
0.020528, 502, 246, 2400, -736, -715, 2708
0.020664, 502, 246, 2400, -736, -715, 2708
0.020801, 502, 246, 2400, -736, -715, 2708
0.020937, 502, 246, 2400, -736, -715, 2708
0.021074, 502, 246, 2400, -736, -715, 2708
0.021208, 502, 246, 2400, -736, -715, 2708
0.021346, 502, 246, 2400, -736, -715, 2708
0.021483, 502, 246, 2400, -736, -715, 2708
0.021619, 1542, 374, 2896, -583, -1105, 2198
0.021756, 1542, 374, 2896, -583, -1105, 2198
0.021893, 1542, 374, 2896, -583, -1105, 2198
0.022029, 1542, 374, 2896, -583, -1105, 2198
0.022166, 1542, 374, 2896, -583, -1105, 2198
0.022303, 1542, 374, 2896, -583, -1105, 2198
0.022446, 1542, 374, 2896, -583, -1105, 2198
0.022585, 1640, 145, 2734, -35, -1360, 1088
0.022723, 1640, 145, 2734, -35, -1360, 1088
0.022859, 1640, 145, 2734, -35, -1360, 1088
0.022996, 1640, 145, 2734, -35, -1360, 1088
0.023133, 1640, 145, 2734, -35, -1360, 1088
0.023269, 1640, 145, 2734, -35, -1360, 1088
0.023406, 1640, 145, 2734, -35, -1360, 1088
0.023543, 1640, 145, 2734, -35, -1360, 1088
0.023680, 43, -310, 2432, 580, -1022, 292
0.023817, 43, -310, 2432, 580, -1022, 292
0.023953, 43, -310, 2432, 580, -1022, 292
0.024090, 43, -310, 2432, 580, -1022, 292
0.024227, 43, -310, 2432, 580, -1022, 292
0.024364, 43, -310, 2432, 580, -1022, 292
0.024500, 43, -310, 2432, 580, -1022, 292
0.024637, -2106, -174, 1322, 858, -515, 774
0.024774, -2106, -174, 1322, 858, -515, 774
0.024911, -2106, -174, 1322, 858, -515, 774
0.025048, -2106, -174, 1322, 858, -515, 774
0.025184, -2106, -174, 1322, 858, -515, 774
0.025333, -2106, -174, 1322, 858, -515, 774
0.025471, -2106, -174, 1322, 858, -515, 774
0.025608, -1985, 127, 808, 433, -470, 2197
0.025745, -1985, 127, 808, 433, -470, 2197
0.025882, -1985, 127, 808, 433, -470, 2197
0.026019, -1985, 127, 808, 433, -470, 2197
0.026151, -1985, 127, 808, 433, -470, 2197
0.026284, -1985, 127, 808, 433, -470, 2197
0.026423, -1985, 127, 808, 433, -470, 2197
0.026559, -1985, 127, 808, 433, -470, 2197
0.026696, 791, 83, 1812, -169, -871, 2810
0.026833, 791, 83, 1812, -169, -871, 2810
0.026970, 791, 83, 1812, -169, -871, 2810
0.027107, 791, 83, 1812, -169, -871, 2810
0.027244, 791, 83, 1812, -169, -871, 2810
0.027380, 791, 83, 1812, -169, -871, 2810
0.027518, 791, 83, 1812, -169, -871, 2810
0.027656, 1383, 17, 2163, -590, -1069, 2005
0.027797, 1383, 17, 2163, -590, -1069, 2005
0.027934, 1383, 17, 2163, -590, -1069, 2005
0.028071, 1383, 17, 2163, -590, -1069, 2005
0.028208, 1383, 17, 2163, -590, -1069, 2005
0.028346, 1383, 17, 2163, -590, -1069, 2005
0.028482, 1383, 17, 2163, -590, -1069, 2005
0.028619, 1383, 17, 2163, -590, -1069, 2005
0.028756, 215, 14, 2305, -830, -859, 1474
0.028893, 215, 14, 2305, -830, -859, 1474
0.029030, 215, 14, 2305, -830, -859, 1474
0.029167, 215, 14, 2305, -830, -859, 1474
0.029303, 215, 14, 2305, -830, -859, 1474
0.029440, 215, 14, 2305, -830, -859, 1474
0.029577, 215, 14, 2305, -830, -859, 1474
0.029714, 1923, 183, 3165, -425, -736, 1179
0.029850, 1923, 183, 3165, -425, -736, 1179
0.029987, 1923, 183, 3165, -425, -736, 1179
0.030124, 1923, 183, 3165, -425, -736, 1179
0.030260, 1923, 183, 3165, -425, -736, 1179
0.030397, 1923, 183, 3165, -425, -736, 1179
0.030534, 1923, 183, 3165, -425, -736, 1179
0.030670, 4456, 693, 2926, 388, -817, -629
0.030807, 4456, 693, 2926, 388, -817, -629
0.030944, 4456, 693, 2926, 388, -817, -629
0.031080, 4456, 693, 2926, 388, -817, -629
0.031217, 4456, 693, 2926, 388, -817, -629
0.031354, 4456, 693, 2926, 388, -817, -629
0.031490, 4456, 693, 2926, 388, -817, -629
0.031627, 4456, 693, 2926, 388, -817, -629
0.031763, 4202, 768, 1094, 540, -739, -3520
0.031900, 4202, 768, 1094, 540, -739, -3520
0.032037, 4202, 768, 1094, 540, -739, -3520
0.032173, 4202, 768, 1094, 540, -739, -3520
0.032310, 4202, 768, 1094, 540, -739, -3520
0.032446, 4202, 768, 1094, 540, -739, -3520
0.032583, 4202, 768, 1094, 540, -739, -3520
0.032720, 1422, 31, 436, -51, -246, -5509
0.032856, 1422, 31, 436, -51, -246, -5509
0.032993, 1422, 31, 436, -51, -246, -5509
0.033130, 1422, 31, 436, -51, -246, -5509
0.033266, 1422, 31, 436, -51, -246, -5509
0.033403, 1422, 31, 436, -51, -246, -5509
0.033539, 1422, 31, 436, -51, -246, -5509
0.033676, 1422, 31, 436, -51, -246, -5509
0.033812, -742, -56, 1590, -138, 539, -5625
0.033949, -742, -56, 1590, -138, 539, -5625
0.034086, -742, -56, 1590, -138, 539, -5625
0.034223, -742, -56, 1590, -138, 539, -5625
0.034359, -742, -56, 1590, -138, 539, -5625
0.034496, -742, -56, 1590, -138, 539, -5625
0.034633, -742, -56, 1590, -138, 539, -5625
0.034769, -1243, 214, 2319, 484, 1453, -4670
0.034906, -1243, 214, 2319, 484, 1453, -4670
0.035043, -1243, 214, 2319, 484, 1453, -4670
0.035179, -1243, 214, 2319, 484, 1453, -4670
0.035316, -1243, 214, 2319, 484, 1453, -4670
0.035452, -1243, 214, 2319, 484, 1453, -4670
0.035589, -1243, 214, 2319, 484, 1453, -4670
0.035725, -1146, 117, 2576, 1113, 2304, -3594
0.035862, -1146, 117, 2576, 1113, 2304, -3594
0.035999, -1146, 117, 2576, 1113, 2304, -3594
0.036135, -1146, 117, 2576, 1113, 2304, -3594
0.036272, -1146, 117, 2576, 1113, 2304, -3594
0.036409, -1146, 117, 2576, 1113, 2304, -3594
0.036545, -1146, 117, 2576, 1113, 2304, -3594
0.036682, -1146, 117, 2576, 1113, 2304, -3594
0.036818, -285, 443, 2414, 1471, 2611, -2799
0.036955, -285, 443, 2414, 1471, 2611, -2799
0.037092, -285, 443, 2414, 1471, 2611, -2799
0.037228, -285, 443, 2414, 1471, 2611, -2799
0.037365, -285, 443, 2414, 1471, 2611, -2799
0.037502, -285, 443, 2414, 1471, 2611, -2799
0.037638, -285, 443, 2414, 1471, 2611, -2799
0.037775, -116, 295, 2247, 1337, 2298, -2538
0.037912, -116, 295, 2247, 1337, 2298, -2538
0.038063, -116, 295, 2247, 1337, 2298, -2538
0.038203, -116, 295, 2247, 1337, 2298, -2538
0.038339, -116, 295, 2247, 1337, 2298, -2538
0.038477, -116, 295, 2247, 1337, 2298, -2538
0.038613, -116, 295, 2247, 1337, 2298, -2538
0.038750, -116, 295, 2247, 1337, 2298, -2538
0.038887, 373, 214, 3094, 1489, 1671, -2508
0.039023, 373, 214, 3094, 1489, 1671, -2508
0.039160, 373, 214, 3094, 1489, 1671, -2508
0.039297, 373, 214, 3094, 1489, 1671, -2508
0.039433, 373, 214, 3094, 1489, 1671, -2508
0.039570, 373, 214, 3094, 1489, 1671, -2508
0.039706, 373, 214, 3094, 1489, 1671, -2508
0.039843, 1503, 525, 3598, 2385, 1039, -3067
0.039980, 1503, 525, 3598, 2385, 1039, -3067
0.040116, 1503, 525, 3598, 2385, 1039, -3067
0.040253, 1503, 525, 3598, 2385, 1039, -3067
0.040390, 1503, 525, 3598, 2385, 1039, -3067
0.040527, 1503, 525, 3598, 2385, 1039, -3067
0.040663, 1503, 525, 3598, 2385, 1039, -3067
0.040800, -1490, -211, 2290, 3031, 756, -3630
0.040937, -1490, -211, 2290, 3031, 756, -3630
0.041074, -1490, -211, 2290, 3031, 756, -3630
0.041210, -1490, -211, 2290, 3031, 756, -3630
0.041347, -1490, -211, 2290, 3031, 756, -3630
0.041483, -1490, -211, 2290, 3031, 756, -3630
0.041620, -1490, -211, 2290, 3031, 756, -3630
0.041756, -1490, -211, 2290, 3031, 756, -3630
0.041893, -4682, -261, 688, 2921, 547, -1780
0.042030, -4682, -261, 688, 2921, 547, -1780
0.042166, -4682, -261, 688, 2921, 547, -1780
0.042303, -4682, -261, 688, 2921, 547, -1780
0.042439, -4682, -261, 688, 2921, 547, -1780
0.042576, -4682, -261, 688, 2921, 547, -1780
0.042713, -4682, -261, 688, 2921, 547, -1780
0.042849, -1780, 575, 932, 2364, -194, 856
0.042986, -1780, 575, 932, 2364, -194, 856
0.043123, -1780, 575, 932, 2364, -194, 856
0.043259, -1780, 575, 932, 2364, -194, 856
0.043396, -1780, 575, 932, 2364, -194, 856
0.043533, -1780, 575, 932, 2364, -194, 856
0.043669, -1780, 575, 932, 2364, -194, 856
0.043806, -1780, 575, 932, 2364, -194, 856
0.043942, 365, 334, 1401, 1559, -1096, 1230
0.044079, 365, 334, 1401, 1559, -1096, 1230
0.044216, 365, 334, 1401, 1559, -1096, 1230
0.044352, 365, 334, 1401, 1559, -1096, 1230
0.044489, 365, 334, 1401, 1559, -1096, 1230
0.044625, 365, 334, 1401, 1559, -1096, 1230
0.044762, 365, 334, 1401, 1559, -1096, 1230
0.044899, -1680, -77, 906, 593, -1395, 1339
0.045035, -1680, -77, 906, 593, -1395, 1339
0.045172, -1680, -77, 906, 593, -1395, 1339
0.045309, -1680, -77, 906, 593, -1395, 1339
0.045445, -1680, -77, 906, 593, -1395, 1339
0.045582, -1680, -77, 906, 593, -1395, 1339
0.045719, -1680, -77, 906, 593, -1395, 1339
0.045855, -1680, -77, 906, 593, -1395, 1339
0.045992, -1902, 80, 1244, -195, -1321, 2740
0.046129, -1902, 80, 1244, -195, -1321, 2740
0.046265, -1902, 80, 1244, -195, -1321, 2740
0.046402, -1902, 80, 1244, -195, -1321, 2740
0.046539, -1902, 80, 1244, -195, -1321, 2740
0.046675, -1902, 80, 1244, -195, -1321, 2740
0.046812, -1902, 80, 1244, -195, -1321, 2740
0.046949, 821, 342, 2243, -518, -1545, 3475
0.047085, 821, 342, 2243, -518, -1545, 3475
0.047222, 821, 342, 2243, -518, -1545, 3475
0.047358, 821, 342, 2243, -518, -1545, 3475
0.047495, 821, 342, 2243, -518, -1545, 3475
0.047631, 821, 342, 2243, -518, -1545, 3475
0.047768, 821, 342, 2243, -518, -1545, 3475
0.047905, 2941, 518, 2691, -386, -1933, 2390
0.048041, 2941, 518, 2691, -386, -1933, 2390
0.048178, 2941, 518, 2691, -386, -1933, 2390
0.048315, 2941, 518, 2691, -386, -1933, 2390
0.048451, 2941, 518, 2691, -386, -1933, 2390
0.048588, 2941, 518, 2691, -386, -1933, 2390
0.048724, 2941, 518, 2691, -386, -1933, 2390
0.048861, 2941, 518, 2691, -386, -1933, 2390
0.048997, 3171, 641, 2492, -43, -1868, 441
0.049134, 3171, 641, 2492, -43, -1868, 441
0.049271, 3171, 641, 2492, -43, -1868, 441
0.049407, 3171, 641, 2492, -43, -1868, 441
0.049544, 3171, 641, 2492, -43, -1868, 441
0.049680, 3171, 641, 2492, -43, -1868, 441
0.049817, 3171, 641, 2492, -43, -1868, 441
0.049953, 1585, 429, 1832, 156, -1344, -1165
0.050090, 1585, 429, 1832, 156, -1344, -1165
0.050227, 1585, 429, 1832, 156, -1344, -1165
0.050363, 1585, 429, 1832, 156, -1344, -1165
0.050506, 1585, 429, 1832, 156, -1344, -1165
0.050643, 1585, 429, 1832, 156, -1344, -1165
0.050786, 1585, 429, 1832, 156, -1344, -1165
0.050924, 1585, 429, 1832, 156, -1344, -1165
0.051061, -1988, -378, 1731, 346, -680, -1302
0.051198, -1988, -378, 1731, 346, -680, -1302
0.051335, -1988, -378, 1731, 346, -680, -1302
0.051471, -1988, -378, 1731, 346, -680, -1302
0.051608, -1988, -378, 1731, 346, -680, -1302
0.051745, -1988, -378, 1731, 346, -680, -1302
0.051881, -1988, -378, 1731, 346, -680, -1302
0.052018, -3651, -656, 2184, 842, -128, 641
0.052155, -3651, -656, 2184, 842, -128, 641
0.052291, -3651, -656, 2184, 842, -128, 641
0.052428, -3651, -656, 2184, 842, -128, 641
0.052565, -3651, -656, 2184, 842, -128, 641
0.052701, -3651, -656, 2184, 842, -128, 641
0.052838, -3651, -656, 2184, 842, -128, 641
0.052975, -684, 50, 2316, 1201, -49, 2558
0.053111, -684, 50, 2316, 1201, -49, 2558
0.053248, -684, 50, 2316, 1201, -49, 2558
0.053385, -684, 50, 2316, 1201, -49, 2558
0.053521, -684, 50, 2316, 1201, -49, 2558
0.053658, -684, 50, 2316, 1201, -49, 2558
0.053793, -684, 50, 2316, 1201, -49, 2558
0.053927, -684, 50, 2316, 1201, -49, 2558
0.054063, 1278, 384, 2340, 1075, -284, 2352
0.054201, 1278, 384, 2340, 1075, -284, 2352
0.054336, 1278, 384, 2340, 1075, -284, 2352
0.054471, 1278, 384, 2340, 1075, -284, 2352
0.054606, 1278, 384, 2340, 1075, -284, 2352
0.054741, 1278, 384, 2340, 1075, -284, 2352
0.054877, 1278, 384, 2340, 1075, -284, 2352
0.055012, -70, 191, 2095, 718, -355, 1714
0.055147, -70, 191, 2095, 718, -355, 1714
0.055282, -70, 191, 2095, 718, -355, 1714
0.055416, -70, 191, 2095, 718, -355, 1714
0.055550, -70, 191, 2095, 718, -355, 1714
0.055685, -70, 191, 2095, 718, -355, 1714
0.055819, -70, 191, 2095, 718, -355, 1714
0.055954, -70, 191, 2095, 718, -355, 1714
0.056088, 1267, 520, 2172, 478, -503, 1622
0.056223, 1267, 520, 2172, 478, -503, 1622
0.056357, 1267, 520, 2172, 478, -503, 1622
0.056491, 1267, 520, 2172, 478, -503, 1622
0.056626, 1267, 520, 2172, 478, -503, 1622
0.056760, 1267, 520, 2172, 478, -503, 1622
0.056895, 1267, 520, 2172, 478, -503, 1622
0.057029, 3243, 436, 3013, 777, -821, 200
0.057164, 3243, 436, 3013, 777, -821, 200
0.057298, 3243, 436, 3013, 777, -821, 200
0.057432, 3243, 436, 3013, 777, -821, 200
0.057567, 3243, 436, 3013, 777, -821, 200
0.057701, 3243, 436, 3013, 777, -821, 200
0.057836, 3243, 436, 3013, 777, -821, 200
0.057970, 3243, 436, 3013, 777, -821, 200
0.058105, 866, -297, 2495, 1391, -828, -1610
0.058239, 866, -297, 2495, 1391, -828, -1610
0.058374, 866, -297, 2495, 1391, -828, -1610
0.058508, 866, -297, 2495, 1391, -828, -1610
0.058643, 866, -297, 2495, 1391, -828, -1610
0.058777, 866, -297, 2495, 1391, -828, -1610
0.058912, 866, -297, 2495, 1391, -828, -1610
0.059046, -1755, -195, 775, 1478, -621, -1480
0.059181, -1755, -195, 775, 1478, -621, -1480
0.059315, -1755, -195, 775, 1478, -621, -1480
0.059450, -1755, -195, 775, 1478, -621, -1480
0.059584, -1755, -195, 775, 1478, -621, -1480
0.059718, -1755, -195, 775, 1478, -621, -1480
0.059853, -1755, -195, 775, 1478, -621, -1480
0.059987, -1755, -195, 775, 1478, -621, -1480
0.060122, -1727, 158, 1053, 1091, -529, -199
0.060256, -1727, 158, 1053, 1091, -529, -199
0.060391, -1727, 158, 1053, 1091, -529, -199
0.060525, -1727, 158, 1053, 1091, -529, -199
0.060659, -1727, 158, 1053, 1091, -529, -199
0.060794, -1727, 158, 1053, 1091, -529, -199
0.060928, -1727, 158, 1053, 1091, -529, -199
0.061063, -1727, 158, 1053, 1091, -529, -199
0.061197, -547, 67, 2335, 967, -506, 672
0.061332, -547, 67, 2335, 967, -506, 672
0.061466, -547, 67, 2335, 967, -506, 672
0.061601, -547, 67, 2335, 967, -506, 672
0.061735, -547, 67, 2335, 967, -506, 672
0.061869, -547, 67, 2335, 967, -506, 672
0.062004, -547, 67, 2335, 967, -506, 672
0.062138, 162, 83, 1898, 886, -360, 896
0.062273, 162, 83, 1898, 886, -360, 896
0.062407, 162, 83, 1898, 886, -360, 896
0.062542, 162, 83, 1898, 886, -360, 896
0.062676, 162, 83, 1898, 886, -360, 896
0.062811, 162, 83, 1898, 886, -360, 896
0.062945, 162, 83, 1898, 886, -360, 896
0.063079, 162, 83, 1898, 886, -360, 896
0.063214, 335, 274, 1099, 289, -148, 860
0.063348, 335, 274, 1099, 289, -148, 860
0.063501, 335, 274, 1099, 289, -148, 860
0.063637, 335, 274, 1099, 289, -148, 860
0.063772, 335, 274, 1099, 289, -148, 860
0.063906, 335, 274, 1099, 289, -148, 860
0.064041, 335, 274, 1099, 289, -148, 860
0.064175, 475, 320, 1246, -493, -127, 675
0.064310, 475, 320, 1246, -493, -127, 675
0.064444, 475, 320, 1246, -493, -127, 675
0.064579, 475, 320, 1246, -493, -127, 675
0.064713, 475, 320, 1246, -493, -127, 675
0.064848, 475, 320, 1246, -493, -127, 675
0.064982, 475, 320, 1246, -493, -127, 675
0.065117, 475, 320, 1246, -493, -127, 675
0.065251, 169, 146, 1723, -950, -221, 417
0.065386, 169, 146, 1723, -950, -221, 417
0.065520, 169, 146, 1723, -950, -221, 417
0.065655, 169, 146, 1723, -950, -221, 417
0.065789, 169, 146, 1723, -950, -221, 417
0.065923, 169, 146, 1723, -950, -221, 417
0.066058, 169, 146, 1723, -950, -221, 417
0.066192, -182, 74, 2135, -942, -247, 417
0.066327, -182, 74, 2135, -942, -247, 417
0.066461, -182, 74, 2135, -942, -247, 417
0.066596, -182, 74, 2135, -942, -247, 417
0.066730, -182, 74, 2135, -942, -247, 417
0.066865, -182, 74, 2135, -942, -247, 417
0.066999, -182, 74, 2135, -942, -247, 417
0.067133, -182, 74, 2135, -942, -247, 417
0.067268, 55, 100, 2461, -672, -313, 556
0.067402, 55, 100, 2461, -672, -313, 556
0.067537, 55, 100, 2461, -672, -313, 556
0.067671, 55, 100, 2461, -672, -313, 556
0.067806, 55, 100, 2461, -672, -313, 556
0.067940, 55, 100, 2461, -672, -313, 556
0.068074, 55, 100, 2461, -672, -313, 556
0.068209, -100, 76, 2754, -280, -449, 541
0.068343, -100, 76, 2754, -280, -449, 541
0.068478, -100, 76, 2754, -280, -449, 541
0.068612, -100, 76, 2754, -280, -449, 541
0.068747, -100, 76, 2754, -280, -449, 541
0.068881, -100, 76, 2754, -280, -449, 541
0.069015, -100, 76, 2754, -280, -449, 541
0.069150, -100, 76, 2754, -280, -449, 541
0.069284, -708, 174, 2749, 235, -498, 741
0.069419, -708, 174, 2749, 235, -498, 741
0.069553, -708, 174, 2749, 235, -498, 741
0.069687, -708, 174, 2749, 235, -498, 741
0.069822, -708, 174, 2749, 235, -498, 741
0.069956, -708, 174, 2749, 235, -498, 741
0.070091, -708, 174, 2749, 235, -498, 741
0.070225, 224, 299, 2386, 564, -555, 1088
0.070360, 224, 299, 2386, 564, -555, 1088
0.070489, 224, 299, 2386, 564, -555, 1088
0.070624, 224, 299, 2386, 564, -555, 1088
0.070759, 224, 299, 2386, 564, -555, 1088
0.070893, 224, 299, 2386, 564, -555, 1088
0.071028, 224, 299, 2386, 564, -555, 1088
0.071162, 224, 299, 2386, 564, -555, 1088
0.071297, 2197, 156, 2001, 534, -721, 544
0.071432, 2197, 156, 2001, 534, -721, 544
0.071561, 2197, 156, 2001, 534, -721, 544
0.071697, 2197, 156, 2001, 534, -721, 544
0.071833, 2197, 156, 2001, 534, -721, 544
0.071967, 2197, 156, 2001, 534, -721, 544
0.072102, 2197, 156, 2001, 534, -721, 544
0.072236, 2965, -21, 1607, 251, -737, -1065
0.072371, 2965, -21, 1607, 251, -737, -1065
0.072506, 2965, -21, 1607, 251, -737, -1065
0.072641, 2965, -21, 1607, 251, -737, -1065
0.072775, 2965, -21, 1607, 251, -737, -1065
0.072910, 2965, -21, 1607, 251, -737, -1065
0.073045, 2965, -21, 1607, 251, -737, -1065
0.073180, 2965, -21, 1607, 251, -737, -1065
0.073314, 1816, -19, 1718, 3, -344, -2706
0.073449, 1816, -19, 1718, 3, -344, -2706
0.073584, 1816, -19, 1718, 3, -344, -2706
0.073718, 1816, -19, 1718, 3, -344, -2706
0.073853, 1816, -19, 1718, 3, -344, -2706
0.073987, 1816, -19, 1718, 3, -344, -2706
0.074122, 1816, -19, 1718, 3, -344, -2706
0.074257, -257, 87, 2278, 257, 402, -3309
0.074393, -257, 87, 2278, 257, 402, -3309
0.074527, -257, 87, 2278, 257, 402, -3309
0.074662, -257, 87, 2278, 257, 402, -3309
0.074797, -257, 87, 2278, 257, 402, -3309
0.074931, -257, 87, 2278, 257, 402, -3309
0.075066, -257, 87, 2278, 257, 402, -3309
0.075201, -257, 87, 2278, 257, 402, -3309
0.075335, -1344, 293, 2110, 794, 1124, -2734
0.075470, -1344, 293, 2110, 794, 1124, -2734
0.075605, -1344, 293, 2110, 794, 1124, -2734
0.075740, -1344, 293, 2110, 794, 1124, -2734
0.075875, -1344, 293, 2110, 794, 1124, -2734
0.076010, -1344, 293, 2110, 794, 1124, -2734
0.076144, -1344, 293, 2110, 794, 1124, -2734
0.076279, -1541, 322, 1558, 907, 1429, -1719
0.076414, -1541, 322, 1558, 907, 1429, -1719
0.076557, -1541, 322, 1558, 907, 1429, -1719
0.076692, -1541, 322, 1558, 907, 1429, -1719
0.076827, -1541, 322, 1558, 907, 1429, -1719
0.076962, -1541, 322, 1558, 907, 1429, -1719
0.077096, -1541, 322, 1558, 907, 1429, -1719
0.077231, -1541, 322, 1558, 907, 1429, -1719
0.077365, -1271, 240, 1815, 630, 1254, -686
0.077500, -1271, 240, 1815, 630, 1254, -686
0.077635, -1271, 240, 1815, 630, 1254, -686
0.077769, -1271, 240, 1815, 630, 1254, -686
0.077904, -1271, 240, 1815, 630, 1254, -686
0.078039, -1271, 240, 1815, 630, 1254, -686
0.078173, -1271, 240, 1815, 630, 1254, -686
0.078308, -232, 245, 2573, 542, 807, 8
0.078443, -232, 245, 2573, 542, 807, 8
0.078577, -232, 245, 2573, 542, 807, 8
0.078712, -232, 245, 2573, 542, 807, 8
0.078846, -232, 245, 2573, 542, 807, 8
0.078980, -232, 245, 2573, 542, 807, 8
0.079113, -232, 245, 2573, 542, 807, 8
0.079247, -232, 245, 2573, 542, 807, 8
0.079381, 347, 206, 2546, 674, 390, 47
0.079515, 347, 206, 2546, 674, 390, 47
0.079649, 347, 206, 2546, 674, 390, 47
0.079783, 347, 206, 2546, 674, 390, 47
0.079917, 347, 206, 2546, 674, 390, 47
0.080051, 347, 206, 2546, 674, 390, 47
0.080185, 347, 206, 2546, 674, 390, 47
0.080319, 347, 206, 2546, 674, 390, 47
0.080453, 494, 378, 2057, 695, 86, -176
0.080582, 494, 378, 2057, 695, 86, -176
0.080716, 494, 378, 2057, 695, 86, -176
0.080850, 494, 378, 2057, 695, 86, -176
0.080984, 494, 378, 2057, 695, 86, -176
0.081118, 494, 378, 2057, 695, 86, -176
0.081252, 494, 378, 2057, 695, 86, -176
0.081386, 958, 550, 2194, 699, -222, -544
0.081514, 958, 550, 2194, 699, -222, -544
0.081650, 958, 550, 2194, 699, -222, -544
0.081784, 958, 550, 2194, 699, -222, -544
0.081918, 958, 550, 2194, 699, -222, -544
0.082052, 958, 550, 2194, 699, -222, -544
0.082186, 958, 550, 2194, 699, -222, -544
0.082320, 958, 550, 2194, 699, -222, -544
0.082455, 621, 443, 2221, 862, -438, -1047
0.082591, 621, 443, 2221, 862, -438, -1047
0.082726, 621, 443, 2221, 862, -438, -1047
0.082860, 621, 443, 2221, 862, -438, -1047
0.082995, 621, 443, 2221, 862, -438, -1047
0.083129, 621, 443, 2221, 862, -438, -1047
0.083263, 621, 443, 2221, 862, -438, -1047
0.083398, -113, 387, 1397, 895, -475, -1204
0.083532, -113, 387, 1397, 895, -475, -1204
0.083667, -113, 387, 1397, 895, -475, -1204
0.083801, -113, 387, 1397, 895, -475, -1204
0.083935, -113, 387, 1397, 895, -475, -1204
0.084070, -113, 387, 1397, 895, -475, -1204
0.084204, -113, 387, 1397, 895, -475, -1204
0.084338, -113, 387, 1397, 895, -475, -1204
0.084473, -1203, -3, 1342, 582, -365, -828
0.084607, -1203, -3, 1342, 582, -365, -828
0.084742, -1203, -3, 1342, 582, -365, -828
0.084876, -1203, -3, 1342, 582, -365, -828
0.085011, -1203, -3, 1342, 582, -365, -828
0.085145, -1203, -3, 1342, 582, -365, -828
0.085279, -1203, -3, 1342, 582, -365, -828
0.085414, -1306, 11, 2832, 653, -185, 207
0.085548, -1306, 11, 2832, 653, -185, 207
0.085683, -1306, 11, 2832, 653, -185, 207
0.085817, -1306, 11, 2832, 653, -185, 207
0.085951, -1306, 11, 2832, 653, -185, 207
0.086086, -1306, 11, 2832, 653, -185, 207
0.086220, -1306, 11, 2832, 653, -185, 207
0.086355, -1306, 11, 2832, 653, -185, 207
0.086489, 1903, 984, 4245, 1628, -121, 504
0.086624, 1903, 984, 4245, 1628, -121, 504
0.086758, 1903, 984, 4245, 1628, -121, 504
0.086892, 1903, 984, 4245, 1628, -121, 504
0.087027, 1903, 984, 4245, 1628, -121, 504
0.087161, 1903, 984, 4245, 1628, -121, 504
0.087296, 1903, 984, 4245, 1628, -121, 504
0.087430, 636, 248, 3302, 2575, 232, -740
0.087564, 636, 248, 3302, 2575, 232, -740
0.087699, 636, 248, 3302, 2575, 232, -740
0.087833, 636, 248, 3302, 2575, 232, -740
0.087968, 636, 248, 3302, 2575, 232, -740
0.088102, 636, 248, 3302, 2575, 232, -740
0.088236, 636, 248, 3302, 2575, 232, -740
0.088371, 636, 248, 3302, 2575, 232, -740
0.088505, -5243, -1135, -37, 2167, 738, 180
0.088640, -5243, -1135, -37, 2167, 738, 180
0.088774, -5243, -1135, -37, 2167, 738, 180
0.088908, -5243, -1135, -37, 2167, 738, 180
0.089043, -5243, -1135, -37, 2167, 738, 180
0.089177, -5243, -1135, -37, 2167, 738, 180
0.089311, -5243, -1135, -37, 2167, 738, 180
0.089446, -5243, -1135, -37, 2167, 738, 180
0.089587, -4083, -294, -668, 650, 201, 3648
0.089723, -4083, -294, -668, 650, 201, 3648
0.089858, -4083, -294, -668, 650, 201, 3648
0.089992, -4083, -294, -668, 650, 201, 3648
0.090127, -4083, -294, -668, 650, 201, 3648
0.090261, -4083, -294, -668, 650, 201, 3648
0.090396, -4083, -294, -668, 650, 201, 3648
0.090530, 818, 475, 2117, -349, -1092, 4915
0.090665, 818, 475, 2117, -349, -1092, 4915
0.090799, 818, 475, 2117, -349, -1092, 4915
0.090934, 818, 475, 2117, -349, -1092, 4915
0.091068, 818, 475, 2117, -349, -1092, 4915
0.091203, 818, 475, 2117, -349, -1092, 4915
0.091337, 818, 475, 2117, -349, -1092, 4915
0.091472, 818, 475, 2117, -349, -1092, 4915
0.091606, 1997, 216, 2982, -568, -1750, 3703
0.091741, 1997, 216, 2982, -568, -1750, 3703
0.091875, 1997, 216, 2982, -568, -1750, 3703
0.092009, 1997, 216, 2982, -568, -1750, 3703
0.092144, 1997, 216, 2982, -568, -1750, 3703
0.092278, 1997, 216, 2982, -568, -1750, 3703
0.092413, 1997, 216, 2982, -568, -1750, 3703
0.092547, 1807, 197, 1950, -790, -1614, 2460
0.092682, 1807, 197, 1950, -790, -1614, 2460
0.092816, 1807, 197, 1950, -790, -1614, 2460
0.092950, 1807, 197, 1950, -790, -1614, 2460
0.093085, 1807, 197, 1950, -790, -1614, 2460
0.093219, 1807, 197, 1950, -790, -1614, 2460
0.093354, 1807, 197, 1950, -790, -1614, 2460
0.093488, 1807, 197, 1950, -790, -1614, 2460
0.093622, 1756, 316, 1931, -1016, -1438, 1344
0.093757, 1756, 316, 1931, -1016, -1438, 1344
0.093892, 1756, 316, 1931, -1016, -1438, 1344
0.094026, 1756, 316, 1931, -1016, -1438, 1344
0.094160, 1756, 316, 1931, -1016, -1438, 1344
0.094295, 1756, 316, 1931, -1016, -1438, 1344
0.094429, 1756, 316, 1931, -1016, -1438, 1344
0.094564, 636, 158, 2685, -734, -1512, 358
0.094699, 636, 158, 2685, -734, -1512, 358
0.094833, 636, 158, 2685, -734, -1512, 358
0.094968, 636, 158, 2685, -734, -1512, 358
0.095103, 636, 158, 2685, -734, -1512, 358
0.095237, 636, 158, 2685, -734, -1512, 358
0.095372, 636, 158, 2685, -734, -1512, 358
0.095507, 636, 158, 2685, -734, -1512, 358
0.095641, -507, -120, 3213, 241, -1426, 180
0.095776, -507, -120, 3213, 241, -1426, 180
0.095911, -507, -120, 3213, 241, -1426, 180
0.096045, -507, -120, 3213, 241, -1426, 180
0.096180, -507, -120, 3213, 241, -1426, 180
0.096315, -507, -120, 3213, 241, -1426, 180
0.096449, -507, -120, 3213, 241, -1426, 180
0.096584, 29, -36, 3419, 1393, -1016, 505
0.096719, 29, -36, 3419, 1393, -1016, 505
0.096853, 29, -36, 3419, 1393, -1016, 505
0.096988, 29, -36, 3419, 1393, -1016, 505
0.097123, 29, -36, 3419, 1393, -1016, 505
0.097257, 29, -36, 3419, 1393, -1016, 505
0.097392, 29, -36, 3419, 1393, -1016, 505
0.097527, 29, -36, 3419, 1393, -1016, 505
0.097661, 1140, 140, 3194, 2193, -548, 355
0.097796, 1140, 140, 3194, 2193, -548, 355
0.097931, 1140, 140, 3194, 2193, -548, 355
0.098065, 1140, 140, 3194, 2193, -548, 355
0.098200, 1140, 140, 3194, 2193, -548, 355
0.098335, 1140, 140, 3194, 2193, -548, 355
0.098470, 1140, 140, 3194, 2193, -548, 355
0.098605, 2358, 246, 2502, 2547, -92, -513
0.098740, 2358, 246, 2502, 2547, -92, -513
0.098874, 2358, 246, 2502, 2547, -92, -513
0.099009, 2358, 246, 2502, 2547, -92, -513
0.099143, 2358, 246, 2502, 2547, -92, -513
0.099278, 2358, 246, 2502, 2547, -92, -513
0.099413, 2358, 246, 2502, 2547, -92, -513
0.099547, 2358, 246, 2502, 2547, -92, -513
0.099682, 3845, 273, 2447, 2671, 357, -2262
0.099816, 3845, 273, 2447, 2671, 357, -2262
0.099951, 3845, 273, 2447, 2671, 357, -2262
0.100086, 3845, 273, 2447, 2671, 357, -2262
0.100220, 3845, 273, 2447, 2671, 357, -2262
0.100355, 3845, 273, 2447, 2671, 357, -2262
0.100490, 3845, 273, 2447, 2671, 357, -2262
0.100624, 3321, 168, 2960, 3092, 901, -4633
0.100759, 3321, 168, 2960, 3092, 901, -4633
0.100894, 3321, 168, 2960, 3092, 901, -4633
0.101029, 3321, 168, 2960, 3092, 901, -4633
0.101163, 3321, 168, 2960, 3092, 901, -4633
0.101298, 3321, 168, 2960, 3092, 901, -4633
0.101433, 3321, 168, 2960, 3092, 901, -4633
0.101567, 3321, 168, 2960, 3092, 901, -4633
0.101702, 655, 82, 1464, 3567, 1694, -6123
0.101837, 655, 82, 1464, 3567, 1694, -6123
0.101971, 655, 82, 1464, 3567, 1694, -6123
0.102110, 655, 82, 1464, 3567, 1694, -6123
0.102245, 655, 82, 1464, 3567, 1694, -6123
0.102381, 655, 82, 1464, 3567, 1694, -6123
0.102515, 655, 82, 1464, 3567, 1694, -6123
0.102650, -1240, 29, -870, 2925, 2317, -5953
0.102785, -1240, 29, -870, 2925, 2317, -5953
0.102919, -1240, 29, -870, 2925, 2317, -5953
0.103054, -1240, 29, -870, 2925, 2317, -5953
0.103189, -1240, 29, -870, 2925, 2317, -5953
0.103323, -1240, 29, -870, 2925, 2317, -5953
0.103458, -1240, 29, -870, 2925, 2317, -5953
0.103592, -1240, 29, -870, 2925, 2317, -5953
0.103727, -1415, 197, -576, 1417, 2289, -5015
0.103862, -1415, 197, -576, 1417, 2289, -5015
0.103997, -1415, 197, -576, 1417, 2289, -5015
0.104131, -1415, 197, -576, 1417, 2289, -5015
0.104266, -1415, 197, -576, 1417, 2289, -5015
0.104400, -1415, 197, -576, 1417, 2289, -5015
0.104535, -1415, 197, -576, 1417, 2289, -5015
0.104670, -2183, 281, 1719, 501, 2063, -3945
0.104804, -2183, 281, 1719, 501, 2063, -3945
0.104939, -2183, 281, 1719, 501, 2063, -3945
0.105074, -2183, 281, 1719, 501, 2063, -3945
0.105208, -2183, 281, 1719, 501, 2063, -3945
0.105343, -2183, 281, 1719, 501, 2063, -3945
0.105478, -2183, 281, 1719, 501, 2063, -3945
0.105612, -2183, 281, 1719, 501, 2063, -3945
0.105747, -3313, 166, 3096, 657, 2133, -2099
0.105882, -3313, 166, 3096, 657, 2133, -2099
0.106017, -3313, 166, 3096, 657, 2133, -2099
0.106151, -3313, 166, 3096, 657, 2133, -2099
0.106286, -3313, 166, 3096, 657, 2133, -2099
0.106421, -3313, 166, 3096, 657, 2133, -2099
0.106555, -3313, 166, 3096, 657, 2133, -2099
0.106690, -1608, 284, 2441, 996, 1947, -60
0.106825, -1608, 284, 2441, 996, 1947, -60
0.106959, -1608, 284, 2441, 996, 1947, -60
0.107094, -1608, 284, 2441, 996, 1947, -60
0.107229, -1608, 284, 2441, 996, 1947, -60
0.107363, -1608, 284, 2441, 996, 1947, -60
0.107498, -1608, 284, 2441, 996, 1947, -60
0.107633, -1608, 284, 2441, 996, 1947, -60
0.107767, 876, 436, 1804, 667, 998, 398
0.107902, 876, 436, 1804, 667, 998, 398
0.108037, 876, 436, 1804, 667, 998, 398
0.108171, 876, 436, 1804, 667, 998, 398
0.108306, 876, 436, 1804, 667, 998, 398
0.108441, 876, 436, 1804, 667, 998, 398
0.108575, 876, 436, 1804, 667, 998, 398
0.108710, 1494, 500, 2302, 246, -191, -417
0.108845, 1494, 500, 2302, 246, -191, -417
0.108980, 1494, 500, 2302, 246, -191, -417
0.109114, 1494, 500, 2302, 246, -191, -417
0.109249, 1494, 500, 2302, 246, -191, -417
0.109383, 1494, 500, 2302, 246, -191, -417
0.109518, 1494, 500, 2302, 246, -191, -417
0.109653, 1494, 500, 2302, 246, -191, -417
0.109787, 1293, 516, 2563, 439, -810, -1320
0.109922, 1293, 516, 2563, 439, -810, -1320
0.110057, 1293, 516, 2563, 439, -810, -1320
0.110191, 1293, 516, 2563, 439, -810, -1320
0.110326, 1293, 516, 2563, 439, -810, -1320
0.110461, 1293, 516, 2563, 439, -810, -1320
0.110595, 1293, 516, 2563, 439, -810, -1320
0.110729, 1293, 516, 2563, 439, -810, -1320
0.110863, 1026, 484, 1745, 752, -769, -2023
0.110997, 1026, 484, 1745, 752, -769, -2023
0.111131, 1026, 484, 1745, 752, -769, -2023
0.111266, 1026, 484, 1745, 752, -769, -2023
0.111400, 1026, 484, 1745, 752, -769, -2023
0.111535, 1026, 484, 1745, 752, -769, -2023
0.111669, 1026, 484, 1745, 752, -769, -2023
0.111804, -646, 107, 1267, 636, -372, -2263
0.111938, -646, 107, 1267, 636, -372, -2263
0.112073, -646, 107, 1267, 636, -372, -2263
0.112207, -646, 107, 1267, 636, -372, -2263
0.112341, -646, 107, 1267, 636, -372, -2263
0.112476, -646, 107, 1267, 636, -372, -2263
0.112610, -646, 107, 1267, 636, -372, -2263
0.112745, -646, 107, 1267, 636, -372, -2263
0.112879, -3078, -241, 2251, 647, 232, -1074
0.113014, -3078, -241, 2251, 647, 232, -1074
0.113148, -3078, -241, 2251, 647, 232, -1074
0.113283, -3078, -241, 2251, 647, 232, -1074
0.113417, -3078, -241, 2251, 647, 232, -1074
0.113552, -3078, -241, 2251, 647, 232, -1074
0.113686, -3078, -241, 2251, 647, 232, -1074
0.113820, -855, 487, 3510, 1319, 548, 846
0.113955, -855, 487, 3510, 1319, 548, 846
0.114089, -855, 487, 3510, 1319, 548, 846
0.114224, -855, 487, 3510, 1319, 548, 846
0.114358, -855, 487, 3510, 1319, 548, 846
0.114489, -855, 487, 3510, 1319, 548, 846
0.114623, -855, 487, 3510, 1319, 548, 846
0.114768, -855, 487, 3510, 1319, 548, 846
0.114904, 2212, 853, 3840, 2227, 505, 535
0.115039, 2212, 853, 3840, 2227, 505, 535
0.115173, 2212, 853, 3840, 2227, 505, 535
0.115308, 2212, 853, 3840, 2227, 505, 535
0.115443, 2212, 853, 3840, 2227, 505, 535
0.115572, 2212, 853, 3840, 2227, 505, 535
0.115707, 2212, 853, 3840, 2227, 505, 535
0.115841, -2245, -252, 1463, 2285, 760, -320
0.115976, -2245, -252, 1463, 2285, 760, -320
0.116111, -2245, -252, 1463, 2285, 760, -320
0.116246, -2245, -252, 1463, 2285, 760, -320
0.116380, -2245, -252, 1463, 2285, 760, -320
0.116515, -2245, -252, 1463, 2285, 760, -320
0.116649, -2245, -252, 1463, 2285, 760, -320
0.116784, -2245, -252, 1463, 2285, 760, -320
0.116919, -6384, -731, -1120, 798, 853, 2324
0.117054, -6384, -731, -1120, 798, 853, 2324
0.117188, -6384, -731, -1120, 798, 853, 2324
0.117323, -6384, -731, -1120, 798, 853, 2324
0.117458, -6384, -731, -1120, 798, 853, 2324
0.117592, -6384, -731, -1120, 798, 853, 2324
0.117727, -6384, -731, -1120, 798, 853, 2324
0.117861, -2634, 105, 684, -808, -105, 5723
0.117996, -2634, 105, 684, -808, -105, 5723
0.118131, -2634, 105, 684, -808, -105, 5723
0.118265, -2634, 105, 684, -808, -105, 5723
0.118401, -2634, 105, 684, -808, -105, 5723
0.118535, -2634, 105, 684, -808, -105, 5723
0.118670, -2634, 105, 684, -808, -105, 5723
0.118804, -2634, 105, 684, -808, -105, 5723
0.118939, 909, 480, 2940, -1347, -1327, 6153
0.119074, 909, 480, 2940, -1347, -1327, 6153
0.119209, 909, 480, 2940, -1347, -1327, 6153
0.119343, 909, 480, 2940, -1347, -1327, 6153
0.119478, 909, 480, 2940, -1347, -1327, 6153
0.119613, 909, 480, 2940, -1347, -1327, 6153
0.119747, 909, 480, 2940, -1347, -1327, 6153
0.119882, 767, 143, 2392, -1615, -1823, 5332
0.120017, 767, 143, 2392, -1615, -1823, 5332
0.120151, 767, 143, 2392, -1615, -1823, 5332
0.120286, 767, 143, 2392, -1615, -1823, 5332
0.120420, 767, 143, 2392, -1615, -1823, 5332
0.120555, 767, 143, 2392, -1615, -1823, 5332
0.120690, 767, 143, 2392, -1615, -1823, 5332
0.120824, 767, 143, 2392, -1615, -1823, 5332
0.120959, 1209, 28, 1953, -1881, -2041, 4783
0.121094, 1209, 28, 1953, -1881, -2041, 4783
0.121229, 1209, 28, 1953, -1881, -2041, 4783
0.121364, 1209, 28, 1953, -1881, -2041, 4783
0.121498, 1209, 28, 1953, -1881, -2041, 4783
0.121633, 1209, 28, 1953, -1881, -2041, 4783
0.121767, 1209, 28, 1953, -1881, -2041, 4783
0.121897, 2588, 101, 2444, -1731, -2582, 3672
0.122032, 2588, 101, 2444, -1731, -2582, 3672
0.122169, 2588, 101, 2444, -1731, -2582, 3672
0.122304, 2588, 101, 2444, -1731, -2582, 3672
0.122440, 2588, 101, 2444, -1731, -2582, 3672
0.122575, 2588, 101, 2444, -1731, -2582, 3672
0.122711, 2588, 101, 2444, -1731, -2582, 3672
0.122849, 2588, 101, 2444, -1731, -2582, 3672
0.122989, 3966, 219, 2682, -1100, -3142, 1646
0.123134, 3966, 219, 2682, -1100, -3142, 1646
0.123270, 3966, 219, 2682, -1100, -3142, 1646
0.123406, 3966, 219, 2682, -1100, -3142, 1646
0.123541, 3966, 219, 2682, -1100, -3142, 1646
0.123676, 3966, 219, 2682, -1100, -3142, 1646
0.123807, 3966, 219, 2682, -1100, -3142, 1646
0.123941, 5274, 618, 2713, -245, -2959, -1092
0.124076, 5274, 618, 2713, -245, -2959, -1092
0.124211, 5274, 618, 2713, -245, -2959, -1092
0.124346, 5274, 618, 2713, -245, -2959, -1092
0.124480, 5274, 618, 2713, -245, -2959, -1092
0.124615, 5274, 618, 2713, -245, -2959, -1092
0.124749, 5274, 618, 2713, -245, -2959, -1092
0.124884, 5274, 618, 2713, -245, -2959, -1092
0.125019, 5098, 894, 3276, 756, -1750, -4206
0.125154, 5098, 894, 3276, 756, -1750, -4206
0.125288, 5098, 894, 3276, 756, -1750, -4206
0.125423, 5098, 894, 3276, 756, -1750, -4206
0.125557, 5098, 894, 3276, 756, -1750, -4206
0.125692, 5098, 894, 3276, 756, -1750, -4206
0.125826, 5098, 894, 3276, 756, -1750, -4206
0.125961, 2452, 434, 3503, 2264, 140, -6561
0.126096, 2452, 434, 3503, 2264, 140, -6561
0.126230, 2452, 434, 3503, 2264, 140, -6561
0.126365, 2452, 434, 3503, 2264, 140, -6561
0.126511, 2452, 434, 3503, 2264, 140, -6561
0.126645, 2452, 434, 3503, 2264, 140, -6561
0.126780, 2452, 434, 3503, 2264, 140, -6561
0.126915, 2452, 434, 3503, 2264, 140, -6561
0.127063, -522, -74, 2266, 3750, 2039, -7074
0.127200, -522, -74, 2266, 3750, 2039, -7074
0.127334, -522, -74, 2266, 3750, 2039, -7074
0.127469, -522, -74, 2266, 3750, 2039, -7074
0.127604, -522, -74, 2266, 3750, 2039, -7074
0.127738, -522, -74, 2266, 3750, 2039, -7074
0.127873, -522, -74, 2266, 3750, 2039, -7074
0.128008, -1782, -45, 705, 3960, 3285, -6055
0.128142, -1782, -45, 705, 3960, 3285, -6055
0.128277, -1782, -45, 705, 3960, 3285, -6055
0.128411, -1782, -45, 705, 3960, 3285, -6055
0.128546, -1782, -45, 705, 3960, 3285, -6055
0.128681, -1782, -45, 705, 3960, 3285, -6055
0.128815, -1782, -45, 705, 3960, 3285, -6055
0.128950, -1782, -45, 705, 3960, 3285, -6055
0.129084, -2693, -188, 489, 2795, 3806, -4426
0.129223, -2693, -188, 489, 2795, 3806, -4426
0.129353, -2693, -188, 489, 2795, 3806, -4426
0.129488, -2693, -188, 489, 2795, 3806, -4426
0.129623, -2693, -188, 489, 2795, 3806, -4426
0.129758, -2693, -188, 489, 2795, 3806, -4426
0.129892, -2693, -188, 489, 2795, 3806, -4426
0.130027, -3614, -283, 1973, 1614, 3912, -2409
0.130162, -3614, -283, 1973, 1614, 3912, -2409
0.130296, -3614, -283, 1973, 1614, 3912, -2409
0.130432, -3614, -283, 1973, 1614, 3912, -2409
0.130566, -3614, -283, 1973, 1614, 3912, -2409
0.130701, -3614, -283, 1973, 1614, 3912, -2409
0.130836, -3614, -283, 1973, 1614, 3912, -2409
0.130970, -3614, -283, 1973, 1614, 3912, -2409
0.131105, -2205, 157, 3260, 1356, 3550, -480
0.131239, -2205, 157, 3260, 1356, 3550, -480
0.131374, -2205, 157, 3260, 1356, 3550, -480
0.131509, -2205, 157, 3260, 1356, 3550, -480
0.131643, -2205, 157, 3260, 1356, 3550, -480
0.131778, -2205, 157, 3260, 1356, 3550, -480
0.131912, -2205, 157, 3260, 1356, 3550, -480
0.132047, -526, 294, 2617, 1343, 2589, 162
0.132181, -526, 294, 2617, 1343, 2589, 162
0.132316, -526, 294, 2617, 1343, 2589, 162
0.132451, -526, 294, 2617, 1343, 2589, 162
0.132585, -526, 294, 2617, 1343, 2589, 162
0.132720, -526, 294, 2617, 1343, 2589, 162
0.132854, -526, 294, 2617, 1343, 2589, 162
0.132989, -526, 294, 2617, 1343, 2589, 162
0.133123, -1684, 63, 800, 704, 1250, 266
0.133258, -1684, 63, 800, 704, 1250, 266
0.133393, -1684, 63, 800, 704, 1250, 266
0.133527, -1684, 63, 800, 704, 1250, 266
0.133662, -1684, 63, 800, 704, 1250, 266
0.133796, -1684, 63, 800, 704, 1250, 266
0.133931, -1684, 63, 800, 704, 1250, 266
0.134066, -2668, 64, 133, -506, -272, 1407
0.134200, -2668, 64, 133, -506, -272, 1407
0.134335, -2668, 64, 133, -506, -272, 1407
0.134470, -2668, 64, 133, -506, -272, 1407
0.134604, -2668, 64, 133, -506, -272, 1407
0.134739, -2668, 64, 133, -506, -272, 1407
0.134874, -2668, 64, 133, -506, -272, 1407
0.135008, -2668, 64, 133, -506, -272, 1407
0.135143, -901, 204, 1495, -1338, -1781, 2682
0.135277, -901, 204, 1495, -1338, -1781, 2682
0.135412, -901, 204, 1495, -1338, -1781, 2682
0.135547, -901, 204, 1495, -1338, -1781, 2682
0.135681, -901, 204, 1495, -1338, -1781, 2682
0.135816, -901, 204, 1495, -1338, -1781, 2682
0.135950, -901, 204, 1495, -1338, -1781, 2682
0.136085, 1214, 263, 2465, -1383, -2747, 2698
0.136220, 1214, 263, 2465, -1383, -2747, 2698
0.136354, 1214, 263, 2465, -1383, -2747, 2698
0.136489, 1214, 263, 2465, -1383, -2747, 2698
0.136623, 1214, 263, 2465, -1383, -2747, 2698
0.136758, 1214, 263, 2465, -1383, -2747, 2698
0.136893, 1214, 263, 2465, -1383, -2747, 2698
0.137027, 1214, 263, 2465, -1383, -2747, 2698
0.137162, 1947, 260, 2137, -1284, -2756, 1817
0.137296, 1947, 260, 2137, -1284, -2756, 1817
0.137431, 1947, 260, 2137, -1284, -2756, 1817
0.137565, 1947, 260, 2137, -1284, -2756, 1817
0.137700, 1947, 260, 2137, -1284, -2756, 1817
0.137835, 1947, 260, 2137, -1284, -2756, 1817
0.137969, 1947, 260, 2137, -1284, -2756, 1817
0.138104, 1997, 253, 1861, -1341, -2062, 794
0.138238, 1997, 253, 1861, -1341, -2062, 794
0.138374, 1997, 253, 1861, -1341, -2062, 794
0.138508, 1997, 253, 1861, -1341, -2062, 794
0.138643, 1997, 253, 1861, -1341, -2062, 794
0.138778, 1997, 253, 1861, -1341, -2062, 794
0.138912, 1997, 253, 1861, -1341, -2062, 794
0.139047, 1997, 253, 1861, -1341, -2062, 794
0.139181, 1729, 232, 2136, -1267, -1097, -171
0.139316, 1729, 232, 2136, -1267, -1097, -171
0.139457, 1729, 232, 2136, -1267, -1097, -171
0.139592, 1729, 232, 2136, -1267, -1097, -171
0.139726, 1729, 232, 2136, -1267, -1097, -171
0.139861, 1729, 232, 2136, -1267, -1097, -171
0.139995, 1729, 232, 2136, -1267, -1097, -171
0.140130, 951, 216, 2468, -807, -30, -902
0.140264, 951, 216, 2468, -807, -30, -902
0.140399, 951, 216, 2468, -807, -30, -902
0.140533, 951, 216, 2468, -807, -30, -902
0.140668, 951, 216, 2468, -807, -30, -902
0.140802, 951, 216, 2468, -807, -30, -902
0.140937, 951, 216, 2468, -807, -30, -902
0.141071, 951, 216, 2468, -807, -30, -902
0.141206, 176, 213, 2110, -293, 1036, -1108
0.141341, 176, 213, 2110, -293, 1036, -1108
0.141475, 176, 213, 2110, -293, 1036, -1108
0.141610, 176, 213, 2110, -293, 1036, -1108
0.141744, 176, 213, 2110, -293, 1036, -1108
0.141879, 176, 213, 2110, -293, 1036, -1108
0.142013, 176, 213, 2110, -293, 1036, -1108
0.142148, 176, 213, 2110, -293, 1036, -1108
0.142282, 632, 272, 1551, -242, 1795, -1063
0.142418, 632, 272, 1551, -242, 1795, -1063
0.142552, 632, 272, 1551, -242, 1795, -1063
0.142687, 632, 272, 1551, -242, 1795, -1063
0.142821, 632, 272, 1551, -242, 1795, -1063
0.142959, 632, 272, 1551, -242, 1795, -1063
0.143094, 632, 272, 1551, -242, 1795, -1063
0.143229, 1572, 399, 1813, -467, 2096, -1585
0.143364, 1572, 399, 1813, -467, 2096, -1585
0.143498, 1572, 399, 1813, -467, 2096, -1585
0.143633, 1572, 399, 1813, -467, 2096, -1585
0.143767, 1572, 399, 1813, -467, 2096, -1585
0.143902, 1572, 399, 1813, -467, 2096, -1585
0.144036, 1572, 399, 1813, -467, 2096, -1585
0.144171, 1572, 399, 1813, -467, 2096, -1585
0.144305, 185, 184, 2336, -483, 2297, -2404
0.144440, 185, 184, 2336, -483, 2297, -2404
0.144575, 185, 184, 2336, -483, 2297, -2404
0.144709, 185, 184, 2336, -483, 2297, -2404
0.144844, 185, 184, 2336, -483, 2297, -2404
0.144978, 185, 184, 2336, -483, 2297, -2404
0.145113, 185, 184, 2336, -483, 2297, -2404
0.145247, -3613, -208, 1916, -350, 2497, -1809
0.145382, -3613, -208, 1916, -350, 2497, -1809
0.145516, -3613, -208, 1916, -350, 2497, -1809
0.145651, -3613, -208, 1916, -350, 2497, -1809
0.145785, -3613, -208, 1916, -350, 2497, -1809
0.145920, -3613, -208, 1916, -350, 2497, -1809
0.146054, -3613, -208, 1916, -350, 2497, -1809
0.146189, -3613, -208, 1916, -350, 2497, -1809
0.146323, -5415, -105, 1339, -493, 2127, 924
0.146458, -5415, -105, 1339, -493, 2127, 924
0.146593, -5415, -105, 1339, -493, 2127, 924
0.146727, -5415, -105, 1339, -493, 2127, 924
0.146862, -5415, -105, 1339, -493, 2127, 924
0.146996, -5415, -105, 1339, -493, 2127, 924
0.147131, -5415, -105, 1339, -493, 2127, 924
0.147265, -2846, 194, 1777, -995, 819, 3806
0.147400, -2846, 194, 1777, -995, 819, 3806
0.147535, -2846, 194, 1777, -995, 819, 3806
0.147669, -2846, 194, 1777, -995, 819, 3806
0.147804, -2846, 194, 1777, -995, 819, 3806
0.147938, -2846, 194, 1777, -995, 819, 3806
0.148073, -2846, 194, 1777, -995, 819, 3806
0.148209, -2846, 194, 1777, -995, 819, 3806
0.148344, 548, 290, 2256, -1625, -849, 4660
0.148480, 548, 290, 2256, -1625, -849, 4660
0.148620, 548, 290, 2256, -1625, -849, 4660
0.148758, 548, 290, 2256, -1625, -849, 4660
0.148894, 548, 290, 2256, -1625, -849, 4660
0.149030, 548, 290, 2256, -1625, -849, 4660
0.149166, 548, 290, 2256, -1625, -849, 4660
0.149300, 1673, 261, 1995, -2253, -2016, 3864
0.149435, 1673, 261, 1995, -2253, -2016, 3864
0.149570, 1673, 261, 1995, -2253, -2016, 3864
0.149706, 1673, 261, 1995, -2253, -2016, 3864
0.149841, 1673, 261, 1995, -2253, -2016, 3864
0.149985, 1673, 261, 1995, -2253, -2016, 3864
0.150123, 1673, 261, 1995, -2253, -2016, 3864
0.150259, 1673, 261, 1995, -2253, -2016, 3864
0.150394, 1245, 161, 1758, -2718, -2472, 2842
0.150529, 1245, 161, 1758, -2718, -2472, 2842
0.150664, 1245, 161, 1758, -2718, -2472, 2842
0.150805, 1245, 161, 1758, -2718, -2472, 2842
0.150942, 1245, 161, 1758, -2718, -2472, 2842
0.151086, 1245, 161, 1758, -2718, -2472, 2842
0.151229, 1245, 161, 1758, -2718, -2472, 2842
0.151366, -35, 75, 1972, -2757, -2425, 2362
0.151501, -35, 75, 1972, -2757, -2425, 2362
0.151636, -35, 75, 1972, -2757, -2425, 2362
0.151798, -35, 75, 1972, -2757, -2425, 2362
0.151945, -35, 75, 1972, -2757, -2425, 2362
0.152084, -35, 75, 1972, -2757, -2425, 2362
0.152225, -35, 75, 1972, -2757, -2425, 2362
0.152360, -1052, 80, 2208, -2367, -2074, 2761
0.152497, -1052, 80, 2208, -2367, -2074, 2761
0.152631, -1052, 80, 2208, -2367, -2074, 2761
0.152766, -1052, 80, 2208, -2367, -2074, 2761
0.152905, -1052, 80, 2208, -2367, -2074, 2761
0.153040, -1052, 80, 2208, -2367, -2074, 2761
0.153174, -1052, 80, 2208, -2367, -2074, 2761
0.153315, -398, 124, 2215, -1925, -1661, 3487
0.153459, -398, 124, 2215, -1925, -1661, 3487
0.153595, -398, 124, 2215, -1925, -1661, 3487
0.153730, -398, 124, 2215, -1925, -1661, 3487
0.153864, -398, 124, 2215, -1925, -1661, 3487
0.154003, -398, 124, 2215, -1925, -1661, 3487
0.154145, -398, 124, 2215, -1925, -1661, 3487
0.154285, -398, 124, 2215, -1925, -1661, 3487
0.154423, 278, 122, 2230, -1721, -1278, 3684
0.154559, 278, 122, 2230, -1721, -1278, 3684
0.154694, 278, 122, 2230, -1721, -1278, 3684
0.154829, 278, 122, 2230, -1721, -1278, 3684
0.154964, 278, 122, 2230, -1721, -1278, 3684
0.155108, 278, 122, 2230, -1721, -1278, 3684
0.155253, 278, 122, 2230, -1721, -1278, 3684
0.155390, -305, 165, 2251, -1666, -813, 3706
0.155524, -305, 165, 2251, -1666, -813, 3706
0.155659, -305, 165, 2251, -1666, -813, 3706
0.155793, -305, 165, 2251, -1666, -813, 3706
0.155927, -305, 165, 2251, -1666, -813, 3706
0.156061, -305, 165, 2251, -1666, -813, 3706
0.156195, -305, 165, 2251, -1666, -813, 3706
0.156329, -305, 165, 2251, -1666, -813, 3706
0.156463, -545, 238, 2160, -1645, -338, 4064
0.156597, -545, 238, 2160, -1645, -338, 4064
0.156732, -545, 238, 2160, -1645, -338, 4064
0.156866, -545, 238, 2160, -1645, -338, 4064
0.157000, -545, 238, 2160, -1645, -338, 4064
0.157134, -545, 238, 2160, -1645, -338, 4064
0.157268, -545, 238, 2160, -1645, -338, 4064
0.157401, 3, 213, 2110, -1688, -88, 4311
0.157536, 3, 213, 2110, -1688, -88, 4311
0.157670, 3, 213, 2110, -1688, -88, 4311
0.157804, 3, 213, 2110, -1688, -88, 4311
0.157938, 3, 213, 2110, -1688, -88, 4311
0.158072, 3, 213, 2110, -1688, -88, 4311
0.158206, 3, 213, 2110, -1688, -88, 4311
0.158340, 3, 213, 2110, -1688, -88, 4311
0.158476, 421, 154, 2150, -1803, -108, 4161
0.158610, 421, 154, 2150, -1803, -108, 4161
0.158744, 421, 154, 2150, -1803, -108, 4161
0.158878, 421, 154, 2150, -1803, -108, 4161
0.159012, 421, 154, 2150, -1803, -108, 4161
0.159146, 421, 154, 2150, -1803, -108, 4161
0.159280, 421, 154, 2150, -1803, -108, 4161
0.159413, 908, 103, 2186, -1922, -296, 3760
0.159547, 908, 103, 2186, -1922, -296, 3760
0.159681, 908, 103, 2186, -1922, -296, 3760
0.159815, 908, 103, 2186, -1922, -296, 3760
0.159949, 908, 103, 2186, -1922, -296, 3760
0.160083, 908, 103, 2186, -1922, -296, 3760
0.160217, 908, 103, 2186, -1922, -296, 3760
0.160351, 908, 103, 2186, -1922, -296, 3760
0.160485, 1770, 30, 2180, -1974, -569, 2973
0.160619, 1770, 30, 2180, -1974, -569, 2973
0.160752, 1770, 30, 2180, -1974, -569, 2973
0.160886, 1770, 30, 2180, -1974, -569, 2973
0.161020, 1770, 30, 2180, -1974, -569, 2973
0.161154, 1770, 30, 2180, -1974, -569, 2973
0.161288, 1770, 30, 2180, -1974, -569, 2973
0.161422, 3518, 129, 2324, -1890, -859, 1500
0.161556, 3518, 129, 2324, -1890, -859, 1500
0.161690, 3518, 129, 2324, -1890, -859, 1500
0.161824, 3518, 129, 2324, -1890, -859, 1500
0.161957, 3518, 129, 2324, -1890, -859, 1500
0.162091, 3518, 129, 2324, -1890, -859, 1500
0.162225, 3518, 129, 2324, -1890, -859, 1500
0.162359, 3518, 129, 2324, -1890, -859, 1500
0.162493, 6592, 618, 2940, -1474, -1031, -1379
0.162627, 6592, 618, 2940, -1474, -1031, -1379
0.162761, 6592, 618, 2940, -1474, -1031, -1379
0.162895, 6592, 618, 2940, -1474, -1031, -1379
0.163029, 6592, 618, 2940, -1474, -1031, -1379
0.163163, 6592, 618, 2940, -1474, -1031, -1379
0.163297, 6592, 618, 2940, -1474, -1031, -1379
0.163431, 6592, 618, 2940, -1474, -1031, -1379
0.163564, 6778, 488, 3768, -479, -583, -5720
0.163698, 6778, 488, 3768, -479, -583, -5720
0.163832, 6778, 488, 3768, -479, -583, -5720
0.163966, 6778, 488, 3768, -479, -583, -5720
0.164100, 6778, 488, 3768, -479, -583, -5720
0.164264, 6778, 488, 3768, -479, -583, -5720
0.164406, 6778, 488, 3768, -479, -583, -5720
0.164540, 2641, 45, 4212, 1251, 769, -9018
0.164674, 2641, 45, 4212, 1251, 769, -9018
0.164807, 2641, 45, 4212, 1251, 769, -9018
0.164941, 2641, 45, 4212, 1251, 769, -9018
0.165075, 2641, 45, 4212, 1251, 769, -9018
0.165209, 2641, 45, 4212, 1251, 769, -9018
0.165343, 2641, 45, 4212, 1251, 769, -9018
0.165477, -1466, 80, 4121, 3587, 2479, -9473
0.165611, -1466, 80, 4121, 3587, 2479, -9473
0.165745, -1466, 80, 4121, 3587, 2479, -9473
0.165879, -1466, 80, 4121, 3587, 2479, -9473
0.166013, -1466, 80, 4121, 3587, 2479, -9473
0.166147, -1466, 80, 4121, 3587, 2479, -9473
0.166281, -1466, 80, 4121, 3587, 2479, -9473
0.166415, -1466, 80, 4121, 3587, 2479, -9473
0.166549, -5889, -452, 921, 4945, 3833, -7405
0.166683, -5889, -452, 921, 4945, 3833, -7405
0.166817, -5889, -452, 921, 4945, 3833, -7405
0.166951, -5889, -452, 921, 4945, 3833, -7405
0.167085, -5889, -452, 921, 4945, 3833, -7405
0.167219, -5889, -452, 921, 4945, 3833, -7405
0.167353, -5889, -452, 921, 4945, 3833, -7405
0.167486, -5889, -452, 921, 4945, 3833, -7405
0.167620, -7869, -214, -2959, 3408, 4003, -2950
0.167754, -7869, -214, -2959, 3408, 4003, -2950
0.167888, -7869, -214, -2959, 3408, 4003, -2950
0.168022, -7869, -214, -2959, 3408, 4003, -2950
0.168156, -7869, -214, -2959, 3408, 4003, -2950
0.168290, -7869, -214, -2959, 3408, 4003, -2950
0.168424, -7869, -214, -2959, 3408, 4003, -2950
0.168558, -3360, 775, -681, 516, 2736, 1353
0.168692, -3360, 775, -681, 516, 2736, 1353
0.168826, -3360, 775, -681, 516, 2736, 1353
0.168960, -3360, 775, -681, 516, 2736, 1353
0.169094, -3360, 775, -681, 516, 2736, 1353
0.169228, -3360, 775, -681, 516, 2736, 1353
0.169362, -3360, 775, -681, 516, 2736, 1353
0.169495, -3360, 775, -681, 516, 2736, 1353
0.169629, 1142, 544, 3091, -1039, 1392, 2382
0.169763, 1142, 544, 3091, -1039, 1392, 2382
0.169897, 1142, 544, 3091, -1039, 1392, 2382
0.170031, 1142, 544, 3091, -1039, 1392, 2382
0.170165, 1142, 544, 3091, -1039, 1392, 2382
0.170299, 1142, 544, 3091, -1039, 1392, 2382
0.170433, 1142, 544, 3091, -1039, 1392, 2382
0.170567, 1481, 76, 2952, -1429, 901, 1469
0.170701, 1481, 76, 2952, -1429, 901, 1469
0.170835, 1481, 76, 2952, -1429, 901, 1469
0.170969, 1481, 76, 2952, -1429, 901, 1469
0.171103, 1481, 76, 2952, -1429, 901, 1469
0.171236, 1481, 76, 2952, -1429, 901, 1469
0.171370, 1481, 76, 2952, -1429, 901, 1469
0.171504, 1481, 76, 2952, -1429, 901, 1469
0.171638, 1259, 172, 2122, -1528, 474, 678
0.171772, 1259, 172, 2122, -1528, 474, 678
0.171906, 1259, 172, 2122, -1528, 474, 678
0.172040, 1259, 172, 2122, -1528, 474, 678
0.172174, 1259, 172, 2122, -1528, 474, 678
0.172308, 1259, 172, 2122, -1528, 474, 678
0.172442, 1259, 172, 2122, -1528, 474, 678
0.172575, 1725, 200, 2491, -1322, -562, -217
0.172709, 1725, 200, 2491, -1322, -562, -217
0.172843, 1725, 200, 2491, -1322, -562, -217
0.172977, 1725, 200, 2491, -1322, -562, -217
0.173111, 1725, 200, 2491, -1322, -562, -217
0.173245, 1725, 200, 2491, -1322, -562, -217
0.173379, 1725, 200, 2491, -1322, -562, -217
0.173513, 1725, 200, 2491, -1322, -562, -217
0.173646, 2381, 216, 2962, -542, -1811, -1521
0.173780, 2381, 216, 2962, -542, -1811, -1521
0.173914, 2381, 216, 2962, -542, -1811, -1521
0.174048, 2381, 216, 2962, -542, -1811, -1521
0.174183, 2381, 216, 2962, -542, -1811, -1521
0.174318, 2381, 216, 2962, -542, -1811, -1521
0.174453, 2381, 216, 2962, -542, -1811, -1521
0.174587, 2381, 216, 2962, -542, -1811, -1521
0.174721, 2674, 299, 3317, 766, -2224, -3157
0.174855, 2674, 299, 3317, 766, -2224, -3157
0.174989, 2674, 299, 3317, 766, -2224, -3157
0.175122, 2674, 299, 3317, 766, -2224, -3157
0.175256, 2674, 299, 3317, 766, -2224, -3157
0.175390, 2674, 299, 3317, 766, -2224, -3157
0.175524, 2674, 299, 3317, 766, -2224, -3157
0.175658, 1257, 154, 3776, 2280, -1367, -4412
0.175792, 1257, 154, 3776, 2280, -1367, -4412
0.175926, 1257, 154, 3776, 2280, -1367, -4412
0.176060, 1257, 154, 3776, 2280, -1367, -4412
0.176193, 1257, 154, 3776, 2280, -1367, -4412
0.176327, 1257, 154, 3776, 2280, -1367, -4412
0.176468, 1257, 154, 3776, 2280, -1367, -4412
0.176603, 1257, 154, 3776, 2280, -1367, -4412
0.176737, -904, 47, 2710, 3538, 158, -4354
0.176871, -904, 47, 2710, 3538, 158, -4354
0.177004, -904, 47, 2710, 3538, 158, -4354
0.177138, -904, 47, 2710, 3538, 158, -4354
0.177272, -904, 47, 2710, 3538, 158, -4354
0.177406, -904, 47, 2710, 3538, 158, -4354
0.177540, -904, 47, 2710, 3538, 158, -4354
0.177674, -1583, 212, 466, 3572, 1584, -3298
0.177808, -1583, 212, 466, 3572, 1584, -3298
0.177942, -1583, 212, 466, 3572, 1584, -3298
0.178076, -1583, 212, 466, 3572, 1584, -3298
0.178210, -1583, 212, 466, 3572, 1584, -3298
0.178343, -1583, 212, 466, 3572, 1584, -3298
0.178479, -1583, 212, 466, 3572, 1584, -3298
0.178613, -1583, 212, 466, 3572, 1584, -3298
0.178748, -917, 312, -269, 2288, 2337, -2283
0.178882, -917, 312, -269, 2288, 2337, -2283
0.179017, -917, 312, -269, 2288, 2337, -2283
0.179151, -917, 312, -269, 2288, 2337, -2283
0.179285, -917, 312, -269, 2288, 2337, -2283
0.179420, -917, 312, -269, 2288, 2337, -2283
0.179554, -917, 312, -269, 2288, 2337, -2283
0.179689, -1200, 163, 141, 608, 2530, -1592
0.179823, -1200, 163, 141, 608, 2530, -1592
0.179957, -1200, 163, 141, 608, 2530, -1592
0.180092, -1200, 163, 141, 608, 2530, -1592
0.180226, -1200, 163, 141, 608, 2530, -1592
0.180361, -1200, 163, 141, 608, 2530, -1592
0.180495, -1200, 163, 141, 608, 2530, -1592
0.180629, -1200, 163, 141, 608, 2530, -1592
0.180764, -1568, 258, 586, -871, 2569, -624
0.180898, -1568, 258, 586, -871, 2569, -624
0.181032, -1568, 258, 586, -871, 2569, -624
0.181167, -1568, 258, 586, -871, 2569, -624
0.181301, -1568, 258, 586, -871, 2569, -624
0.181436, -1568, 258, 586, -871, 2569, -624
0.181570, -1568, 258, 586, -871, 2569, -624
0.181704, 109, 533, 1418, -1810, 2262, 117
0.181839, 109, 533, 1418, -1810, 2262, 117
0.181973, 109, 533, 1418, -1810, 2262, 117
0.182108, 109, 533, 1418, -1810, 2262, 117
0.182242, 109, 533, 1418, -1810, 2262, 117
0.182377, 109, 533, 1418, -1810, 2262, 117
0.182512, 109, 533, 1418, -1810, 2262, 117
0.182646, 109, 533, 1418, -1810, 2262, 117
0.182780, 2028, 662, 2004, -2266, 1448, -433
0.182915, 2028, 662, 2004, -2266, 1448, -433
0.183049, 2028, 662, 2004, -2266, 1448, -433
0.183183, 2028, 662, 2004, -2266, 1448, -433
0.183318, 2028, 662, 2004, -2266, 1448, -433
0.183452, 2028, 662, 2004, -2266, 1448, -433
0.183587, 2028, 662, 2004, -2266, 1448, -433
0.183721, 2456, 757, 2037, -2409, 467, -1915
0.183851, 2456, 757, 2037, -2409, 467, -1915
0.183988, 2456, 757, 2037, -2409, 467, -1915
0.184123, 2456, 757, 2037, -2409, 467, -1915
0.184258, 2456, 757, 2037, -2409, 467, -1915
0.184393, 2456, 757, 2037, -2409, 467, -1915
0.184527, 2456, 757, 2037, -2409, 467, -1915
0.184662, 2456, 757, 2037, -2409, 467, -1915
0.184796, 161, 141, 2091, -2245, -120, -3091
0.184930, 161, 141, 2091, -2245, -120, -3091
0.185065, 161, 141, 2091, -2245, -120, -3091
0.185199, 161, 141, 2091, -2245, -120, -3091
0.185334, 161, 141, 2091, -2245, -120, -3091
0.185468, 161, 141, 2091, -2245, -120, -3091
0.185602, 161, 141, 2091, -2245, -120, -3091
0.185737, 161, 141, 2091, -2245, -120, -3091
0.185871, -2905, -582, 2288, -1751, -177, -2356
0.186006, -2905, -582, 2288, -1751, -177, -2356
0.186140, -2905, -582, 2288, -1751, -177, -2356
0.186274, -2905, -582, 2288, -1751, -177, -2356
0.186409, -2905, -582, 2288, -1751, -177, -2356
0.186543, -2905, -582, 2288, -1751, -177, -2356
0.186678, -2905, -582, 2288, -1751, -177, -2356
0.186812, -2199, -132, 2315, -1081, -184, -234
0.186947, -2199, -132, 2315, -1081, -184, -234
0.187081, -2199, -132, 2315, -1081, -184, -234
0.187215, -2199, -132, 2315, -1081, -184, -234
0.187350, -2199, -132, 2315, -1081, -184, -234
0.187484, -2199, -132, 2315, -1081, -184, -234
0.187618, -2199, -132, 2315, -1081, -184, -234
0.187753, -2199, -132, 2315, -1081, -184, -234
0.187887, 553, 440, 2353, -770, -213, 720
0.188022, 553, 440, 2353, -770, -213, 720
0.188156, 553, 440, 2353, -770, -213, 720
0.188291, 553, 440, 2353, -770, -213, 720
0.188425, 553, 440, 2353, -770, -213, 720
0.188559, 553, 440, 2353, -770, -213, 720
0.188694, 553, 440, 2353, -770, -213, 720
0.188835, 2502, 635, 2633, -792, -3, 17
0.188972, 2502, 635, 2633, -792, -3, 17
0.189107, 2502, 635, 2633, -792, -3, 17
0.189241, 2502, 635, 2633, -792, -3, 17
0.189375, 2502, 635, 2633, -792, -3, 17
0.189510, 2502, 635, 2633, -792, -3, 17
0.189644, 2502, 635, 2633, -792, -3, 17
0.189778, 2502, 635, 2633, -792, -3, 17
0.189913, 3101, 621, 2626, -693, 530, -1606
0.190047, 3101, 621, 2626, -693, 530, -1606
0.190181, 3101, 621, 2626, -693, 530, -1606
0.190316, 3101, 621, 2626, -693, 530, -1606
0.190446, 3101, 621, 2626, -693, 530, -1606
0.190580, 3101, 621, 2626, -693, 530, -1606
0.190714, 3101, 621, 2626, -693, 530, -1606
0.190849, 829, 51, 2062, -502, 1369, -3094
0.190983, 829, 51, 2062, -502, 1369, -3094
0.191117, 829, 51, 2062, -502, 1369, -3094
0.191252, 829, 51, 2062, -502, 1369, -3094
0.191386, 829, 51, 2062, -502, 1369, -3094
0.191521, 829, 51, 2062, -502, 1369, -3094
0.191655, 829, 51, 2062, -502, 1369, -3094
0.191789, 829, 51, 2062, -502, 1369, -3094
0.191924, -2898, -576, 1649, -295, 2128, -2672
0.192058, -2898, -576, 1649, -295, 2128, -2672
0.192193, -2898, -576, 1649, -295, 2128, -2672
0.192327, -2898, -576, 1649, -295, 2128, -2672
0.192461, -2898, -576, 1649, -295, 2128, -2672
0.192596, -2898, -576, 1649, -295, 2128, -2672
0.192730, -2898, -576, 1649, -295, 2128, -2672
0.192864, -3524, -295, 1768, -18, 2270, -450
0.192999, -3524, -295, 1768, -18, 2270, -450
0.193133, -3524, -295, 1768, -18, 2270, -450
0.193268, -3524, -295, 1768, -18, 2270, -450
0.193402, -3524, -295, 1768, -18, 2270, -450
0.193537, -3524, -295, 1768, -18, 2270, -450
0.193671, -3524, -295, 1768, -18, 2270, -450
0.193806, -3524, -295, 1768, -18, 2270, -450
0.193940, -1749, 326, 1851, -33, 1761, 1380
0.194074, -1749, 326, 1851, -33, 1761, 1380
0.194209, -1749, 326, 1851, -33, 1761, 1380
0.194343, -1749, 326, 1851, -33, 1761, 1380
0.194478, -1749, 326, 1851, -33, 1761, 1380
0.194612, -1749, 326, 1851, -33, 1761, 1380
0.194747, -1749, 326, 1851, -33, 1761, 1380
0.194881, -1318, 141, 1903, -528, 1088, 2228
0.195015, -1318, 141, 1903, -528, 1088, 2228
0.195150, -1318, 141, 1903, -528, 1088, 2228
0.195284, -1318, 141, 1903, -528, 1088, 2228
0.195418, -1318, 141, 1903, -528, 1088, 2228
0.195553, -1318, 141, 1903, -528, 1088, 2228
0.195687, -1318, 141, 1903, -528, 1088, 2228
0.195822, -1318, 141, 1903, -528, 1088, 2228
0.195956, -39, 154, 2110, -1036, 449, 2834
0.196091, -39, 154, 2110, -1036, 449, 2834
0.196225, -39, 154, 2110, -1036, 449, 2834
0.196359, -39, 154, 2110, -1036, 449, 2834
0.196494, -39, 154, 2110, -1036, 449, 2834
0.196628, -39, 154, 2110, -1036, 449, 2834
0.196762, -39, 154, 2110, -1036, 449, 2834
0.196897, 3244, 784, 2348, -1301, -287, 2140
0.197031, 3244, 784, 2348, -1301, -287, 2140
0.197166, 3244, 784, 2348, -1301, -287, 2140
0.197300, 3244, 784, 2348, -1301, -287, 2140
0.197434, 3244, 784, 2348, -1301, -287, 2140
0.197569, 3244, 784, 2348, -1301, -287, 2140
0.197703, 3244, 784, 2348, -1301, -287, 2140
0.197837, 3244, 784, 2348, -1301, -287, 2140
0.197972, 4214, 834, 2370, -1386, -804, -365
0.198106, 4214, 834, 2370, -1386, -804, -365
0.198241, 4214, 834, 2370, -1386, -804, -365
0.198375, 4214, 834, 2370, -1386, -804, -365
0.198510, 4214, 834, 2370, -1386, -804, -365
0.198644, 4214, 834, 2370, -1386, -804, -365
0.198778, 4214, 834, 2370, -1386, -804, -365
0.198913, 4214, 834, 2370, -1386, -804, -365
0.199047, 2408, 490, 2343, -1163, -683, -2673
0.199182, 2408, 490, 2343, -1163, -683, -2673
0.199316, 2408, 490, 2343, -1163, -683, -2673
0.199450, 2408, 490, 2343, -1163, -683, -2673
0.199585, 2408, 490, 2343, -1163, -683, -2673
0.199719, 2408, 490, 2343, -1163, -683, -2673
0.199854, 2408, 490, 2343, -1163, -683, -2673
0.199988, 741, 243, 2378, -534, -56, -3628
0.200122, 741, 243, 2378, -534, -56, -3628
0.200257, 741, 243, 2378, -534, -56, -3628
0.200391, 741, 243, 2378, -534, -56, -3628
0.200526, 741, 243, 2378, -534, -56, -3628
0.200660, 741, 243, 2378, -534, -56, -3628
0.200794, 741, 243, 2378, -534, -56, -3628
0.200929, 741, 243, 2378, -534, -56, -3628
0.201063, -2709, -454, 1833, 82, 807, -3247
0.201202, -2709, -454, 1833, 82, 807, -3247
0.201337, -2709, -454, 1833, 82, 807, -3247
0.201471, -2709, -454, 1833, 82, 807, -3247
0.201606, -2709, -454, 1833, 82, 807, -3247
0.201740, -2709, -454, 1833, 82, 807, -3247
0.201874, -2709, -454, 1833, 82, 807, -3247
0.202009, -6424, -818, 1341, 264, 1558, -457
0.202143, -6424, -818, 1341, 264, 1558, -457
0.202278, -6424, -818, 1341, 264, 1558, -457
0.202412, -6424, -818, 1341, 264, 1558, -457
0.202546, -6424, -818, 1341, 264, 1558, -457
0.202681, -6424, -818, 1341, 264, 1558, -457
0.202815, -6424, -818, 1341, 264, 1558, -457
0.202950, -6424, -818, 1341, 264, 1558, -457
0.203084, -4560, -237, 1759, 84, 1606, 3608
0.203218, -4560, -237, 1759, 84, 1606, 3608
0.203353, -4560, -237, 1759, 84, 1606, 3608
0.203487, -4560, -237, 1759, 84, 1606, 3608
0.203622, -4560, -237, 1759, 84, 1606, 3608
0.203756, -4560, -237, 1759, 84, 1606, 3608
0.203890, -4560, -237, 1759, 84, 1606, 3608
0.204025, -15, 258, 2491, -352, 962, 5469
0.204159, -15, 258, 2491, -352, 962, 5469
0.204294, -15, 258, 2491, -352, 962, 5469
0.204428, -15, 258, 2491, -352, 962, 5469
0.204563, -15, 258, 2491, -352, 962, 5469
0.204697, -15, 258, 2491, -352, 962, 5469
0.204831, -15, 258, 2491, -352, 962, 5469
0.204966, -15, 258, 2491, -352, 962, 5469
0.205100, 2749, 337, 2683, -874, 193, 4626
0.205234, 2749, 337, 2683, -874, 193, 4626
0.205369, 2749, 337, 2683, -874, 193, 4626
0.205503, 2749, 337, 2683, -874, 193, 4626
0.205637, 2749, 337, 2683, -874, 193, 4626
0.205772, 2749, 337, 2683, -874, 193, 4626
0.205906, 2749, 337, 2683, -874, 193, 4626
0.206041, 4792, 312, 2621, -1190, -387, 2297
0.206175, 4792, 312, 2621, -1190, -387, 2297
0.206309, 4792, 312, 2621, -1190, -387, 2297
0.206444, 4792, 312, 2621, -1190, -387, 2297
0.206578, 4792, 312, 2621, -1190, -387, 2297
0.206713, 4792, 312, 2621, -1190, -387, 2297
0.206847, 4792, 312, 2621, -1190, -387, 2297
0.206982, 4792, 312, 2621, -1190, -387, 2297
0.207116, 4900, 183, 2858, -995, -688, -988
0.207251, 4900, 183, 2858, -995, -688, -988
0.207385, 4900, 183, 2858, -995, -688, -988
0.207519, 4900, 183, 2858, -995, -688, -988
0.207654, 4900, 183, 2858, -995, -688, -988
0.207788, 4900, 183, 2858, -995, -688, -988
0.207922, 4900, 183, 2858, -995, -688, -988
0.208057, 2679, 330, 3086, -43, -573, -3709
0.208191, 2679, 330, 3086, -43, -573, -3709
0.208326, 2679, 330, 3086, -43, -573, -3709
0.208460, 2679, 330, 3086, -43, -573, -3709
0.208594, 2679, 330, 3086, -43, -573, -3709
0.208729, 2679, 330, 3086, -43, -573, -3709
0.208863, 2679, 330, 3086, -43, -573, -3709
0.208997, 2679, 330, 3086, -43, -573, -3709
0.209132, 1097, 654, 3270, 1481, 6, -4931
0.209266, 1097, 654, 3270, 1481, 6, -4931
0.209401, 1097, 654, 3270, 1481, 6, -4931
0.209535, 1097, 654, 3270, 1481, 6, -4931
0.209669, 1097, 654, 3270, 1481, 6, -4931
0.209804, 1097, 654, 3270, 1481, 6, -4931
0.209938, 1097, 654, 3270, 1481, 6, -4931
0.210072, -800, 500, 3594, 3127, 973, -5017
0.210207, -800, 500, 3594, 3127, 973, -5017
0.210341, -800, 500, 3594, 3127, 973, -5017
0.210476, -800, 500, 3594, 3127, 973, -5017
0.210611, -800, 500, 3594, 3127, 973, -5017
0.210745, -800, 500, 3594, 3127, 973, -5017
0.210879, -800, 500, 3594, 3127, 973, -5017
0.211014, -800, 500, 3594, 3127, 973, -5017
0.211148, -1272, 269, 3322, 4572, 1974, -3894
0.211283, -1272, 269, 3322, 4572, 1974, -3894
0.211418, -1272, 269, 3322, 4572, 1974, -3894
0.211552, -1272, 269, 3322, 4572, 1974, -3894
0.211687, -1272, 269, 3322, 4572, 1974, -3894
0.211821, -1272, 269, 3322, 4572, 1974, -3894
0.211956, -1272, 269, 3322, 4572, 1974, -3894
0.212090, -1272, 269, 3322, 4572, 1974, -3894
0.212225, 2041, 122, 1962, 5115, 2430, -3368
0.212360, 2041, 122, 1962, 5115, 2430, -3368
0.212494, 2041, 122, 1962, 5115, 2430, -3368
0.212629, 2041, 122, 1962, 5115, 2430, -3368
0.212763, 2041, 122, 1962, 5115, 2430, -3368
0.212898, 2041, 122, 1962, 5115, 2430, -3368
0.213032, 2041, 122, 1962, 5115, 2430, -3368
0.213167, 3401, 394, 1426, 4611, 2546, -4985
0.213302, 3401, 394, 1426, 4611, 2546, -4985
0.213436, 3401, 394, 1426, 4611, 2546, -4985
0.213571, 3401, 394, 1426, 4611, 2546, -4985
0.213713, 3401, 394, 1426, 4611, 2546, -4985
0.213848, 3401, 394, 1426, 4611, 2546, -4985
0.213983, 3401, 394, 1426, 4611, 2546, -4985
0.214117, 3401, 394, 1426, 4611, 2546, -4985
0.214251, 1269, 909, 1911, 4215, 3038, -6685
0.214386, 1269, 909, 1911, 4215, 3038, -6685
0.214521, 1269, 909, 1911, 4215, 3038, -6685
0.214655, 1269, 909, 1911, 4215, 3038, -6685
0.214789, 1269, 909, 1911, 4215, 3038, -6685
0.214924, 1269, 909, 1911, 4215, 3038, -6685
0.215058, 1269, 909, 1911, 4215, 3038, -6685
0.215193, -3321, -586, -113, 3612, 3912, -6470
0.215327, -3321, -586, -113, 3612, 3912, -6470
0.215462, -3321, -586, -113, 3612, 3912, -6470
0.215596, -3321, -586, -113, 3612, 3912, -6470
0.215731, -3321, -586, -113, 3612, 3912, -6470
0.215865, -3321, -586, -113, 3612, 3912, -6470
0.215999, -3321, -586, -113, 3612, 3912, -6470
0.216134, -3321, -586, -113, 3612, 3912, -6470
0.216268, -8190, -1918, -2295, 1832, 4148, -3143
0.216403, -8190, -1918, -2295, 1832, 4148, -3143
0.216537, -8190, -1918, -2295, 1832, 4148, -3143
0.216672, -8190, -1918, -2295, 1832, 4148, -3143
0.216806, -8190, -1918, -2295, 1832, 4148, -3143
0.216941, -8190, -1918, -2295, 1832, 4148, -3143
0.217075, -8190, -1918, -2295, 1832, 4148, -3143
0.217209, -5887, -235, 38, 63, 2804, 1905
0.217344, -5887, -235, 38, 63, 2804, 1905
0.217479, -5887, -235, 38, 63, 2804, 1905
0.217613, -5887, -235, 38, 63, 2804, 1905
0.217748, -5887, -235, 38, 63, 2804, 1905
0.217882, -5887, -235, 38, 63, 2804, 1905
0.218016, -5887, -235, 38, 63, 2804, 1905
0.218151, -5887, -235, 38, 63, 2804, 1905
0.218285, 25, 821, 2749, -747, 800, 4204
0.218420, 25, 821, 2749, -747, 800, 4204
0.218555, 25, 821, 2749, -747, 800, 4204
0.218689, 25, 821, 2749, -747, 800, 4204
0.218824, 25, 821, 2749, -747, 800, 4204
0.218958, 25, 821, 2749, -747, 800, 4204
0.219092, 25, 821, 2749, -747, 800, 4204
0.219227, 1941, 359, 2136, -1300, -599, 3323
0.219362, 1941, 359, 2136, -1300, -599, 3323
0.219496, 1941, 359, 2136, -1300, -599, 3323
0.219630, 1941, 359, 2136, -1300, -599, 3323
0.219765, 1941, 359, 2136, -1300, -599, 3323
0.219899, 1941, 359, 2136, -1300, -599, 3323
0.220034, 1941, 359, 2136, -1300, -599, 3323
0.220168, 1941, 359, 2136, -1300, -599, 3323
0.220303, 2157, 453, 994, -2125, -1464, 1923
0.220437, 2157, 453, 994, -2125, -1464, 1923
0.220572, 2157, 453, 994, -2125, -1464, 1923
0.220706, 2157, 453, 994, -2125, -1464, 1923
0.220841, 2157, 453, 994, -2125, -1464, 1923
0.220975, 2157, 453, 994, -2125, -1464, 1923
0.221109, 2157, 453, 994, -2125, -1464, 1923
0.221244, 2492, 572, 1303, -2886, -2058, 562
0.221379, 2492, 572, 1303, -2886, -2058, 562
0.221513, 2492, 572, 1303, -2886, -2058, 562
0.221648, 2492, 572, 1303, -2886, -2058, 562
0.221783, 2492, 572, 1303, -2886, -2058, 562
0.221917, 2492, 572, 1303, -2886, -2058, 562
0.222052, 2492, 572, 1303, -2886, -2058, 562
0.222186, 2492, 572, 1303, -2886, -2058, 562
0.222321, 2505, 528, 2121, -2877, -2217, -848
0.222456, 2505, 528, 2121, -2877, -2217, -848
0.222590, 2505, 528, 2121, -2877, -2217, -848
0.222725, 2505, 528, 2121, -2877, -2217, -848
0.222860, 2505, 528, 2121, -2877, -2217, -848
0.222994, 2505, 528, 2121, -2877, -2217, -848
0.223129, 2505, 528, 2121, -2877, -2217, -848
0.223263, 2640, 619, 2857, -1968, -1516, -2208
0.223398, 2640, 619, 2857, -1968, -1516, -2208
0.223533, 2640, 619, 2857, -1968, -1516, -2208
0.223667, 2640, 619, 2857, -1968, -1516, -2208
0.223802, 2640, 619, 2857, -1968, -1516, -2208
0.223936, 2640, 619, 2857, -1968, -1516, -2208
0.224071, 2640, 619, 2857, -1968, -1516, -2208
0.224205, 2640, 619, 2857, -1968, -1516, -2208
0.224340, 1149, 190, 3050, -801, 35, -3245
0.224475, 1149, 190, 3050, -801, 35, -3245
0.224609, 1149, 190, 3050, -801, 35, -3245
0.224744, 1149, 190, 3050, -801, 35, -3245
0.224878, 1149, 190, 3050, -801, 35, -3245
0.225013, 1149, 190, 3050, -801, 35, -3245
0.225147, 1149, 190, 3050, -801, 35, -3245
0.225282, -1911, -549, 2428, 78, 1743, -2838
0.225417, -1911, -549, 2428, 78, 1743, -2838
0.225551, -1911, -549, 2428, 78, 1743, -2838
0.225686, -1911, -549, 2428, 78, 1743, -2838
0.225820, -1911, -549, 2428, 78, 1743, -2838
0.225959, -1911, -549, 2428, 78, 1743, -2838
0.226094, -1911, -549, 2428, 78, 1743, -2838
0.226228, -1911, -549, 2428, 78, 1743, -2838
0.226363, -2375, -378, 2085, 605, 2841, -1039
0.226506, -2375, -378, 2085, 605, 2841, -1039
0.226641, -2375, -378, 2085, 605, 2841, -1039
0.226775, -2375, -378, 2085, 605, 2841, -1039
0.226910, -2375, -378, 2085, 605, 2841, -1039
0.227044, -2375, -378, 2085, 605, 2841, -1039
0.227179, -2375, -378, 2085, 605, 2841, -1039
0.227313, 171, 396, 2091, 696, 3021, 57
0.227448, 171, 396, 2091, 696, 3021, 57
0.227583, 171, 396, 2091, 696, 3021, 57
0.227717, 171, 396, 2091, 696, 3021, 57
0.227852, 171, 396, 2091, 696, 3021, 57
0.227987, 171, 396, 2091, 696, 3021, 57
0.228121, 171, 396, 2091, 696, 3021, 57
0.228256, 171, 396, 2091, 696, 3021, 57
0.228390, 1094, 605, 1977, 262, 2739, -468
0.228525, 1094, 605, 1977, 262, 2739, -468
0.228660, 1094, 605, 1977, 262, 2739, -468
0.228794, 1094, 605, 1977, 262, 2739, -468
0.228929, 1094, 605, 1977, 262, 2739, -468
0.229063, 1094, 605, 1977, 262, 2739, -468
0.229198, 1094, 605, 1977, 262, 2739, -468
0.229332, -798, 165, 2014, -247, 2585, -942
0.229467, -798, 165, 2014, -247, 2585, -942
0.229602, -798, 165, 2014, -247, 2585, -942
0.229736, -798, 165, 2014, -247, 2585, -942
0.229871, -798, 165, 2014, -247, 2585, -942
0.230006, -798, 165, 2014, -247, 2585, -942
0.230140, -798, 165, 2014, -247, 2585, -942
0.230275, -798, 165, 2014, -247, 2585, -942
0.230410, -2661, -195, 2179, -389, 2370, -82
0.230545, -2661, -195, 2179, -389, 2370, -82
0.230679, -2661, -195, 2179, -389, 2370, -82
0.230814, -2661, -195, 2179, -389, 2370, -82
0.230949, -2661, -195, 2179, -389, 2370, -82
0.231083, -2661, -195, 2179, -389, 2370, -82
0.231218, -2661, -195, 2179, -389, 2370, -82
0.231352, -2661, -195, 2179, -389, 2370, -82
0.231487, -3266, -199, 2221, -335, 1571, 1619
0.231622, -3266, -199, 2221, -335, 1571, 1619
0.231756, -3266, -199, 2221, -335, 1571, 1619
0.231891, -3266, -199, 2221, -335, 1571, 1619
0.232025, -3266, -199, 2221, -335, 1571, 1619
0.232160, -3266, -199, 2221, -335, 1571, 1619
0.232294, -3266, -199, 2221, -335, 1571, 1619
0.232429, -2940, -69, 2263, -341, 283, 3412
0.232564, -2940, -69, 2263, -341, 283, 3412
0.232699, -2940, -69, 2263, -341, 283, 3412
0.232833, -2940, -69, 2263, -341, 283, 3412
0.232968, -2940, -69, 2263, -341, 283, 3412
0.233102, -2940, -69, 2263, -341, 283, 3412
0.233237, -2940, -69, 2263, -341, 283, 3412
0.233371, -2940, -69, 2263, -341, 283, 3412
0.233506, -1899, 63, 2240, -509, -1054, 4870
0.233641, -1899, 63, 2240, -509, -1054, 4870
0.233775, -1899, 63, 2240, -509, -1054, 4870
0.233910, -1899, 63, 2240, -509, -1054, 4870
0.234045, -1899, 63, 2240, -509, -1054, 4870
0.234179, -1899, 63, 2240, -509, -1054, 4870
0.234314, -1899, 63, 2240, -509, -1054, 4870
0.234449, -410, 149, 2210, -832, -2140, 5636
0.234583, -410, 149, 2210, -832, -2140, 5636
0.234718, -410, 149, 2210, -832, -2140, 5636
0.234853, -410, 149, 2210, -832, -2140, 5636
0.234987, -410, 149, 2210, -832, -2140, 5636
0.235122, -410, 149, 2210, -832, -2140, 5636
0.235256, -410, 149, 2210, -832, -2140, 5636
0.235391, -410, 149, 2210, -832, -2140, 5636
0.235526, 705, 169, 2358, -1063, -2719, 5583
0.235660, 705, 169, 2358, -1063, -2719, 5583
0.235795, 705, 169, 2358, -1063, -2719, 5583
0.235930, 705, 169, 2358, -1063, -2719, 5583
0.236064, 705, 169, 2358, -1063, -2719, 5583
0.236199, 705, 169, 2358, -1063, -2719, 5583
0.236333, 705, 169, 2358, -1063, -2719, 5583
0.236468, 820, 169, 2392, -1051, -2667, 5113
0.236603, 820, 169, 2392, -1051, -2667, 5113
0.236737, 820, 169, 2392, -1051, -2667, 5113
0.236872, 820, 169, 2392, -1051, -2667, 5113
0.237006, 820, 169, 2392, -1051, -2667, 5113
0.237141, 820, 169, 2392, -1051, -2667, 5113
0.237276, 820, 169, 2392, -1051, -2667, 5113
0.237410, 820, 169, 2392, -1051, -2667, 5113
0.237545, 458, 182, 2186, -918, -2187, 4771
0.237679, 458, 182, 2186, -918, -2187, 4771
0.237814, 458, 182, 2186, -918, -2187, 4771
0.237948, 458, 182, 2186, -918, -2187, 4771
0.238083, 458, 182, 2186, -918, -2187, 4771
0.238217, 458, 182, 2186, -918, -2187, 4771
0.238352, 458, 182, 2186, -918, -2187, 4771
0.238491, 212, 180, 1963, -796, -1575, 4664
0.238629, 212, 180, 1963, -796, -1575, 4664
0.238763, 212, 180, 1963, -796, -1575, 4664
0.238898, 212, 180, 1963, -796, -1575, 4664
0.239033, 212, 180, 1963, -796, -1575, 4664
0.239168, 212, 180, 1963, -796, -1575, 4664
0.239303, 212, 180, 1963, -796, -1575, 4664
0.239437, 212, 180, 1963, -796, -1575, 4664
0.239572, 421, 161, 1944, -737, -1013, 4616
0.239707, 421, 161, 1944, -737, -1013, 4616
0.239841, 421, 161, 1944, -737, -1013, 4616
0.239976, 421, 161, 1944, -737, -1013, 4616
0.240110, 421, 161, 1944, -737, -1013, 4616
0.240245, 421, 161, 1944, -737, -1013, 4616
0.240379, 421, 161, 1944, -737, -1013, 4616
0.240514, 1315, 182, 2278, -665, -575, 4251
0.240649, 1315, 182, 2278, -665, -575, 4251
0.240783, 1315, 182, 2278, -665, -575, 4251
0.240918, 1315, 182, 2278, -665, -575, 4251
0.241053, 1315, 182, 2278, -665, -575, 4251
0.241187, 1315, 182, 2278, -665, -575, 4251
0.241322, 1315, 182, 2278, -665, -575, 4251
0.241456, 1315, 182, 2278, -665, -575, 4251
0.241591, 1572, 228, 2591, -438, -137, 3359
0.241726, 1572, 228, 2591, -438, -137, 3359
0.241860, 1572, 228, 2591, -438, -137, 3359
0.241995, 1572, 228, 2591, -438, -137, 3359
0.242129, 1572, 228, 2591, -438, -137, 3359
0.242264, 1572, 228, 2591, -438, -137, 3359
0.242399, 1572, 228, 2591, -438, -137, 3359
0.242533, 452, 232, 2272, -202, 358, 2594
0.242668, 452, 232, 2272, -202, 358, 2594
0.242803, 452, 232, 2272, -202, 358, 2594
0.242937, 452, 232, 2272, -202, 358, 2594
0.243072, 452, 232, 2272, -202, 358, 2594
0.243206, 452, 232, 2272, -202, 358, 2594
0.243341, 452, 232, 2272, -202, 358, 2594
0.243475, 452, 232, 2272, -202, 358, 2594
0.243610, -675, 217, 1881, -180, 677, 2567
0.243745, -675, 217, 1881, -180, 677, 2567
0.243879, -675, 217, 1881, -180, 677, 2567
0.244014, -675, 217, 1881, -180, 677, 2567
0.244148, -675, 217, 1881, -180, 677, 2567
0.244283, -675, 217, 1881, -180, 677, 2567
0.244417, -675, 217, 1881, -180, 677, 2567
0.244552, -986, 148, 2075, -234, 666, 3082
0.244687, -986, 148, 2075, -234, 666, 3082
0.244821, -986, 148, 2075, -234, 666, 3082
0.244956, -986, 148, 2075, -234, 666, 3082
0.245090, -986, 148, 2075, -234, 666, 3082
0.245225, -986, 148, 2075, -234, 666, 3082
0.245359, -986, 148, 2075, -234, 666, 3082
0.245494, -986, 148, 2075, -234, 666, 3082
0.245628, -93, 49, 2559, -167, 366, 3544
0.245763, -93, 49, 2559, -167, 366, 3544
0.245898, -93, 49, 2559, -167, 366, 3544
0.246032, -93, 49, 2559, -167, 366, 3544
0.246167, -93, 49, 2559, -167, 366, 3544
0.246301, -93, 49, 2559, -167, 366, 3544
0.246436, -93, 49, 2559, -167, 366, 3544
0.246571, 2000, 68, 3275, 139, -131, 3167
0.246705, 2000, 68, 3275, 139, -131, 3167
0.246840, 2000, 68, 3275, 139, -131, 3167
0.246975, 2000, 68, 3275, 139, -131, 3167
0.247109, 2000, 68, 3275, 139, -131, 3167
0.247244, 2000, 68, 3275, 139, -131, 3167
0.247378, 2000, 68, 3275, 139, -131, 3167
0.247513, 2000, 68, 3275, 139, -131, 3167
0.247647, 4927, 432, 4211, 952, -555, 1321
0.247782, 4927, 432, 4211, 952, -555, 1321
0.247916, 4927, 432, 4211, 952, -555, 1321
0.248051, 4927, 432, 4211, 952, -555, 1321
0.248185, 4927, 432, 4211, 952, -555, 1321
0.248320, 4927, 432, 4211, 952, -555, 1321
0.248454, 4927, 432, 4211, 952, -555, 1321
0.248589, 6819, 542, 4209, 2279, -507, -2281
0.248724, 6819, 542, 4209, 2279, -507, -2281
0.248858, 6819, 542, 4209, 2279, -507, -2281
0.248993, 6819, 542, 4209, 2279, -507, -2281
0.249128, 6819, 542, 4209, 2279, -507, -2281
0.249262, 6819, 542, 4209, 2279, -507, -2281
0.249397, 6819, 542, 4209, 2279, -507, -2281
0.249531, 6819, 542, 4209, 2279, -507, -2281
0.249666, 4168, 69, 2115, 3271, 155, -6177
0.249801, 4168, 69, 2115, 3271, 155, -6177
0.249935, 4168, 69, 2115, 3271, 155, -6177
0.250070, 4168, 69, 2115, 3271, 155, -6177
0.250204, 4168, 69, 2115, 3271, 155, -6177
0.250339, 4168, 69, 2115, 3271, 155, -6177
0.250474, 4168, 69, 2115, 3271, 155, -6177
0.250608, 4168, 69, 2115, 3271, 155, -6177
0.250743, -1690, -125, 394, 3395, 1147, -7408
0.250877, -1690, -125, 394, 3395, 1147, -7408
0.251012, -1690, -125, 394, 3395, 1147, -7408
0.251152, -1690, -125, 394, 3395, 1147, -7408
0.251288, -1690, -125, 394, 3395, 1147, -7408
0.251422, -1690, -125, 394, 3395, 1147, -7408
0.251557, -1690, -125, 394, 3395, 1147, -7408
0.251691, -5096, 67, 1109, 3460, 2010, -5220
0.251826, -5096, 67, 1109, 3460, 2010, -5220
0.251961, -5096, 67, 1109, 3460, 2010, -5220
0.252095, -5096, 67, 1109, 3460, 2010, -5220
0.252230, -5096, 67, 1109, 3460, 2010, -5220
0.252365, -5096, 67, 1109, 3460, 2010, -5220
0.252499, -5096, 67, 1109, 3460, 2010, -5220
0.252634, -5096, 67, 1109, 3460, 2010, -5220
0.252768, -3100, 423, 2086, 3737, 2408, -2033
0.252903, -3100, 423, 2086, 3737, 2408, -2033
0.253037, -3100, 423, 2086, 3737, 2408, -2033
0.253172, -3100, 423, 2086, 3737, 2408, -2033
0.253306, -3100, 423, 2086, 3737, 2408, -2033
0.253441, -3100, 423, 2086, 3737, 2408, -2033
0.253575, -3100, 423, 2086, 3737, 2408, -2033
0.253710, 1446, 790, 3020, 3833, 2330, -870
0.253845, 1446, 790, 3020, 3833, 2330, -870
0.253979, 1446, 790, 3020, 3833, 2330, -870
0.254114, 1446, 790, 3020, 3833, 2330, -870
0.254248, 1446, 790, 3020, 3833, 2330, -870
0.254383, 1446, 790, 3020, 3833, 2330, -870
0.254518, 1446, 790, 3020, 3833, 2330, -870
0.254653, 1446, 790, 3020, 3833, 2330, -870
0.254787, 4025, 1344, 4675, 4306, 2186, -2289
0.254922, 4025, 1344, 4675, 4306, 2186, -2289
0.255056, 4025, 1344, 4675, 4306, 2186, -2289
0.255191, 4025, 1344, 4675, 4306, 2186, -2289
0.255325, 4025, 1344, 4675, 4306, 2186, -2289
0.255460, 4025, 1344, 4675, 4306, 2186, -2289
0.255594, 4025, 1344, 4675, 4306, 2186, -2289
0.255729, 3948, 923, 3807, 5261, 2258, -4727
0.255864, 3948, 923, 3807, 5261, 2258, -4727
0.255998, 3948, 923, 3807, 5261, 2258, -4727
0.256133, 3948, 923, 3807, 5261, 2258, -4727
0.256267, 3948, 923, 3807, 5261, 2258, -4727
0.256402, 3948, 923, 3807, 5261, 2258, -4727
0.256536, 3948, 923, 3807, 5261, 2258, -4727
0.256671, 3948, 923, 3807, 5261, 2258, -4727
0.256806, 1369, -771, -430, 5090, 2099, -6770
0.256940, 1369, -771, -430, 5090, 2099, -6770
0.257075, 1369, -771, -430, 5090, 2099, -6770
0.257209, 1369, -771, -430, 5090, 2099, -6770
0.257344, 1369, -771, -430, 5090, 2099, -6770
0.257479, 1369, -771, -430, 5090, 2099, -6770
0.257613, 1369, -771, -430, 5090, 2099, -6770
0.257748, -3324, -909, -1717, 3598, 1491, -6760
0.257883, -3324, -909, -1717, 3598, 1491, -6760
0.258017, -3324, -909, -1717, 3598, 1491, -6760
0.258152, -3324, -909, -1717, 3598, 1491, -6760
0.258286, -3324, -909, -1717, 3598, 1491, -6760
0.258421, -3324, -909, -1717, 3598, 1491, -6760
0.258556, -3324, -909, -1717, 3598, 1491, -6760
0.258690, -3324, -909, -1717, 3598, 1491, -6760
0.258825, -6264, 125, 830, 2733, 1018, -3767
0.258960, -6264, 125, 830, 2733, 1018, -3767
0.259094, -6264, 125, 830, 2733, 1018, -3767
0.259229, -6264, 125, 830, 2733, 1018, -3767
0.259363, -6264, 125, 830, 2733, 1018, -3767
0.259498, -6264, 125, 830, 2733, 1018, -3767
0.259632, -6264, 125, 830, 2733, 1018, -3767
0.259767, -4154, 368, 1933, 2615, 823, 142
0.259902, -4154, 368, 1933, 2615, 823, 142
0.260036, -4154, 368, 1933, 2615, 823, 142
0.260171, -4154, 368, 1933, 2615, 823, 142
0.260305, -4154, 368, 1933, 2615, 823, 142
0.260440, -4154, 368, 1933, 2615, 823, 142
0.260574, -4154, 368, 1933, 2615, 823, 142
0.260709, -4154, 368, 1933, 2615, 823, 142
0.260844, 271, 257, 2152, 2325, 482, 1895
0.260978, 271, 257, 2152, 2325, 482, 1895
0.261113, 271, 257, 2152, 2325, 482, 1895
0.261247, 271, 257, 2152, 2325, 482, 1895
0.261382, 271, 257, 2152, 2325, 482, 1895
0.261517, 271, 257, 2152, 2325, 482, 1895
0.261651, 271, 257, 2152, 2325, 482, 1895
0.261786, 1916, 212, 2650, 1889, 8, 1242
0.261920, 1916, 212, 2650, 1889, 8, 1242
0.262055, 1916, 212, 2650, 1889, 8, 1242
0.262190, 1916, 212, 2650, 1889, 8, 1242
0.262324, 1916, 212, 2650, 1889, 8, 1242
0.262459, 1916, 212, 2650, 1889, 8, 1242
0.262593, 1916, 212, 2650, 1889, 8, 1242
0.262728, 1916, 212, 2650, 1889, 8, 1242
0.262862, 549, 135, 1818, 1408, -458, 252
0.262997, 549, 135, 1818, 1408, -458, 252
0.263132, 549, 135, 1818, 1408, -458, 252
0.263266, 549, 135, 1818, 1408, -458, 252
0.263401, 549, 135, 1818, 1408, -458, 252
0.263542, 549, 135, 1818, 1408, -458, 252
0.263677, 549, 135, 1818, 1408, -458, 252
0.263812, -1009, -26, 534, 877, -973, 146
0.263947, -1009, -26, 534, 877, -973, 146
0.264081, -1009, -26, 534, 877, -973, 146
0.264216, -1009, -26, 534, 877, -973, 146
0.264350, -1009, -26, 534, 877, -973, 146
0.264485, -1009, -26, 534, 877, -973, 146
0.264619, -1009, -26, 534, 877, -973, 146
0.264754, -1009, -26, 534, 877, -973, 146
0.264888, -1536, -40, 560, 276, -1358, 825
0.265023, -1536, -40, 560, 276, -1358, 825
0.265158, -1536, -40, 560, 276, -1358, 825
0.265292, -1536, -40, 560, 276, -1358, 825
0.265427, -1536, -40, 560, 276, -1358, 825
0.265561, -1536, -40, 560, 276, -1358, 825
0.265696, -1536, -40, 560, 276, -1358, 825
0.265830, -309, 160, 1497, -228, -1557, 1667
0.265965, -309, 160, 1497, -228, -1557, 1667
0.266100, -309, 160, 1497, -228, -1557, 1667
0.266234, -309, 160, 1497, -228, -1557, 1667
0.266372, -309, 160, 1497, -228, -1557, 1667
0.266507, -309, 160, 1497, -228, -1557, 1667
0.266642, -309, 160, 1497, -228, -1557, 1667
0.266776, -309, 160, 1497, -228, -1557, 1667
0.266911, 1600, 141, 2326, -404, -1470, 1599
0.267046, 1600, 141, 2326, -404, -1470, 1599
0.267180, 1600, 141, 2326, -404, -1470, 1599
0.267315, 1600, 141, 2326, -404, -1470, 1599
0.267449, 1600, 141, 2326, -404, -1470, 1599
0.267584, 1600, 141, 2326, -404, -1470, 1599
0.267718, 1600, 141, 2326, -404, -1470, 1599
0.267853, 1312, -16, 2651, -214, -904, 660
0.267988, 1312, -16, 2651, -214, -904, 660
0.268122, 1312, -16, 2651, -214, -904, 660
0.268257, 1312, -16, 2651, -214, -904, 660
0.268391, 1312, -16, 2651, -214, -904, 660
0.268526, 1312, -16, 2651, -214, -904, 660
0.268660, 1312, -16, 2651, -214, -904, 660
0.268794, 1312, -16, 2651, -214, -904, 660
0.268929, -875, 58, 2335, 134, -167, 394
0.269064, -875, 58, 2335, 134, -167, 394
0.269198, -875, 58, 2335, 134, -167, 394
0.269333, -875, 58, 2335, 134, -167, 394
0.269467, -875, 58, 2335, 134, -167, 394
0.269601, -875, 58, 2335, 134, -167, 394
0.269736, -875, 58, 2335, 134, -167, 394
0.269870, -875, 58, 2335, 134, -167, 394
0.270005, -1416, 248, 2033, 396, 222, 1273
0.270139, -1416, 248, 2033, 396, 222, 1273
0.270274, -1416, 248, 2033, 396, 222, 1273
0.270409, -1416, 248, 2033, 396, 222, 1273
0.270543, -1416, 248, 2033, 396, 222, 1273
0.270678, -1416, 248, 2033, 396, 222, 1273
0.270812, -1416, 248, 2033, 396, 222, 1273
0.270947, 922, 379, 2248, 517, 70, 1751
0.271081, 922, 379, 2248, 517, 70, 1751
0.271216, 922, 379, 2248, 517, 70, 1751
0.271350, 922, 379, 2248, 517, 70, 1751
0.271485, 922, 379, 2248, 517, 70, 1751
0.271619, 922, 379, 2248, 517, 70, 1751
0.271754, 922, 379, 2248, 517, 70, 1751
0.271888, 922, 379, 2248, 517, 70, 1751
0.272023, 2848, 428, 2564, 559, -224, 645
0.272158, 2848, 428, 2564, 559, -224, 645
0.272292, 2848, 428, 2564, 559, -224, 645
0.272427, 2848, 428, 2564, 559, -224, 645
0.272561, 2848, 428, 2564, 559, -224, 645
0.272696, 2848, 428, 2564, 559, -224, 645
0.272830, 2848, 428, 2564, 559, -224, 645
0.272965, 1264, 288, 2328, 614, -70, -950
0.273100, 1264, 288, 2328, 614, -70, -950
0.273241, 1264, 288, 2328, 614, -70, -950
0.273380, 1264, 288, 2328, 614, -70, -950
0.273517, 1264, 288, 2328, 614, -70, -950
0.273652, 1264, 288, 2328, 614, -70, -950
0.273788, 1264, 288, 2328, 614, -70, -950
0.273923, 1264, 288, 2328, 614, -70, -950
0.274059, -2018, 19, 1325, 529, 442, -968
0.274194, -2018, 19, 1325, 529, 442, -968
0.274331, -2018, 19, 1325, 529, 442, -968
0.274467, -2018, 19, 1325, 529, 442, -968
0.274603, -2018, 19, 1325, 529, 442, -968
0.274740, -2018, 19, 1325, 529, 442, -968
0.274877, -2018, 19, 1325, 529, 442, -968
0.275013, -1373, 157, 1069, 186, 516, 460
0.275150, -1373, 157, 1069, 186, 516, 460
0.275293, -1373, 157, 1069, 186, 516, 460
0.275429, -1373, 157, 1069, 186, 516, 460
0.275564, -1373, 157, 1069, 186, 516, 460
0.275702, -1373, 157, 1069, 186, 516, 460
0.275842, -1373, 157, 1069, 186, 516, 460
0.275975, 3675, 645, 2463, 42, -49, 285
0.276111, 3675, 645, 2463, 42, -49, 285
0.276247, 3675, 645, 2463, 42, -49, 285
0.276384, 3675, 645, 2463, 42, -49, 285
0.276519, 3675, 645, 2463, 42, -49, 285
0.276670, 3675, 645, 2463, 42, -49, 285
0.276808, 3675, 645, 2463, 42, -49, 285
0.276944, 3675, 645, 2463, 42, -49, 285
0.277079, 4978, 416, 3665, 435, -204, -2667
0.277214, 4978, 416, 3665, 435, -204, -2667
0.277349, 4978, 416, 3665, 435, -204, -2667
0.277484, 4978, 416, 3665, 435, -204, -2667
0.277618, 4978, 416, 3665, 435, -204, -2667
0.277753, 4978, 416, 3665, 435, -204, -2667
0.277889, 4978, 416, 3665, 435, -204, -2667
0.278023, -350, -204, 3048, 1253, 723, -4727
0.278159, -350, -204, 3048, 1253, 723, -4727
0.278294, -350, -204, 3048, 1253, 723, -4727
0.278429, -350, -204, 3048, 1253, 723, -4727
0.278563, -350, -204, 3048, 1253, 723, -4727
0.278699, -350, -204, 3048, 1253, 723, -4727
0.278833, -350, -204, 3048, 1253, 723, -4727
0.278968, -350, -204, 3048, 1253, 723, -4727
0.279102, -3955, 16, 1482, 1932, 1752, -3274
0.279237, -3955, 16, 1482, 1932, 1752, -3274
0.279372, -3955, 16, 1482, 1932, 1752, -3274
0.279507, -3955, 16, 1482, 1932, 1752, -3274
0.279641, -3955, 16, 1482, 1932, 1752, -3274
0.279776, -3955, 16, 1482, 1932, 1752, -3274
0.279911, -3955, 16, 1482, 1932, 1752, -3274
0.280048, -1719, 497, 1237, 1966, 1736, -1024
0.280182, -1719, 497, 1237, 1966, 1736, -1024
0.280317, -1719, 497, 1237, 1966, 1736, -1024
0.280452, -1719, 497, 1237, 1966, 1736, -1024
0.280588, -1719, 497, 1237, 1966, 1736, -1024
0.280723, -1719, 497, 1237, 1966, 1736, -1024
0.280858, -1719, 497, 1237, 1966, 1736, -1024
0.281000, -1719, 497, 1237, 1966, 1736, -1024
0.281144, 914, 584, 2176, 1690, 1026, -695
0.281282, 914, 584, 2176, 1690, 1026, -695
0.281418, 914, 584, 2176, 1690, 1026, -695
0.281553, 914, 584, 2176, 1690, 1026, -695
0.281688, 914, 584, 2176, 1690, 1026, -695
0.281822, 914, 584, 2176, 1690, 1026, -695
0.281958, 914, 584, 2176, 1690, 1026, -695
0.282094, 533, 386, 2484, 1464, 666, -1291
0.282229, 533, 386, 2484, 1464, 666, -1291
0.282382, 533, 386, 2484, 1464, 666, -1291
0.282521, 533, 386, 2484, 1464, 666, -1291
0.282658, 533, 386, 2484, 1464, 666, -1291
0.282793, 533, 386, 2484, 1464, 666, -1291
0.282928, 533, 386, 2484, 1464, 666, -1291
0.283063, -1627, -67, 2185, 1348, 853, -1089
0.283197, -1627, -67, 2185, 1348, 853, -1089
0.283332, -1627, -67, 2185, 1348, 853, -1089
0.283466, -1627, -67, 2185, 1348, 853, -1089
0.283601, -1627, -67, 2185, 1348, 853, -1089
0.283735, -1627, -67, 2185, 1348, 853, -1089
0.283866, -1627, -67, 2185, 1348, 853, -1089
0.283996, -1627, -67, 2185, 1348, 853, -1089
0.284132, -2756, -190, 1765, 1322, 915, 269
0.284267, -2756, -190, 1765, 1322, 915, 269
0.284402, -2756, -190, 1765, 1322, 915, 269
0.284536, -2756, -190, 1765, 1322, 915, 269
0.284670, -2756, -190, 1765, 1322, 915, 269
0.284805, -2756, -190, 1765, 1322, 915, 269
0.284939, -2756, -190, 1765, 1322, 915, 269
0.285074, -2756, -190, 1765, 1322, 915, 269
0.285208, -1461, 156, 1555, 1096, 357, 1693
0.285343, -1461, 156, 1555, 1096, 357, 1693
0.285477, -1461, 156, 1555, 1096, 357, 1693
0.285612, -1461, 156, 1555, 1096, 357, 1693
0.285746, -1461, 156, 1555, 1096, 357, 1693
0.285881, -1461, 156, 1555, 1096, 357, 1693
0.286015, -1461, 156, 1555, 1096, 357, 1693
0.286149, -18, 353, 2034, 687, -501, 2109
0.286284, -18, 353, 2034, 687, -501, 2109
0.286419, -18, 353, 2034, 687, -501, 2109
0.286553, -18, 353, 2034, 687, -501, 2109
0.286688, -18, 353, 2034, 687, -501, 2109
0.286822, -18, 353, 2034, 687, -501, 2109
0.286957, -18, 353, 2034, 687, -501, 2109
0.287091, -18, 353, 2034, 687, -501, 2109
0.287226, 829, 400, 2680, 527, -1097, 1821
0.287360, 829, 400, 2680, 527, -1097, 1821
0.287495, 829, 400, 2680, 527, -1097, 1821
0.287629, 829, 400, 2680, 527, -1097, 1821
0.287764, 829, 400, 2680, 527, -1097, 1821
0.287898, 829, 400, 2680, 527, -1097, 1821
0.288033, 829, 400, 2680, 527, -1097, 1821
0.288167, 1870, 416, 2591, 687, -1256, 1066
0.288297, 1870, 416, 2591, 687, -1256, 1066
0.288437, 1870, 416, 2591, 687, -1256, 1066
0.288572, 1870, 416, 2591, 687, -1256, 1066
0.288707, 1870, 416, 2591, 687, -1256, 1066
0.288842, 1870, 416, 2591, 687, -1256, 1066
0.288977, 1870, 416, 2591, 687, -1256, 1066
0.289111, 1870, 416, 2591, 687, -1256, 1066
0.289246, 2107, 246, 1897, 794, -1086, -215
0.289406, 2107, 246, 1897, 794, -1086, -215
0.289546, 2107, 246, 1897, 794, -1086, -215
0.289685, 2107, 246, 1897, 794, -1086, -215
0.289822, 2107, 246, 1897, 794, -1086, -215
0.289957, 2107, 246, 1897, 794, -1086, -215
0.290091, 2107, 246, 1897, 794, -1086, -215
0.290226, 214, -115, 1173, 667, -701, -1230
0.290360, 214, -115, 1173, 667, -701, -1230
0.290496, 214, -115, 1173, 667, -701, -1230
0.290631, 214, -115, 1173, 667, -701, -1230
0.290765, 214, -115, 1173, 667, -701, -1230
0.290901, 214, -115, 1173, 667, -701, -1230
0.291037, 214, -115, 1173, 667, -701, -1230
0.291172, -3749, -430, 536, 309, -200, -543
0.291307, -3749, -430, 536, 309, -200, -543
0.291442, -3749, -430, 536, 309, -200, -543
0.291576, -3749, -430, 536, 309, -200, -543
0.291711, -3749, -430, 536, 309, -200, -543
0.291846, -3749, -430, 536, 309, -200, -543
0.291980, -3749, -430, 536, 309, -200, -543
0.292115, -3749, -430, 536, 309, -200, -543
0.292249, -5421, -167, 714, -242, -4, 2332
0.292385, -5421, -167, 714, -242, -4, 2332
0.292519, -5421, -167, 714, -242, -4, 2332
0.292654, -5421, -167, 714, -242, -4, 2332
0.292783, -5421, -167, 714, -242, -4, 2332
0.292913, -5421, -167, 714, -242, -4, 2332
0.293048, -5421, -167, 714, -242, -4, 2332
0.293183, -5421, -167, 714, -242, -4, 2332
0.293317, -2168, 321, 1835, -784, -399, 5155
0.293452, -2168, 321, 1835, -784, -399, 5155
0.293586, -2168, 321, 1835, -784, -399, 5155
0.293721, -2168, 321, 1835, -784, -399, 5155
0.293855, -2168, 321, 1835, -784, -399, 5155
0.293989, -2168, 321, 1835, -784, -399, 5155
0.294124, -2168, 321, 1835, -784, -399, 5155
0.294259, 1271, 353, 2203, -1398, -953, 5685
0.294389, 1271, 353, 2203, -1398, -953, 5685
0.294523, 1271, 353, 2203, -1398, -953, 5685
0.294658, 1271, 353, 2203, -1398, -953, 5685
0.294792, 1271, 353, 2203, -1398, -953, 5685
0.294927, 1271, 353, 2203, -1398, -953, 5685
0.295061, 1271, 353, 2203, -1398, -953, 5685
0.295195, 1271, 353, 2203, -1398, -953, 5685
0.295330, 2332, 282, 1552, -2247, -1321, 4585
0.295464, 2332, 282, 1552, -2247, -1321, 4585
0.295599, 2332, 282, 1552, -2247, -1321, 4585
0.295733, 2332, 282, 1552, -2247, -1321, 4585
0.295868, 2332, 282, 1552, -2247, -1321, 4585
0.296002, 2332, 282, 1552, -2247, -1321, 4585
0.296136, 2332, 282, 1552, -2247, -1321, 4585
0.296271, 2524, 398, 1184, -3068, -1531, 3052
0.296405, 2524, 398, 1184, -3068, -1531, 3052
0.296540, 2524, 398, 1184, -3068, -1531, 3052
0.296674, 2524, 398, 1184, -3068, -1531, 3052
0.296809, 2524, 398, 1184, -3068, -1531, 3052
0.296943, 2524, 398, 1184, -3068, -1531, 3052
0.297077, 2524, 398, 1184, -3068, -1531, 3052
0.297212, 2524, 398, 1184, -3068, -1531, 3052
0.297346, 1918, 408, 1345, -3518, -1526, 1555
0.297481, 1918, 408, 1345, -3518, -1526, 1555
0.297615, 1918, 408, 1345, -3518, -1526, 1555
0.297750, 1918, 408, 1345, -3518, -1526, 1555
0.297884, 1918, 408, 1345, -3518, -1526, 1555
0.298018, 1918, 408, 1345, -3518, -1526, 1555
0.298153, 1918, 408, 1345, -3518, -1526, 1555
0.298287, 949, 183, 1841, -3465, -1275, 630
0.298422, 949, 183, 1841, -3465, -1275, 630
0.298556, 949, 183, 1841, -3465, -1275, 630
0.298691, 949, 183, 1841, -3465, -1275, 630
0.298825, 949, 183, 1841, -3465, -1275, 630
0.298959, 949, 183, 1841, -3465, -1275, 630
0.299094, 949, 183, 1841, -3465, -1275, 630
0.299228, 949, 183, 1841, -3465, -1275, 630
0.299363, 1096, -34, 2830, -2833, -851, 219
0.299497, 1096, -34, 2830, -2833, -851, 219
0.299632, 1096, -34, 2830, -2833, -851, 219
0.299761, 1096, -34, 2830, -2833, -851, 219
0.299896, 1096, -34, 2830, -2833, -851, 219
0.300030, 1096, -34, 2830, -2833, -851, 219
0.300165, 1096, -34, 2830, -2833, -851, 219
0.300299, 2309, 93, 3366, -1706, -361, -543
0.300434, 2309, 93, 3366, -1706, -361, -543
0.300568, 2309, 93, 3366, -1706, -361, -543
0.300703, 2309, 93, 3366, -1706, -361, -543
0.300837, 2309, 93, 3366, -1706, -361, -543
0.300972, 2309, 93, 3366, -1706, -361, -543
0.301107, 2309, 93, 3366, -1706, -361, -543
0.301241, 2309, 93, 3366, -1706, -361, -543
0.301376, 2524, 226, 2664, -770, 189, -2006
0.301510, 2524, 226, 2664, -770, 189, -2006
0.301658, 2524, 226, 2664, -770, 189, -2006
0.301795, 2524, 226, 2664, -770, 189, -2006
0.301929, 2524, 226, 2664, -770, 189, -2006
0.302063, 2524, 226, 2664, -770, 189, -2006
0.302198, 2524, 226, 2664, -770, 189, -2006
0.302332, 1297, 193, 2092, -361, 831, -3284
0.302467, 1297, 193, 2092, -361, 831, -3284
0.302602, 1297, 193, 2092, -361, 831, -3284
0.302736, 1297, 193, 2092, -361, 831, -3284
0.302870, 1297, 193, 2092, -361, 831, -3284
0.303005, 1297, 193, 2092, -361, 831, -3284
0.303139, 1297, 193, 2092, -361, 831, -3284
0.303273, 1297, 193, 2092, -361, 831, -3284
0.303408, 217, 377, 1650, -190, 1458, -3717
0.303542, 217, 377, 1650, -190, 1458, -3717
0.303677, 217, 377, 1650, -190, 1458, -3717
0.303811, 217, 377, 1650, -190, 1458, -3717
0.303946, 217, 377, 1650, -190, 1458, -3717
0.304080, 217, 377, 1650, -190, 1458, -3717
0.304214, 217, 377, 1650, -190, 1458, -3717
0.304349, -729, 446, 919, -458, 1929, -3580
0.304483, -729, 446, 919, -458, 1929, -3580
0.304618, -729, 446, 919, -458, 1929, -3580
0.304752, -729, 446, 919, -458, 1929, -3580
0.304886, -729, 446, 919, -458, 1929, -3580
0.305021, -729, 446, 919, -458, 1929, -3580
0.305155, -729, 446, 919, -458, 1929, -3580
0.305290, -729, 446, 919, -458, 1929, -3580
0.305424, -2083, 156, 1659, -897, 2212, -2748
0.305559, -2083, 156, 1659, -897, 2212, -2748
0.305693, -2083, 156, 1659, -897, 2212, -2748
0.305828, -2083, 156, 1659, -897, 2212, -2748
0.305962, -2083, 156, 1659, -897, 2212, -2748
0.306096, -2083, 156, 1659, -897, 2212, -2748
0.306231, -2083, 156, 1659, -897, 2212, -2748
0.306370, -1997, 27, 3307, -693, 2271, -1235
0.306505, -1997, 27, 3307, -693, 2271, -1235
0.306640, -1997, 27, 3307, -693, 2271, -1235
0.306774, -1997, 27, 3307, -693, 2271, -1235
0.306909, -1997, 27, 3307, -693, 2271, -1235
0.307043, -1997, 27, 3307, -693, 2271, -1235
0.307177, -1997, 27, 3307, -693, 2271, -1235
0.307312, -1997, 27, 3307, -693, 2271, -1235
0.307446, -144, 225, 3531, -7, 1965, -295
0.307581, -144, 225, 3531, -7, 1965, -295
0.307715, -144, 225, 3531, -7, 1965, -295
0.307850, -144, 225, 3531, -7, 1965, -295
0.307984, -144, 225, 3531, -7, 1965, -295
0.308118, -144, 225, 3531, -7, 1965, -295
0.308253, -144, 225, 3531, -7, 1965, -295
0.308387, -144, 225, 3531, -7, 1965, -295
0.308522, 1091, 184, 2882, 405, 1276, -650
0.308656, 1091, 184, 2882, 405, 1276, -650
0.308791, 1091, 184, 2882, 405, 1276, -650
0.308925, 1091, 184, 2882, 405, 1276, -650
0.309059, 1091, 184, 2882, 405, 1276, -650
0.309194, 1091, 184, 2882, 405, 1276, -650
0.309328, 1091, 184, 2882, 405, 1276, -650
0.309463, 1225, 118, 3473, 755, 529, -1602
0.309597, 1225, 118, 3473, 755, 529, -1602
0.309732, 1225, 118, 3473, 755, 529, -1602
0.309866, 1225, 118, 3473, 755, 529, -1602
0.310001, 1225, 118, 3473, 755, 529, -1602
0.310135, 1225, 118, 3473, 755, 529, -1602
0.310269, 1225, 118, 3473, 755, 529, -1602
0.310404, 1225, 118, 3473, 755, 529, -1602
0.310538, 1167, 640, 4823, 2012, 139, -2429
0.310673, 1167, 640, 4823, 2012, 139, -2429
0.310808, 1167, 640, 4823, 2012, 139, -2429
0.310942, 1167, 640, 4823, 2012, 139, -2429
0.311077, 1167, 640, 4823, 2012, 139, -2429
0.311211, 1167, 640, 4823, 2012, 139, -2429
0.311346, 1167, 640, 4823, 2012, 139, -2429
0.311480, 2368, 1135, 4435, 3963, 162, -3396
0.311615, 2368, 1135, 4435, 3963, 162, -3396
0.311750, 2368, 1135, 4435, 3963, 162, -3396
0.311884, 2368, 1135, 4435, 3963, 162, -3396
0.312019, 2368, 1135, 4435, 3963, 162, -3396
0.312153, 2368, 1135, 4435, 3963, 162, -3396
0.312288, 2368, 1135, 4435, 3963, 162, -3396
0.312422, 2368, 1135, 4435, 3963, 162, -3396
0.312557, 1513, 184, 918, 4730, 442, -4903
0.312692, 1513, 184, 918, 4730, 442, -4903
0.312826, 1513, 184, 918, 4730, 442, -4903
0.312961, 1513, 184, 918, 4730, 442, -4903
0.313095, 1513, 184, 918, 4730, 442, -4903
0.313230, 1513, 184, 918, 4730, 442, -4903
0.313364, 1513, 184, 918, 4730, 442, -4903
0.313499, -3778, -1023, -2009, 3194, 826, -4756
0.313634, -3778, -1023, -2009, 3194, 826, -4756
0.313768, -3778, -1023, -2009, 3194, 826, -4756
0.313903, -3778, -1023, -2009, 3194, 826, -4756
0.314037, -3778, -1023, -2009, 3194, 826, -4756
0.314184, -3778, -1023, -2009, 3194, 826, -4756
0.314321, -3778, -1023, -2009, 3194, 826, -4756
0.314455, -3778, -1023, -2009, 3194, 826, -4756
0.314590, -5174, -345, -248, 1251, 938, -1616
0.314725, -5174, -345, -248, 1251, 938, -1616
0.314859, -5174, -345, -248, 1251, 938, -1616
0.314989, -5174, -345, -248, 1251, 938, -1616
0.315125, -5174, -345, -248, 1251, 938, -1616
0.315261, -5174, -345, -248, 1251, 938, -1616
0.315398, -5174, -345, -248, 1251, 938, -1616
0.315528, -575, 582, 2439, 628, 792, 814
0.315663, -575, 582, 2439, 628, 792, 814
0.315798, -575, 582, 2439, 628, 792, 814
0.315933, -575, 582, 2439, 628, 792, 814
0.316067, -575, 582, 2439, 628, 792, 814
0.316202, -575, 582, 2439, 628, 792, 814
0.316336, -575, 582, 2439, 628, 792, 814
0.316471, -575, 582, 2439, 628, 792, 814
0.316605, 2700, 627, 2969, 560, 796, 202
0.316740, 2700, 627, 2969, 560, 796, 202
0.316875, 2700, 627, 2969, 560, 796, 202
0.317009, 2700, 627, 2969, 560, 796, 202
0.317144, 2700, 627, 2969, 560, 796, 202
0.317278, 2700, 627, 2969, 560, 796, 202
0.317413, 2700, 627, 2969, 560, 796, 202
0.317548, 2709, 553, 2897, 487, 1002, -1603
0.317682, 2709, 553, 2897, 487, 1002, -1603
0.317817, 2709, 553, 2897, 487, 1002, -1603
0.317951, 2709, 553, 2897, 487, 1002, -1603
0.318086, 2709, 553, 2897, 487, 1002, -1603
0.318220, 2709, 553, 2897, 487, 1002, -1603
0.318355, 2709, 553, 2897, 487, 1002, -1603
0.318490, 2709, 553, 2897, 487, 1002, -1603
0.318625, 412, 292, 2260, 533, 1216, -2815
0.318760, 412, 292, 2260, 533, 1216, -2815
0.318895, 412, 292, 2260, 533, 1216, -2815
0.319029, 412, 292, 2260, 533, 1216, -2815
0.319164, 412, 292, 2260, 533, 1216, -2815
0.319298, 412, 292, 2260, 533, 1216, -2815
0.319433, 412, 292, 2260, 533, 1216, -2815
0.319567, -2952, -26, 905, 514, 973, -2415
0.319702, -2952, -26, 905, 514, 973, -2415
0.319836, -2952, -26, 905, 514, 973, -2415
0.319971, -2952, -26, 905, 514, 973, -2415
0.320106, -2952, -26, 905, 514, 973, -2415
0.320240, -2952, -26, 905, 514, 973, -2415
0.320375, -2952, -26, 905, 514, 973, -2415
0.320509, -2952, -26, 905, 514, 973, -2415
0.320644, -4550, -94, 500, 235, 206, -254
0.320778, -4550, -94, 500, 235, 206, -254
0.320913, -4550, -94, 500, 235, 206, -254
0.321048, -4550, -94, 500, 235, 206, -254
0.321182, -4550, -94, 500, 235, 206, -254
0.321317, -4550, -94, 500, 235, 206, -254
0.321451, -4550, -94, 500, 235, 206, -254
0.321586, -3733, 17, 1406, -267, -591, 2496
0.321721, -3733, 17, 1406, -267, -591, 2496
0.321855, -3733, 17, 1406, -267, -591, 2496
0.321989, -3733, 17, 1406, -267, -591, 2496
0.322124, -3733, 17, 1406, -267, -591, 2496
0.322258, -3733, 17, 1406, -267, -591, 2496
0.322393, -3733, 17, 1406, -267, -591, 2496
0.322528, -3733, 17, 1406, -267, -591, 2496
0.322662, -2042, 142, 2129, -836, -1186, 4569
0.322797, -2042, 142, 2129, -836, -1186, 4569
0.322931, -2042, 142, 2129, -836, -1186, 4569
0.323066, -2042, 142, 2129, -836, -1186, 4569
0.323200, -2042, 142, 2129, -836, -1186, 4569
0.323335, -2042, 142, 2129, -836, -1186, 4569
0.323469, -2042, 142, 2129, -836, -1186, 4569
0.323604, -626, 247, 2260, -1359, -1508, 5551
0.323739, -626, 247, 2260, -1359, -1508, 5551
0.323874, -626, 247, 2260, -1359, -1508, 5551
0.324008, -626, 247, 2260, -1359, -1508, 5551
0.324143, -626, 247, 2260, -1359, -1508, 5551
0.324277, -626, 247, 2260, -1359, -1508, 5551
0.324412, -626, 247, 2260, -1359, -1508, 5551
0.324547, -626, 247, 2260, -1359, -1508, 5551
0.324681, 120, 300, 2216, -1808, -1667, 5710
0.324816, 120, 300, 2216, -1808, -1667, 5710
0.324951, 120, 300, 2216, -1808, -1667, 5710
0.325085, 120, 300, 2216, -1808, -1667, 5710
0.325220, 120, 300, 2216, -1808, -1667, 5710
0.325355, 120, 300, 2216, -1808, -1667, 5710
0.325489, 120, 300, 2216, -1808, -1667, 5710
0.325624, 121, 256, 2106, -2144, -1905, 5501
0.325759, 121, 256, 2106, -2144, -1905, 5501
0.325893, 121, 256, 2106, -2144, -1905, 5501
0.326028, 121, 256, 2106, -2144, -1905, 5501
0.326162, 121, 256, 2106, -2144, -1905, 5501
0.326297, 121, 256, 2106, -2144, -1905, 5501
0.326432, 121, 256, 2106, -2144, -1905, 5501
0.326567, 121, 256, 2106, -2144, -1905, 5501
0.326709, -227, 174, 2013, -2291, -2202, 5372
0.326847, -227, 174, 2013, -2291, -2202, 5372
0.326981, -227, 174, 2013, -2291, -2202, 5372
0.327116, -227, 174, 2013, -2291, -2202, 5372
0.327250, -227, 174, 2013, -2291, -2202, 5372
0.327385, -227, 174, 2013, -2291, -2202, 5372
0.327519, -227, 174, 2013, -2291, -2202, 5372
0.327654, -35, 162, 1989, -2290, -2397, 5411
0.327789, -35, 162, 1989, -2290, -2397, 5411
0.327923, -35, 162, 1989, -2290, -2397, 5411
0.328058, -35, 162, 1989, -2290, -2397, 5411
0.328193, -35, 162, 1989, -2290, -2397, 5411
0.328327, -35, 162, 1989, -2290, -2397, 5411
0.328462, -35, 162, 1989, -2290, -2397, 5411
0.328596, -35, 162, 1989, -2290, -2397, 5411
0.328731, 821, 254, 1905, -2296, -2417, 5214
0.328866, 821, 254, 1905, -2296, -2417, 5214
0.329000, 821, 254, 1905, -2296, -2417, 5214
0.329135, 821, 254, 1905, -2296, -2417, 5214
0.329269, 821, 254, 1905, -2296, -2417, 5214
0.329404, 821, 254, 1905, -2296, -2417, 5214
0.329539, 821, 254, 1905, -2296, -2417, 5214
0.329673, 821, 254, 1905, -2296, -2417, 5214
0.329808, 1600, 311, 1736, -2467, -2204, 4502
0.329943, 1600, 311, 1736, -2467, -2204, 4502
0.330077, 1600, 311, 1736, -2467, -2204, 4502
0.330212, 1600, 311, 1736, -2467, -2204, 4502
0.330347, 1600, 311, 1736, -2467, -2204, 4502
0.330482, 1600, 311, 1736, -2467, -2204, 4502
0.330616, 1600, 311, 1736, -2467, -2204, 4502
0.330751, 2623, 208, 1920, -2707, -1763, 3335
0.330886, 2623, 208, 1920, -2707, -1763, 3335
0.331020, 2623, 208, 1920, -2707, -1763, 3335
0.331155, 2623, 208, 1920, -2707, -1763, 3335
0.331289, 2623, 208, 1920, -2707, -1763, 3335
0.331424, 2623, 208, 1920, -2707, -1763, 3335
0.331559, 2623, 208, 1920, -2707, -1763, 3335
0.331694, 2623, 208, 1920, -2707, -1763, 3335
0.331828, 5080, 313, 2858, -2577, -1221, 1311
0.331963, 5080, 313, 2858, -2577, -1221, 1311
0.332098, 5080, 313, 2858, -2577, -1221, 1311
0.332232, 5080, 313, 2858, -2577, -1221, 1311
0.332367, 5080, 313, 2858, -2577, -1221, 1311
0.332501, 5080, 313, 2858, -2577, -1221, 1311
0.332636, 5080, 313, 2858, -2577, -1221, 1311
0.332770, 8158, 985, 4357, -1563, -492, -2525
0.332905, 8158, 985, 4357, -1563, -492, -2525
0.333040, 8158, 985, 4357, -1563, -492, -2525
0.333174, 8158, 985, 4357, -1563, -492, -2525
0.333309, 8158, 985, 4357, -1563, -492, -2525
0.333444, 8158, 985, 4357, -1563, -492, -2525
0.333578, 8158, 985, 4357, -1563, -492, -2525
0.333713, 8158, 985, 4357, -1563, -492, -2525
0.333847, 6555, 558, 4462, 171, 892, -7444
0.333982, 6555, 558, 4462, 171, 892, -7444
0.334117, 6555, 558, 4462, 171, 892, -7444
0.334251, 6555, 558, 4462, 171, 892, -7444
0.334386, 6555, 558, 4462, 171, 892, -7444
0.334521, 6555, 558, 4462, 171, 892, -7444
0.334655, 6555, 558, 4462, 171, 892, -7444
0.334790, 1086, -412, 2194, 1597, 2691, -10176
0.334925, 1086, -412, 2194, 1597, 2691, -10176
0.335059, 1086, -412, 2194, 1597, 2691, -10176
0.335194, 1086, -412, 2194, 1597, 2691, -10176
0.335329, 1086, -412, 2194, 1597, 2691, -10176
0.335463, 1086, -412, 2194, 1597, 2691, -10176
0.335595, 1086, -412, 2194, 1597, 2691, -10176
0.335731, 1086, -412, 2194, 1597, 2691, -10176
0.335867, -1253, 234, 192, 2001, 3801, -9997
0.336002, -1253, 234, 192, 2001, 3801, -9997
0.336137, -1253, 234, 192, 2001, 3801, -9997
0.336272, -1253, 234, 192, 2001, 3801, -9997
0.336406, -1253, 234, 192, 2001, 3801, -9997
0.336541, -1253, 234, 192, 2001, 3801, -9997
0.336675, -1253, 234, 192, 2001, 3801, -9997
0.336810, -3034, 254, 909, 1675, 4243, -8866
0.336945, -3034, 254, 909, 1675, 4243, -8866
0.337075, -3034, 254, 909, 1675, 4243, -8866
0.337209, -3034, 254, 909, 1675, 4243, -8866
0.337344, -3034, 254, 909, 1675, 4243, -8866
0.337478, -3034, 254, 909, 1675, 4243, -8866
0.337613, -3034, 254, 909, 1675, 4243, -8866
0.337748, -3034, 254, 909, 1675, 4243, -8866
0.337882, -5419, -501, 2649, 1687, 4583, -6316
0.338017, -5419, -501, 2649, 1687, 4583, -6316
0.338151, -5419, -501, 2649, 1687, 4583, -6316
0.338286, -5419, -501, 2649, 1687, 4583, -6316
0.338421, -5419, -501, 2649, 1687, 4583, -6316
0.338556, -5419, -501, 2649, 1687, 4583, -6316
0.338690, -5419, -501, 2649, 1687, 4583, -6316
0.338832, -3937, -92, 2340, 1935, 4480, -2813
0.338968, -3937, -92, 2340, 1935, 4480, -2813
0.339103, -3937, -92, 2340, 1935, 4480, -2813
0.339238, -3937, -92, 2340, 1935, 4480, -2813
0.339372, -3937, -92, 2340, 1935, 4480, -2813
0.339507, -3937, -92, 2340, 1935, 4480, -2813
0.339641, -3937, -92, 2340, 1935, 4480, -2813
0.339776, -3937, -92, 2340, 1935, 4480, -2813
0.339910, -337, 551, 1703, 1358, 3603, -1056
0.340045, -337, 551, 1703, 1358, 3603, -1056
0.340179, -337, 551, 1703, 1358, 3603, -1056
0.340314, -337, 551, 1703, 1358, 3603, -1056
0.340449, -337, 551, 1703, 1358, 3603, -1056
0.340583, -337, 551, 1703, 1358, 3603, -1056
0.340718, -337, 551, 1703, 1358, 3603, -1056
0.340852, 808, 503, 2164, 480, 2233, -1391
0.340987, 808, 503, 2164, 480, 2233, -1391
0.341122, 808, 503, 2164, 480, 2233, -1391
0.341256, 808, 503, 2164, 480, 2233, -1391
0.341391, 808, 503, 2164, 480, 2233, -1391
0.341525, 808, 503, 2164, 480, 2233, -1391
0.341660, 808, 503, 2164, 480, 2233, -1391
0.341794, 808, 503, 2164, 480, 2233, -1391
0.341929, -177, 237, 1997, 22, 969, -1856
0.342063, -177, 237, 1997, 22, 969, -1856
0.342198, -177, 237, 1997, 22, 969, -1856
0.342333, -177, 237, 1997, 22, 969, -1856
0.342468, -177, 237, 1997, 22, 969, -1856
0.342602, -177, 237, 1997, 22, 969, -1856
0.342737, -177, 237, 1997, 22, 969, -1856
0.342871, -82, 205, 1732, -124, -67, -1765
0.343006, -82, 205, 1732, -124, -67, -1765
0.343141, -82, 205, 1732, -124, -67, -1765
0.343275, -82, 205, 1732, -124, -67, -1765
0.343410, -82, 205, 1732, -124, -67, -1765
0.343545, -82, 205, 1732, -124, -67, -1765
0.343679, -82, 205, 1732, -124, -67, -1765
0.343814, -82, 205, 1732, -124, -67, -1765
0.343948, -824, 23, 1923, 35, -797, -1713
0.344083, -824, 23, 1923, 35, -797, -1713
0.344217, -824, 23, 1923, 35, -797, -1713
0.344352, -824, 23, 1923, 35, -797, -1713
0.344487, -824, 23, 1923, 35, -797, -1713
0.344621, -824, 23, 1923, 35, -797, -1713
0.344756, -824, 23, 1923, 35, -797, -1713
0.344890, -3408, -173, 1311, 121, -999, -642
0.345025, -3408, -173, 1311, 121, -999, -642
0.345160, -3408, -173, 1311, 121, -999, -642
0.345294, -3408, -173, 1311, 121, -999, -642
0.345429, -3408, -173, 1311, 121, -999, -642
0.345564, -3408, -173, 1311, 121, -999, -642
0.345698, -3408, -173, 1311, 121, -999, -642
0.345833, -3408, -173, 1311, 121, -999, -642
0.345967, -3444, -79, 902, -300, -1081, 1800
0.346102, -3444, -79, 902, -300, -1081, 1800
0.346236, -3444, -79, 902, -300, -1081, 1800
0.346372, -3444, -79, 902, -300, -1081, 1800
0.346507, -3444, -79, 902, -300, -1081, 1800
0.346641, -3444, -79, 902, -300, -1081, 1800
0.346776, -3444, -79, 902, -300, -1081, 1800
0.346910, -257, 178, 2016, -820, -1276, 3409
0.347045, -257, 178, 2016, -820, -1276, 3409
0.347180, -257, 178, 2016, -820, -1276, 3409
0.347314, -257, 178, 2016, -820, -1276, 3409
0.347449, -257, 178, 2016, -820, -1276, 3409
0.347583, -257, 178, 2016, -820, -1276, 3409
0.347718, -257, 178, 2016, -820, -1276, 3409
0.347852, -257, 178, 2016, -820, -1276, 3409
0.347987, 2720, 411, 3013, -1000, -1304, 2873
0.348122, 2720, 411, 3013, -1000, -1304, 2873
0.348256, 2720, 411, 3013, -1000, -1304, 2873
0.348391, 2720, 411, 3013, -1000, -1304, 2873
0.348525, 2720, 411, 3013, -1000, -1304, 2873
0.348660, 2720, 411, 3013, -1000, -1304, 2873
0.348794, 2720, 411, 3013, -1000, -1304, 2873
0.348929, 2720, 411, 3013, -1000, -1304, 2873
0.349063, 4094, 484, 2986, -898, -950, 816
0.349198, 4094, 484, 2986, -898, -950, 816
0.349333, 4094, 484, 2986, -898, -950, 816
0.349467, 4094, 484, 2986, -898, -950, 816
0.349602, 4094, 484, 2986, -898, -950, 816
0.349737, 4094, 484, 2986, -898, -950, 816
0.349871, 4094, 484, 2986, -898, -950, 816
0.350006, 3907, 466, 2845, -526, -222, -1779
0.350140, 3907, 466, 2845, -526, -222, -1779
0.350275, 3907, 466, 2845, -526, -222, -1779
0.350410, 3907, 466, 2845, -526, -222, -1779
0.350545, 3907, 466, 2845, -526, -222, -1779
0.350679, 3907, 466, 2845, -526, -222, -1779
0.350814, 3907, 466, 2845, -526, -222, -1779
0.350948, 3907, 466, 2845, -526, -222, -1779
0.351083, 486, 51, 2362, 76, 724, -3645
0.351218, 486, 51, 2362, 76, 724, -3645
0.351356, 486, 51, 2362, 76, 724, -3645
0.351491, 486, 51, 2362, 76, 724, -3645
0.351626, 486, 51, 2362, 76, 724, -3645
0.351760, 486, 51, 2362, 76, 724, -3645
0.351895, 486, 51, 2362, 76, 724, -3645
0.352029, -5151, -438, 820, 367, 1560, -2719
0.352164, -5151, -438, 820, 367, 1560, -2719
0.352299, -5151, -438, 820, 367, 1560, -2719
0.352433, -5151, -438, 820, 367, 1560, -2719
0.352568, -5151, -438, 820, 367, 1560, -2719
0.352702, -5151, -438, 820, 367, 1560, -2719
0.352837, -5151, -438, 820, 367, 1560, -2719
0.352971, -5151, -438, 820, 367, 1560, -2719
0.353106, -5962, -129, 307, -115, 1629, 1029
0.353240, -5962, -129, 307, -115, 1629, 1029
0.353375, -5962, -129, 307, -115, 1629, 1029
0.353510, -5962, -129, 307, -115, 1629, 1029
0.353644, -5962, -129, 307, -115, 1629, 1029
0.353779, -5962, -129, 307, -115, 1629, 1029
0.353914, -5962, -129, 307, -115, 1629, 1029
0.354048, -683, 390, 1992, -866, 779, 3754
0.354183, -683, 390, 1992, -866, 779, 3754
0.354318, -683, 390, 1992, -866, 779, 3754
0.354453, -683, 390, 1992, -866, 779, 3754
0.354587, -683, 390, 1992, -866, 779, 3754
0.354722, -683, 390, 1992, -866, 779, 3754
0.354856, -683, 390, 1992, -866, 779, 3754
0.354991, -683, 390, 1992, -866, 779, 3754
0.355125, 3604, 487, 3579, -1236, -97, 2983
0.355260, 3604, 487, 3579, -1236, -97, 2983
0.355395, 3604, 487, 3579, -1236, -97, 2983
0.355529, 3604, 487, 3579, -1236, -97, 2983
0.355664, 3604, 487, 3579, -1236, -97, 2983
0.355798, 3604, 487, 3579, -1236, -97, 2983
0.355933, 3604, 487, 3579, -1236, -97, 2983
0.356067, 3088, 345, 3925, -989, -236, 592
0.356202, 3088, 345, 3925, -989, -236, 592
0.356337, 3088, 345, 3925, -989, -236, 592
0.356471, 3088, 345, 3925, -989, -236, 592
0.356606, 3088, 345, 3925, -989, -236, 592
0.356740, 3088, 345, 3925, -989, -236, 592
0.356875, 3088, 345, 3925, -989, -236, 592
0.357009, 3088, 345, 3925, -989, -236, 592
0.357144, 160, 84, 2728, -369, 164, -738
0.357279, 160, 84, 2728, -369, 164, -738
0.357413, 160, 84, 2728, -369, 164, -738
0.357548, 160, 84, 2728, -369, 164, -738
0.357683, 160, 84, 2728, -369, 164, -738
0.357817, 160, 84, 2728, -369, 164, -738
0.357952, 160, 84, 2728, -369, 164, -738
0.358086, -1065, -44, 569, -273, 188, -542
0.358221, -1065, -44, 569, -273, 188, -542
0.358356, -1065, -44, 569, -273, 188, -542
0.358490, -1065, -44, 569, -273, 188, -542
0.358625, -1065, -44, 569, -273, 188, -542
0.358760, -1065, -44, 569, -273, 188, -542
0.358894, -1065, -44, 569, -273, 188, -542
0.359029, -1065, -44, 569, -273, 188, -542
0.359163, -539, 101, 251, -914, -475, -76
0.359298, -539, 101, 251, -914, -475, -76
0.359433, -539, 101, 251, -914, -475, -76
0.359567, -539, 101, 251, -914, -475, -76
0.359702, -539, 101, 251, -914, -475, -76
0.359836, -539, 101, 251, -914, -475, -76
0.359971, -539, 101, 251, -914, -475, -76
0.360105, 43, 324, 1645, -1461, -942, 121
0.360240, 43, 324, 1645, -1461, -942, 121
0.360375, 43, 324, 1645, -1461, -942, 121
0.360509, 43, 324, 1645, -1461, -942, 121
0.360644, 43, 324, 1645, -1461, -942, 121
0.360778, 43, 324, 1645, -1461, -942, 121
0.360913, 43, 324, 1645, -1461, -942, 121
0.361047, 43, 324, 1645, -1461, -942, 121
0.361182, 826, 411, 2209, -1583, -642, 68
0.361317, 826, 411, 2209, -1583, -642, 68
0.361451, 826, 411, 2209, -1583, -642, 68
0.361586, 826, 411, 2209, -1583, -642, 68
0.361720, 826, 411, 2209, -1583, -642, 68
0.361855, 826, 411, 2209, -1583, -642, 68
0.361989, 826, 411, 2209, -1583, -642, 68
0.362124, 217, 243, 2191, -1550, 180, -230
0.362258, 217, 243, 2191, -1550, 180, -230
0.362393, 217, 243, 2191, -1550, 180, -230
0.362528, 217, 243, 2191, -1550, 180, -230
0.362662, 217, 243, 2191, -1550, 180, -230
0.362797, 217, 243, 2191, -1550, 180, -230
0.362932, 217, 243, 2191, -1550, 180, -230
0.363066, 217, 243, 2191, -1550, 180, -230
0.363201, -981, 114, 2455, -1372, 1023, 59
0.363335, -981, 114, 2455, -1372, 1023, 59
0.363470, -981, 114, 2455, -1372, 1023, 59
0.363605, -981, 114, 2455, -1372, 1023, 59
0.363739, -981, 114, 2455, -1372, 1023, 59
0.363874, -981, 114, 2455, -1372, 1023, 59
0.364008, -981, 114, 2455, -1372, 1023, 59
0.364143, -730, 188, 2272, -1118, 1316, 765
0.364285, -730, 188, 2272, -1118, 1316, 765
0.364420, -730, 188, 2272, -1118, 1316, 765
0.364555, -730, 188, 2272, -1118, 1316, 765
0.364689, -730, 188, 2272, -1118, 1316, 765
0.364824, -730, 188, 2272, -1118, 1316, 765
0.364958, -730, 188, 2272, -1118, 1316, 765
0.365093, -730, 188, 2272, -1118, 1316, 765
0.365227, -290, 261, 1707, -1174, 1011, 1112
0.365362, -290, 261, 1707, -1174, 1011, 1112
0.365497, -290, 261, 1707, -1174, 1011, 1112
0.365631, -290, 261, 1707, -1174, 1011, 1112
0.365766, -290, 261, 1707, -1174, 1011, 1112
0.365900, -290, 261, 1707, -1174, 1011, 1112
0.366035, -290, 261, 1707, -1174, 1011, 1112
0.366169, 2174, 591, 1815, -1499, 441, 842
0.366304, 2174, 591, 1815, -1499, 441, 842
0.366439, 2174, 591, 1815, -1499, 441, 842
0.366573, 2174, 591, 1815, -1499, 441, 842
0.366708, 2174, 591, 1815, -1499, 441, 842
0.366843, 2174, 591, 1815, -1499, 441, 842
0.366977, 2174, 591, 1815, -1499, 441, 842
0.367112, 2174, 591, 1815, -1499, 441, 842
0.367246, 5745, 817, 2683, -1627, 23, -1406
0.367381, 5745, 817, 2683, -1627, 23, -1406
0.367516, 5745, 817, 2683, -1627, 23, -1406
0.367650, 5745, 817, 2683, -1627, 23, -1406
