Time, ax, ay, az, gx, gy, gz
0.000044, 5291, 1027, 976, 882, 899, -3575
0.000211, 5291, 1027, 976, 882, 899, -3575
0.000351, 648, -526, -706, -239, 2137, -6189
0.000494, 648, -526, -706, -239, 2137, -6189
0.000632, 648, -526, -706, -239, 2137, -6189
0.000773, 648, -526, -706, -239, 2137, -6189
0.000906, 648, -526, -706, -239, 2137, -6189
0.001043, 648, -526, -706, -239, 2137, -6189
0.001181, 648, -526, -706, -239, 2137, -6189
0.001317, -7238, -1066, 733, -1074, 2990, -4633
0.001455, -7238, -1066, 733, -1074, 2990, -4633
0.001592, -7238, -1066, 733, -1074, 2990, -4633
0.001728, -7238, -1066, 733, -1074, 2990, -4633
0.001865, -7238, -1066, 733, -1074, 2990, -4633
0.002002, -7238, -1066, 733, -1074, 2990, -4633
0.002134, -7238, -1066, 733, -1074, 2990, -4633
0.002271, -7238, -1066, 733, -1074, 2990, -4633
0.002407, -4071, 752, 2658, -542, 3092, -66
0.002545, -4071, 752, 2658, -542, 3092, -66
0.002681, -4071, 752, 2658, -542, 3092, -66
0.002818, -4071, 752, 2658, -542, 3092, -66
0.002955, -4071, 752, 2658, -542, 3092, -66
0.003092, -4071, 752, 2658, -542, 3092, -66
0.003229, -4071, 752, 2658, -542, 3092, -66
0.003365, 4022, 1021, 3462, -31, 2614, 526
0.003502, 4022, 1021, 3462, -31, 2614, 526
0.003639, 4022, 1021, 3462, -31, 2614, 526
0.003776, 4022, 1021, 3462, -31, 2614, 526
0.003913, 4022, 1021, 3462, -31, 2614, 526
0.004050, 4022, 1021, 3462, -31, 2614, 526
0.004187, 4022, 1021, 3462, -31, 2614, 526
0.004324, 4022, 1021, 3462, -31, 2614, 526
0.004462, 3950, -261, 3679, 175, 2189, -2410
0.004599, 3950, -261, 3679, 175, 2189, -2410
0.004736, 3950, -261, 3679, 175, 2189, -2410
0.004873, 3950, -261, 3679, 175, 2189, -2410
0.005010, 3950, -261, 3679, 175, 2189, -2410
0.005147, 3950, -261, 3679, 175, 2189, -2410
0.005285, 3950, -261, 3679, 175, 2189, -2410
0.005423, 958, 371, 2608, 549, 1961, -4144
0.005564, 958, 371, 2608, 549, 1961, -4144
0.005701, 958, 371, 2608, 549, 1961, -4144
0.005837, 958, 371, 2608, 549, 1961, -4144
0.005974, 958, 371, 2608, 549, 1961, -4144
0.006111, 958, 371, 2608, 549, 1961, -4144
0.006248, 958, 371, 2608, 549, 1961, -4144
0.006385, -1194, 891, 1282, 742, 1585, -4515
0.006523, -1194, 891, 1282, 742, 1585, -4515
0.006660, -1194, 891, 1282, 742, 1585, -4515
0.006797, -1194, 891, 1282, 742, 1585, -4515
0.006934, -1194, 891, 1282, 742, 1585, -4515
0.007071, -1194, 891, 1282, 742, 1585, -4515
0.007208, -1194, 891, 1282, 742, 1585, -4515
0.007345, -1194, 891, 1282, 742, 1585, -4515
0.007481, -4485, -506, 404, 455, 822, -3469
0.007618, -4485, -506, 404, 455, 822, -3469
0.007755, -4485, -506, 404, 455, 822, -3469
0.007892, -4485, -506, 404, 455, 822, -3469
0.008029, -4485, -506, 404, 455, 822, -3469
0.008166, -4485, -506, 404, 455, 822, -3469
0.008303, -4485, -506, 404, 455, 822, -3469
0.008440, -4842, -756, 1178, 125, -234, -436
0.008578, -4842, -756, 1178, 125, -234, -436
0.008714, -4842, -756, 1178, 125, -234, -436
0.008851, -4842, -756, 1178, 125, -234, -436
0.008988, -4842, -756, 1178, 125, -234, -436
0.009125, -4842, -756, 1178, 125, -234, -436
0.009262, -4842, -756, 1178, 125, -234, -436
0.009399, -4842, -756, 1178, 125, -234, -436
0.009535, -1270, 40, 2705, 147, -1043, 2056
0.009672, -1270, 40, 2705, 147, -1043, 2056
0.009809, -1270, 40, 2705, 147, -1043, 2056
0.009946, -1270, 40, 2705, 147, -1043, 2056
0.010083, -1270, 40, 2705, 147, -1043, 2056
0.010220, -1270, 40, 2705, 147, -1043, 2056
0.010357, -1270, 40, 2705, 147, -1043, 2056
0.010493, 1293, 41, 2728, 81, -1215, 2184
0.010630, 1293, 41, 2728, 81, -1215, 2184
0.010767, 1293, 41, 2728, 81, -1215, 2184
0.010904, 1293, 41, 2728, 81, -1215, 2184
0.011041, 1293, 41, 2728, 81, -1215, 2184
0.011178, 1293, 41, 2728, 81, -1215, 2184
0.011315, 1293, 41, 2728, 81, -1215, 2184
0.011451, 1588, -115, 2677, -135, -915, 1119
0.011588, 1588, -115, 2677, -135, -915, 1119
0.011725, 1588, -115, 2677, -135, -915, 1119
0.011862, 1588, -115, 2677, -135, -915, 1119
0.011999, 1588, -115, 2677, -135, -915, 1119
0.012136, 1588, -115, 2677, -135, -915, 1119
0.012273, 1588, -115, 2677, -135, -915, 1119
0.012410, 1588, -115, 2677, -135, -915, 1119
0.012547, 834, -10, 2877, 35, -298, 141
0.012717, 834, -10, 2877, 35, -298, 141
0.012862, 834, -10, 2877, 35, -298, 141
0.012998, 834, -10, 2877, 35, -298, 141
0.013135, 834, -10, 2877, 35, -298, 141
0.013272, 834, -10, 2877, 35, -298, 141
0.013409, 834, -10, 2877, 35, -298, 141
0.013546, -22, 281, 2103, 437, 35, -339
0.013683, -22, 281, 2103, 437, 35, -339
0.013820, -22, 281, 2103, 437, 35, -339
0.013956, -22, 281, 2103, 437, 35, -339
0.014093, -22, 281, 2103, 437, 35, -339
0.014230, -22, 281, 2103, 437, 35, -339
0.014366, -22, 281, 2103, 437, 35, -339
0.014503, 516, 550, 1681, 658, -150, -638
0.014640, 516, 550, 1681, 658, -150, -638
0.014777, 516, 550, 1681, 658, -150, -638
0.014914, 516, 550, 1681, 658, -150, -638
0.015050, 516, 550, 1681, 658, -150, -638
0.015187, 516, 550, 1681, 658, -150, -638
0.015324, 516, 550, 1681, 658, -150, -638
0.015460, 516, 550, 1681, 658, -150, -638
0.015597, 554, 182, 2535, 917, -62, -1093
0.015734, 554, 182, 2535, 917, -62, -1093
0.015871, 554, 182, 2535, 917, -62, -1093
0.016008, 554, 182, 2535, 917, -62, -1093
0.016144, 554, 182, 2535, 917, -62, -1093
0.016281, 554, 182, 2535, 917, -62, -1093
0.016419, 554, 182, 2535, 917, -62, -1093
0.016555, -217, -102, 2872, 1462, 327, -1204
0.016692, -217, -102, 2872, 1462, 327, -1204
0.016829, -217, -102, 2872, 1462, 327, -1204
0.016966, -217, -102, 2872, 1462, 327, -1204
0.017102, -217, -102, 2872, 1462, 327, -1204
0.017239, -217, -102, 2872, 1462, 327, -1204
0.017376, -217, -102, 2872, 1462, 327, -1204
0.017512, -217, -102, 2872, 1462, 327, -1204
0.017644, -686, -90, 2179, 1961, 593, -955
0.017784, -686, -90, 2179, 1961, 593, -955
0.017923, -686, -90, 2179, 1961, 593, -955
0.018060, -686, -90, 2179, 1961, 593, -955
0.018196, -686, -90, 2179, 1961, 593, -955
0.018333, -686, -90, 2179, 1961, 593, -955
0.018470, -686, -90, 2179, 1961, 593, -955
0.018607, -2327, -505, 1601, 2012, 710, -240
0.018744, -2327, -505, 1601, 2012, 710, -240
0.018881, -2327, -505, 1601, 2012, 710, -240
0.019014, -2327, -505, 1601, 2012, 710, -240
0.019151, -2327, -505, 1601, 2012, 710, -240
0.019288, -2327, -505, 1601, 2012, 710, -240
0.019424, -2327, -505, 1601, 2012, 710, -240
0.019561, -2747, -282, 1090, 1599, 430, 1364
0.019698, -2747, -282, 1090, 1599, 430, 1364
0.019835, -2747, -282, 1090, 1599, 430, 1364
0.019971, -2747, -282, 1090, 1599, 430, 1364
0.020108, -2747, -282, 1090, 1599, 430, 1364
0.020245, -2747, -282, 1090, 1599, 430, 1364
0.020382, -2747, -282, 1090, 1599, 430, 1364
0.020519, -2747, -282, 1090, 1599, 430, 1364
0.020656, 283, 546, 1063, 776, -311, 2407
0.020793, 283, 546, 1063, 776, -311, 2407
0.020930, 283, 546, 1063, 776, -311, 2407
0.021066, 283, 546, 1063, 776, -311, 2407
0.021203, 283, 546, 1063, 776, -311, 2407
0.021340, 283, 546, 1063, 776, -311, 2407
0.021477, 283, 546, 1063, 776, -311, 2407
0.021613, 2745, 856, 2215, 105, -944, 1391
0.021750, 2745, 856, 2215, 105, -944, 1391
0.021887, 2745, 856, 2215, 105, -944, 1391
0.022024, 2745, 856, 2215, 105, -944, 1391
0.022161, 2745, 856, 2215, 105, -944, 1391
0.022297, 2745, 856, 2215, 105, -944, 1391
0.022434, 2745, 856, 2215, 105, -944, 1391
0.022571, 2745, 856, 2215, 105, -944, 1391
0.022707, 1710, 609, 2888, 150, -898, -331
0.022844, 1710, 609, 2888, 150, -898, -331
0.022981, 1710, 609, 2888, 150, -898, -331
0.023118, 1710, 609, 2888, 150, -898, -331
0.023254, 1710, 609, 2888, 150, -898, -331
0.023391, 1710, 609, 2888, 150, -898, -331
0.023528, 1710, 609, 2888, 150, -898, -331
0.023664, 30, 198, 2200, 496, -448, -982
0.023801, 30, 198, 2200, 496, -448, -982
0.023938, 30, 198, 2200, 496, -448, -982
0.024075, 30, 198, 2200, 496, -448, -982
0.024211, 30, 198, 2200, 496, -448, -982
0.024348, 30, 198, 2200, 496, -448, -982
0.024485, 30, 198, 2200, 496, -448, -982
0.024622, 30, 198, 2200, 496, -448, -982
0.024759, -121, 494, 2111, 854, -308, -965
0.024896, -121, 494, 2111, 854, -308, -965
0.025032, -121, 494, 2111, 854, -308, -965
0.025169, -121, 494, 2111, 854, -308, -965
0.025306, -121, 494, 2111, 854, -308, -965
0.025443, -121, 494, 2111, 854, -308, -965
0.025579, -121, 494, 2111, 854, -308, -965
0.025716, -1352, 516, 3217, 1604, -446, -897
0.025862, -1352, 516, 3217, 1604, -446, -897
0.026000, -1352, 516, 3217, 1604, -446, -897
0.026137, -1352, 516, 3217, 1604, -446, -897
0.026273, -1352, 516, 3217, 1604, -446, -897
0.026410, -1352, 516, 3217, 1604, -446, -897
0.026547, -1352, 516, 3217, 1604, -446, -897
0.026683, -4307, -713, 2445, 2375, -514, 545
0.026820, -4307, -713, 2445, 2375, -514, 545
0.026957, -4307, -713, 2445, 2375, -514, 545
0.027094, -4307, -713, 2445, 2375, -514, 545
0.027230, -4307, -713, 2445, 2375, -514, 545
0.027367, -4307, -713, 2445, 2375, -514, 545
0.027504, -4307, -713, 2445, 2375, -514, 545
0.027640, -4307, -713, 2445, 2375, -514, 545
0.027777, -2247, -557, 353, 2033, -835, 3282
0.027914, -2247, -557, 353, 2033, -835, 3282
0.028051, -2247, -557, 353, 2033, -835, 3282
0.028187, -2247, -557, 353, 2033, -835, 3282
0.028324, -2247, -557, 353, 2033, -835, 3282
0.028461, -2247, -557, 353, 2033, -835, 3282
0.028598, -2247, -557, 353, 2033, -835, 3282
0.028735, 5089, 1321, 1509, 978, -1453, 3155
0.028872, 5089, 1321, 1509, 978, -1453, 3155
0.029009, 5089, 1321, 1509, 978, -1453, 3155
0.029145, 5089, 1321, 1509, 978, -1453, 3155
0.029282, 5089, 1321, 1509, 978, -1453, 3155
0.029419, 5089, 1321, 1509, 978, -1453, 3155
0.029555, 5089, 1321, 1509, 978, -1453, 3155
0.029692, 5089, 1321, 1509, 978, -1453, 3155
0.029829, 7554, 1808, 3678, 798, -1356, -1089
0.029966, 7554, 1808, 3678, 798, -1356, -1089
0.030103, 7554, 1808, 3678, 798, -1356, -1089
0.030239, 7554, 1808, 3678, 798, -1356, -1089
0.030376, 7554, 1808, 3678, 798, -1356, -1089
0.030512, 7554, 1808, 3678, 798, -1356, -1089
0.030649, 7554, 1808, 3678, 798, -1356, -1089
0.030786, 3216, 485, 2274, 1247, -283, -5068
0.030923, 3216, 485, 2274, 1247, -283, -5068
0.031059, 3216, 485, 2274, 1247, -283, -5068
0.031196, 3216, 485, 2274, 1247, -283, -5068
0.031333, 3216, 485, 2274, 1247, -283, -5068
0.031470, 3216, 485, 2274, 1247, -283, -5068
0.031606, 3216, 485, 2274, 1247, -283, -5068
0.031743, -1191, -437, 924, 1466, 984, -5906
0.031880, -1191, -437, 924, 1466, 984, -5906
0.032017, -1191, -437, 924, 1466, 984, -5906
0.032153, -1191, -437, 924, 1466, 984, -5906
0.032290, -1191, -437, 924, 1466, 984, -5906
0.032427, -1191, -437, 924, 1466, 984, -5906
0.032564, -1191, -437, 924, 1466, 984, -5906
0.032701, -1191, -437, 924, 1466, 984, -5906
0.032837, -2626, -476, 2584, 2225, 1723, -4761
0.032974, -2626, -476, 2584, 2225, 1723, -4761
0.033111, -2626, -476, 2584, 2225, 1723, -4761
0.033248, -2626, -476, 2584, 2225, 1723, -4761
0.033384, -2626, -476, 2584, 2225, 1723, -4761
0.033521, -2626, -476, 2584, 2225, 1723, -4761
0.033658, -2626, -476, 2584, 2225, 1723, -4761
0.033794, -3242, -772, 2710, 3393, 1518, -3084
0.033931, -3242, -772, 2710, 3393, 1518, -3084
0.034068, -3242, -772, 2710, 3393, 1518, -3084
0.034205, -3242, -772, 2710, 3393, 1518, -3084
0.034341, -3242, -772, 2710, 3393, 1518, -3084
0.034478, -3242, -772, 2710, 3393, 1518, -3084
0.034615, -3242, -772, 2710, 3393, 1518, -3084
0.034751, -3242, -772, 2710, 3393, 1518, -3084
0.034888, -4213, -856, 502, 3420, 710, -834
0.035025, -4213, -856, 502, 3420, 710, -834
0.035161, -4213, -856, 502, 3420, 710, -834
0.035298, -4213, -856, 502, 3420, 710, -834
0.035435, -4213, -856, 502, 3420, 710, -834
0.035571, -4213, -856, 502, 3420, 710, -834
0.035708, -4213, -856, 502, 3420, 710, -834
0.035845, -3975, -219, -157, 1894, 1, 1705
0.035982, -3975, -219, -157, 1894, 1, 1705
0.036118, -3975, -219, -157, 1894, 1, 1705
0.036255, -3975, -219, -157, 1894, 1, 1705
0.036392, -3975, -219, -157, 1894, 1, 1705
0.036529, -3975, -219, -157, 1894, 1, 1705
0.036665, -3975, -219, -157, 1894, 1, 1705
0.036802, -2955, -19, 1857, 333, -406, 3748
0.036939, -2955, -19, 1857, 333, -406, 3748
0.037076, -2955, -19, 1857, 333, -406, 3748
0.037212, -2955, -19, 1857, 333, -406, 3748
0.037349, -2955, -19, 1857, 333, -406, 3748
0.037486, -2955, -19, 1857, 333, -406, 3748
0.037622, -2955, -19, 1857, 333, -406, 3748
0.037759, -2955, -19, 1857, 333, -406, 3748
0.037896, -1843, -192, 3471, 11, -876, 5126
0.038032, -1843, -192, 3471, 11, -876, 5126
0.038169, -1843, -192, 3471, 11, -876, 5126
0.038310, -1843, -192, 3471, 11, -876, 5126
0.038447, -1843, -192, 3471, 11, -876, 5126
0.038584, -1843, -192, 3471, 11, -876, 5126
0.038721, -1843, -192, 3471, 11, -876, 5126
0.038857, 148, 102, 2883, 114, -1532, 5583
0.038994, 148, 102, 2883, 114, -1532, 5583
0.039131, 148, 102, 2883, 114, -1532, 5583
0.039268, 148, 102, 2883, 114, -1532, 5583
0.039404, 148, 102, 2883, 114, -1532, 5583
0.039541, 148, 102, 2883, 114, -1532, 5583
0.039678, 148, 102, 2883, 114, -1532, 5583
0.039814, 148, 102, 2883, 114, -1532, 5583
0.039951, 1668, 272, 2411, -103, -2171, 4769
0.040088, 1668, 272, 2411, -103, -2171, 4769
0.040225, 1668, 272, 2411, -103, -2171, 4769
0.040362, 1668, 272, 2411, -103, -2171, 4769
0.040498, 1668, 272, 2411, -103, -2171, 4769
0.040635, 1668, 272, 2411, -103, -2171, 4769
0.040772, 1668, 272, 2411, -103, -2171, 4769
0.040908, 1339, 115, 2381, -213, -2575, 3400
0.041045, 1339, 115, 2381, -213, -2575, 3400
0.041182, 1339, 115, 2381, -213, -2575, 3400
0.041318, 1339, 115, 2381, -213, -2575, 3400
0.041455, 1339, 115, 2381, -213, -2575, 3400
0.041592, 1339, 115, 2381, -213, -2575, 3400
0.041728, 1339, 115, 2381, -213, -2575, 3400
0.041865, 1380, 276, 1968, -57, -2690, 2401
0.042002, 1380, 276, 1968, -57, -2690, 2401
0.042139, 1380, 276, 1968, -57, -2690, 2401
0.042275, 1380, 276, 1968, -57, -2690, 2401
0.042412, 1380, 276, 1968, -57, -2690, 2401
0.042549, 1380, 276, 1968, -57, -2690, 2401
0.042685, 1380, 276, 1968, -57, -2690, 2401
0.042822, 1380, 276, 1968, -57, -2690, 2401
0.042958, 3698, 981, 1562, 75, -2652, 1003
0.043095, 3698, 981, 1562, 75, -2652, 1003
0.043232, 3698, 981, 1562, 75, -2652, 1003
0.043369, 3698, 981, 1562, 75, -2652, 1003
0.043505, 3698, 981, 1562, 75, -2652, 1003
0.043642, 3698, 981, 1562, 75, -2652, 1003
0.043779, 3698, 981, 1562, 75, -2652, 1003
0.043915, 4020, 702, 1973, 76, -2077, -1593
0.044052, 4020, 702, 1973, 76, -2077, -1593
0.044189, 4020, 702, 1973, 76, -2077, -1593
0.044325, 4020, 702, 1973, 76, -2077, -1593
0.044462, 4020, 702, 1973, 76, -2077, -1593
0.044599, 4020, 702, 1973, 76, -2077, -1593
0.044736, 4020, 702, 1973, 76, -2077, -1593
0.044873, 4020, 702, 1973, 76, -2077, -1593
0.045009, -38, -509, 2628, 535, -713, -3223
0.045146, -38, -509, 2628, 535, -713, -3223
0.045283, -38, -509, 2628, 535, -713, -3223
0.045420, -38, -509, 2628, 535, -713, -3223
0.045556, -38, -509, 2628, 535, -713, -3223
0.045693, -38, -509, 2628, 535, -713, -3223
0.045830, -38, -509, 2628, 535, -713, -3223
0.045966, -2679, -324, 1688, 1305, 678, -2193
0.046103, -2679, -324, 1688, 1305, 678, -2193
0.046240, -2679, -324, 1688, 1305, 678, -2193
0.046376, -2679, -324, 1688, 1305, 678, -2193
0.046513, -2679, -324, 1688, 1305, 678, -2193
0.046650, -2679, -324, 1688, 1305, 678, -2193
0.046787, -2679, -324, 1688, 1305, 678, -2193
0.046923, -2679, -324, 1688, 1305, 678, -2193
0.047060, -2428, 164, 1206, 1332, 1440, -442
0.047197, -2428, 164, 1206, 1332, 1440, -442
0.047333, -2428, 164, 1206, 1332, 1440, -442
0.047470, -2428, 164, 1206, 1332, 1440, -442
0.047607, -2428, 164, 1206, 1332, 1440, -442
0.047743, -2428, 164, 1206, 1332, 1440, -442
0.047880, -2428, 164, 1206, 1332, 1440, -442
0.048017, -2995, -194, 2232, 1009, 1723, 1106
0.048153, -2995, -194, 2232, 1009, 1723, 1106
0.048290, -2995, -194, 2232, 1009, 1723, 1106
0.048427, -2995, -194, 2232, 1009, 1723, 1106
0.048564, -2995, -194, 2232, 1009, 1723, 1106
0.048701, -2995, -194, 2232, 1009, 1723, 1106
0.048837, -2995, -194, 2232, 1009, 1723, 1106
0.048974, -2350, -28, 2096, 776, 1535, 2996
0.049111, -2350, -28, 2096, 776, 1535, 2996
0.049247, -2350, -28, 2096, 776, 1535, 2996
0.049384, -2350, -28, 2096, 776, 1535, 2996
0.049521, -2350, -28, 2096, 776, 1535, 2996
0.049658, -2350, -28, 2096, 776, 1535, 2996
0.049794, -2350, -28, 2096, 776, 1535, 2996
0.049931, -2350, -28, 2096, 776, 1535, 2996
0.050068, 1458, 579, 1463, 103, 728, 3554
0.050205, 1458, 579, 1463, 103, 728, 3554
0.050341, 1458, 579, 1463, 103, 728, 3554
0.050478, 1458, 579, 1463, 103, 728, 3554
0.050615, 1458, 579, 1463, 103, 728, 3554
0.050751, 1458, 579, 1463, 103, 728, 3554
0.050888, 1458, 579, 1463, 103, 728, 3554
0.051029, 4204, 712, 1721, -781, -190, 1612
0.051167, 4204, 712, 1721, -781, -190, 1612
0.051304, 4204, 712, 1721, -781, -190, 1612
0.051441, 4204, 712, 1721, -781, -190, 1612
0.051577, 4204, 712, 1721, -781, -190, 1612
0.051714, 4204, 712, 1721, -781, -190, 1612
0.051850, 4204, 712, 1721, -781, -190, 1612
0.051987, 4204, 712, 1721, -781, -190, 1612
0.052124, 3999, 805, 1928, -1304, -669, -1299
0.052261, 3999, 805, 1928, -1304, -669, -1299
0.052398, 3999, 805, 1928, -1304, -669, -1299
0.052535, 3999, 805, 1928, -1304, -669, -1299
0.052671, 3999, 805, 1928, -1304, -669, -1299
0.052808, 3999, 805, 1928, -1304, -669, -1299
0.052945, 3999, 805, 1928, -1304, -669, -1299
0.053081, 2061, 611, 2070, -1302, -599, -3610
0.053218, 2061, 611, 2070, -1302, -599, -3610
0.053355, 2061, 611, 2070, -1302, -599, -3610
0.053492, 2061, 611, 2070, -1302, -599, -3610
0.053628, 2061, 611, 2070, -1302, -599, -3610
0.053763, 2061, 611, 2070, -1302, -599, -3610
0.053898, 2061, 611, 2070, -1302, -599, -3610
0.054032, -711, -340, 2283, -652, -101, -4381
0.054167, -711, -340, 2283, -652, -101, -4381
0.054302, -711, -340, 2283, -652, -101, -4381
0.054436, -711, -340, 2283, -652, -101, -4381
0.054571, -711, -340, 2283, -652, -101, -4381
0.054706, -711, -340, 2283, -652, -101, -4381
0.054840, -711, -340, 2283, -652, -101, -4381
0.054975, -711, -340, 2283, -652, -101, -4381
0.055109, -1376, -663, 1833, 205, 200, -3614
0.055244, -1376, -663, 1833, 205, 200, -3614
0.055379, -1376, -663, 1833, 205, 200, -3614
0.055513, -1376, -663, 1833, 205, 200, -3614
0.055648, -1376, -663, 1833, 205, 200, -3614
0.055783, -1376, -663, 1833, 205, 200, -3614
0.055917, -1376, -663, 1833, 205, 200, -3614
0.056052, 645, 384, 744, 279, 80, -3121
0.056186, 645, 384, 744, 279, 80, -3121
0.056321, 645, 384, 744, 279, 80, -3121
0.056456, 645, 384, 744, 279, 80, -3121
0.056590, 645, 384, 744, 279, 80, -3121
0.056724, 645, 384, 744, 279, 80, -3121
0.056858, 645, 384, 744, 279, 80, -3121
0.056992, 645, 384, 744, 279, 80, -3121
0.057126, 48, 272, 933, -567, 319, -3602
0.057260, 48, 272, 933, -567, 319, -3602
0.057394, 48, 272, 933, -567, 319, -3602
0.057529, 48, 272, 933, -567, 319, -3602
0.057663, 48, 272, 933, -567, 319, -3602
0.057797, 48, 272, 933, -567, 319, -3602
0.057932, 48, 272, 933, -567, 319, -3602
0.058066, 48, 272, 933, -567, 319, -3602
0.058201, -3582, -906, 2913, -815, 1238, -2730
0.058335, -3582, -906, 2913, -815, 1238, -2730
0.058470, -3582, -906, 2913, -815, 1238, -2730
0.058604, -3582, -906, 2913, -815, 1238, -2730
0.058739, -3582, -906, 2913, -815, 1238, -2730
0.058873, -3582, -906, 2913, -815, 1238, -2730
0.059007, -3582, -906, 2913, -815, 1238, -2730
0.059142, -3129, 65, 3323, 124, 1920, -159
0.059277, -3129, 65, 3323, 124, 1920, -159
0.059411, -3129, 65, 3323, 124, 1920, -159
0.059545, -3129, 65, 3323, 124, 1920, -159
0.059680, -3129, 65, 3323, 124, 1920, -159
0.059814, -3129, 65, 3323, 124, 1920, -159
0.059949, -3129, 65, 3323, 124, 1920, -159
0.060083, -3129, 65, 3323, 124, 1920, -159
0.060217, -71, 781, 2114, 486, 1694, 1017
0.060352, -71, 781, 2114, 486, 1694, 1017
0.060487, -71, 781, 2114, 486, 1694, 1017
0.060621, -71, 781, 2114, 486, 1694, 1017
0.060756, -71, 781, 2114, 486, 1694, 1017
0.060890, -71, 781, 2114, 486, 1694, 1017
0.061025, -71, 781, 2114, 486, 1694, 1017
0.061159, 757, 297, 1240, -239, 882, 546
0.061294, 757, 297, 1240, -239, 882, 546
0.061429, 757, 297, 1240, -239, 882, 546
0.061564, 757, 297, 1240, -239, 882, 546
0.061698, 757, 297, 1240, -239, 882, 546
0.061833, 757, 297, 1240, -239, 882, 546
0.061967, 757, 297, 1240, -239, 882, 546
0.062102, 757, 297, 1240, -239, 882, 546
0.062236, 1134, 566, 270, -1492, 37, -175
0.062371, 1134, 566, 270, -1492, 37, -175
0.062506, 1134, 566, 270, -1492, 37, -175
0.062635, 1134, 566, 270, -1492, 37, -175
0.062771, 1134, 566, 270, -1492, 37, -175
0.062907, 1134, 566, 270, -1492, 37, -175
0.063042, 1134, 566, 270, -1492, 37, -175
0.063177, 781, 341, 1051, -2746, -388, -1096
0.063311, 781, 341, 1051, -2746, -388, -1096
0.063446, 781, 341, 1051, -2746, -388, -1096
0.063581, 781, 341, 1051, -2746, -388, -1096
0.063723, 781, 341, 1051, -2746, -388, -1096
0.063859, 781, 341, 1051, -2746, -388, -1096
0.063996, 781, 341, 1051, -2746, -388, -1096
0.064131, 781, 341, 1051, -2746, -388, -1096
0.064265, -2144, -308, 3363, -2615, -272, -1239
0.064401, -2144, -308, 3363, -2615, -272, -1239
0.064535, -2144, -308, 3363, -2615, -272, -1239
0.064670, -2144, -308, 3363, -2615, -272, -1239
0.064805, -2144, -308, 3363, -2615, -272, -1239
0.064939, -2144, -308, 3363, -2615, -272, -1239
0.065074, -2144, -308, 3363, -2615, -272, -1239
0.065209, -5804, -444, 3713, -1243, 136, 851
0.065343, -5804, -444, 3713, -1243, 136, 851
0.065478, -5804, -444, 3713, -1243, 136, 851
0.065613, -5804, -444, 3713, -1243, 136, 851
0.065747, -5804, -444, 3713, -1243, 136, 851
0.065882, -5804, -444, 3713, -1243, 136, 851
0.066016, -5804, -444, 3713, -1243, 136, 851
0.066151, -5804, -444, 3713, -1243, 136, 851
0.066285, -5514, -292, 2716, -261, -44, 4562
0.066420, -5514, -292, 2716, -261, -44, 4562
0.066555, -5514, -292, 2716, -261, -44, 4562
0.066689, -5514, -292, 2716, -261, -44, 4562
0.066824, -5514, -292, 2716, -261, -44, 4562
0.066958, -5514, -292, 2716, -261, -44, 4562
0.067093, -5514, -292, 2716, -261, -44, 4562
0.067228, -1732, 34, 2435, -205, -1108, 7058
0.067362, -1732, 34, 2435, -205, -1108, 7058
0.067497, -1732, 34, 2435, -205, -1108, 7058
0.067631, -1732, 34, 2435, -205, -1108, 7058
0.067766, -1732, 34, 2435, -205, -1108, 7058
0.067900, -1732, 34, 2435, -205, -1108, 7058
0.068035, -1732, 34, 2435, -205, -1108, 7058
0.068170, -1732, 34, 2435, -205, -1108, 7058
0.068304, 539, 284, 2435, -717, -2188, 7246
0.068439, 539, 284, 2435, -717, -2188, 7246
0.068574, 539, 284, 2435, -717, -2188, 7246
0.068708, 539, 284, 2435, -717, -2188, 7246
0.068843, 539, 284, 2435, -717, -2188, 7246
0.068977, 539, 284, 2435, -717, -2188, 7246
0.069112, 539, 284, 2435, -717, -2188, 7246
0.069246, 927, 259, 2245, -1330, -2783, 6548
0.069381, 927, 259, 2245, -1330, -2783, 6548
0.069516, 927, 259, 2245, -1330, -2783, 6548
0.069650, 927, 259, 2245, -1330, -2783, 6548
0.069785, 927, 259, 2245, -1330, -2783, 6548
0.069920, 927, 259, 2245, -1330, -2783, 6548
0.070054, 927, 259, 2245, -1330, -2783, 6548
0.070189, 927, 259, 2245, -1330, -2783, 6548
0.070323, 1386, 241, 2153, -1670, -2840, 5666
0.070458, 1386, 241, 2153, -1670, -2840, 5666
0.070592, 1386, 241, 2153, -1670, -2840, 5666
0.070727, 1386, 241, 2153, -1670, -2840, 5666
0.070862, 1386, 241, 2153, -1670, -2840, 5666
0.070996, 1386, 241, 2153, -1670, -2840, 5666
0.071131, 1386, 241, 2153, -1670, -2840, 5666
0.071265, 2065, 236, 2390, -1693, -2561, 4429
0.071400, 2065, 236, 2390, -1693, -2561, 4429
0.071535, 2065, 236, 2390, -1693, -2561, 4429
0.071669, 2065, 236, 2390, -1693, -2561, 4429
0.071804, 2065, 236, 2390, -1693, -2561, 4429
0.071938, 2065, 236, 2390, -1693, -2561, 4429
0.072073, 2065, 236, 2390, -1693, -2561, 4429
0.072207, 2065, 236, 2390, -1693, -2561, 4429
0.072343, 3722, 553, 3186, -1239, -2253, 2680
0.072478, 3722, 553, 3186, -1239, -2253, 2680
0.072612, 3722, 553, 3186, -1239, -2253, 2680
0.072747, 3722, 553, 3186, -1239, -2253, 2680
0.072881, 3722, 553, 3186, -1239, -2253, 2680
0.073016, 3722, 553, 3186, -1239, -2253, 2680
0.073151, 3722, 553, 3186, -1239, -2253, 2680
0.073285, 6287, 1003, 3925, -132, -1759, -299
0.073420, 6287, 1003, 3925, -132, -1759, -299
0.073554, 6287, 1003, 3925, -132, -1759, -299
0.073689, 6287, 1003, 3925, -132, -1759, -299
0.073824, 6287, 1003, 3925, -132, -1759, -299
0.073958, 6287, 1003, 3925, -132, -1759, -299
0.074093, 6287, 1003, 3925, -132, -1759, -299
0.074227, 6287, 1003, 3925, -132, -1759, -299
0.074362, 6754, 700, 3019, 1091, -800, -4476
0.074497, 6754, 700, 3019, 1091, -800, -4476
0.074631, 6754, 700, 3019, 1091, -800, -4476
0.074766, 6754, 700, 3019, 1091, -800, -4476
0.074900, 6754, 700, 3019, 1091, -800, -4476
0.075035, 6754, 700, 3019, 1091, -800, -4476
0.075169, 6754, 700, 3019, 1091, -800, -4476
0.075304, 6754, 700, 3019, 1091, -800, -4476
0.075439, 3532, -4, -28, 1234, 446, -8068
0.075573, 3532, -4, -28, 1234, 446, -8068
0.075708, 3532, -4, -28, 1234, 446, -8068
0.075849, 3532, -4, -28, 1234, 446, -8068
0.075984, 3532, -4, -28, 1234, 446, -8068
0.076119, 3532, -4, -28, 1234, 446, -8068
0.076254, 3532, -4, -28, 1234, 446, -8068
0.076389, -966, -383, -1194, 196, 1675, -9195
0.076524, -966, -383, -1194, 196, 1675, -9195
0.076658, -966, -383, -1194, 196, 1675, -9195
0.076794, -966, -383, -1194, 196, 1675, -9195
0.076929, -966, -383, -1194, 196, 1675, -9195
0.077063, -966, -383, -1194, 196, 1675, -9195
0.077198, -966, -383, -1194, 196, 1675, -9195
0.077332, -966, -383, -1194, 196, 1675, -9195
0.077467, -2572, -339, 956, -356, 2578, -7954
0.077597, -2572, -339, 956, -356, 2578, -7954
0.077731, -2572, -339, 956, -356, 2578, -7954
0.077866, -2572, -339, 956, -356, 2578, -7954
0.078000, -2572, -339, 956, -356, 2578, -7954
0.078135, -2572, -339, 956, -356, 2578, -7954
0.078269, -2572, -339, 956, -356, 2578, -7954
0.078404, -1079, -164, 2160, 57, 2880, -6627
0.078539, -1079, -164, 2160, 57, 2880, -6627
0.078673, -1079, -164, 2160, 57, 2880, -6627
0.078808, -1079, -164, 2160, 57, 2880, -6627
0.078942, -1079, -164, 2160, 57, 2880, -6627
0.079077, -1079, -164, 2160, 57, 2880, -6627
0.079211, -1079, -164, 2160, 57, 2880, -6627
0.079346, -1079, -164, 2160, 57, 2880, -6627
0.079480, -705, -49, 1812, 351, 2811, -6152
0.079615, -705, -49, 1812, 351, 2811, -6152
0.079749, -705, -49, 1812, 351, 2811, -6152
0.079884, -705, -49, 1812, 351, 2811, -6152
0.080018, -705, -49, 1812, 351, 2811, -6152
0.080153, -705, -49, 1812, 351, 2811, -6152
0.080288, -705, -49, 1812, 351, 2811, -6152
0.080422, -3325, -365, 1406, -7, 2837, -5075
0.080557, -3325, -365, 1406, -7, 2837, -5075
0.080692, -3325, -365, 1406, -7, 2837, -5075
0.080826, -3325, -365, 1406, -7, 2837, -5075
0.080961, -3325, -365, 1406, -7, 2837, -5075
0.081096, -3325, -365, 1406, -7, 2837, -5075
0.081230, -3325, -365, 1406, -7, 2837, -5075
0.081365, -3325, -365, 1406, -7, 2837, -5075
0.081499, -5606, -427, 1662, -595, 2709, -2277
0.081634, -5606, -427, 1662, -595, 2709, -2277
0.081763, -5606, -427, 1662, -595, 2709, -2277
0.081899, -5606, -427, 1662, -595, 2709, -2277
0.082035, -5606, -427, 1662, -595, 2709, -2277
0.082171, -5606, -427, 1662, -595, 2709, -2277
0.082308, -5606, -427, 1662, -595, 2709, -2277
0.082445, -4520, 172, 2643, -713, 1654, 1047
0.082586, -4520, 172, 2643, -713, 1654, 1047
0.082723, -4520, 172, 2643, -713, 1654, 1047
0.082868, -4520, 172, 2643, -713, 1654, 1047
0.083009, -4520, 172, 2643, -713, 1654, 1047
0.083148, -4520, 172, 2643, -713, 1654, 1047
0.083283, -4520, 172, 2643, -713, 1654, 1047
0.083421, -1814, 274, 3275, -443, -103, 2936
0.083557, -1814, 274, 3275, -443, -103, 2936
0.083693, -1814, 274, 3275, -443, -103, 2936
0.083827, -1814, 274, 3275, -443, -103, 2936
0.083962, -1814, 274, 3275, -443, -103, 2936
0.084096, -1814, 274, 3275, -443, -103, 2936
0.084231, -1814, 274, 3275, -443, -103, 2936
0.084367, -1814, 274, 3275, -443, -103, 2936
0.084502, 348, 233, 2662, -355, -1741, 3264
0.084636, 348, 233, 2662, -355, -1741, 3264
0.084772, 348, 233, 2662, -355, -1741, 3264
0.084906, 348, 233, 2662, -355, -1741, 3264
0.085040, 348, 233, 2662, -355, -1741, 3264
0.085174, 348, 233, 2662, -355, -1741, 3264
0.085308, 348, 233, 2662, -355, -1741, 3264
0.085442, 348, 233, 2662, -355, -1741, 3264
0.085575, 1225, 409, 1647, -786, -2715, 2614
0.085709, 1225, 409, 1647, -786, -2715, 2614
0.085843, 1225, 409, 1647, -786, -2715, 2614
0.085977, 1225, 409, 1647, -786, -2715, 2614
0.086111, 1225, 409, 1647, -786, -2715, 2614
0.086245, 1225, 409, 1647, -786, -2715, 2614
0.086379, 1225, 409, 1647, -786, -2715, 2614
0.086513, -289, 157, 1445, -1403, -2942, 1859
0.086647, -289, 157, 1445, -1403, -2942, 1859
0.086781, -289, 157, 1445, -1403, -2942, 1859
0.086914, -289, 157, 1445, -1403, -2942, 1859
0.087043, -289, 157, 1445, -1403, -2942, 1859
0.087177, -289, 157, 1445, -1403, -2942, 1859
0.087315, -289, 157, 1445, -1403, -2942, 1859
0.087450, -289, 157, 1445, -1403, -2942, 1859
0.087586, -2644, -176, 1800, -1598, -2863, 2400
0.087720, -2644, -176, 1800, -1598, -2863, 2400
0.087854, -2644, -176, 1800, -1598, -2863, 2400
0.088003, -2644, -176, 1800, -1598, -2863, 2400
0.088139, -2644, -176, 1800, -1598, -2863, 2400
0.088273, -2644, -176, 1800, -1598, -2863, 2400
0.088409, -2644, -176, 1800, -1598, -2863, 2400
0.088544, -1959, 34, 2161, -1344, -2802, 3974
0.088679, -1959, 34, 2161, -1344, -2802, 3974
0.088813, -1959, 34, 2161, -1344, -2802, 3974
0.088948, -1959, 34, 2161, -1344, -2802, 3974
0.089082, -1959, 34, 2161, -1344, -2802, 3974
0.089217, -1959, 34, 2161, -1344, -2802, 3974
0.089351, -1959, 34, 2161, -1344, -2802, 3974
0.089486, -1959, 34, 2161, -1344, -2802, 3974
0.089621, 865, 335, 1966, -1234, -2738, 4558
0.089755, 865, 335, 1966, -1234, -2738, 4558
0.089890, 865, 335, 1966, -1234, -2738, 4558
0.090025, 865, 335, 1966, -1234, -2738, 4558
0.090159, 865, 335, 1966, -1234, -2738, 4558
0.090294, 865, 335, 1966, -1234, -2738, 4558
0.090428, 865, 335, 1966, -1234, -2738, 4558
0.090563, 2956, 370, 1304, -1785, -2434, 3493
0.090698, 2956, 370, 1304, -1785, -2434, 3493
0.090832, 2956, 370, 1304, -1785, -2434, 3493
0.090967, 2956, 370, 1304, -1785, -2434, 3493
0.091101, 2956, 370, 1304, -1785, -2434, 3493
0.091236, 2956, 370, 1304, -1785, -2434, 3493
0.091370, 2956, 370, 1304, -1785, -2434, 3493
0.091505, 2956, 370, 1304, -1785, -2434, 3493
0.091639, 4149, 227, 1668, -2604, -1625, 1436
0.091774, 4149, 227, 1668, -2604, -1625, 1436
0.091909, 4149, 227, 1668, -2604, -1625, 1436
0.092043, 4149, 227, 1668, -2604, -1625, 1436
0.092178, 4149, 227, 1668, -2604, -1625, 1436
0.092312, 4149, 227, 1668, -2604, -1625, 1436
0.092448, 4149, 227, 1668, -2604, -1625, 1436
0.092582, 5797, 1048, 2359, -2860, -390, -1448
0.092717, 5797, 1048, 2359, -2860, -390, -1448
0.092852, 5797, 1048, 2359, -2860, -390, -1448
0.092986, 5797, 1048, 2359, -2860, -390, -1448
0.093121, 5797, 1048, 2359, -2860, -390, -1448
0.093256, 5797, 1048, 2359, -2860, -390, -1448
0.093390, 5797, 1048, 2359, -2860, -390, -1448
0.093525, 5797, 1048, 2359, -2860, -390, -1448
0.093659, 5003, 989, 2749, -2566, 1135, -5150
0.093794, 5003, 989, 2749, -2566, 1135, -5150
0.093929, 5003, 989, 2749, -2566, 1135, -5150
0.094063, 5003, 989, 2749, -2566, 1135, -5150
0.094198, 5003, 989, 2749, -2566, 1135, -5150
0.094332, 5003, 989, 2749, -2566, 1135, -5150
0.094467, 5003, 989, 2749, -2566, 1135, -5150
0.094601, -1884, -1097, 3872, -1419, 2841, -7089
0.094736, -1884, -1097, 3872, -1419, 2841, -7089
0.094871, -1884, -1097, 3872, -1419, 2841, -7089
0.095006, -1884, -1097, 3872, -1419, 2841, -7089
0.095140, -1884, -1097, 3872, -1419, 2841, -7089
0.095275, -1884, -1097, 3872, -1419, 2841, -7089
0.095409, -1884, -1097, 3872, -1419, 2841, -7089
0.095544, -1884, -1097, 3872, -1419, 2841, -7089
0.095678, -7691, -990, 2807, 373, 3826, -4408
0.095813, -7691, -990, 2807, 373, 3826, -4408
0.095948, -7691, -990, 2807, 373, 3826, -4408
0.096083, -7691, -990, 2807, 373, 3826, -4408
0.096217, -7691, -990, 2807, 373, 3826, -4408
0.096352, -7691, -990, 2807, 373, 3826, -4408
0.096487, -7691, -990, 2807, 373, 3826, -4408
0.096621, -7352, 175, 884, 846, 3423, 447
0.096756, -7352, 175, 884, 846, 3423, 447
0.096890, -7352, 175, 884, 846, 3423, 447
0.097025, -7352, 175, 884, 846, 3423, 447
0.097160, -7352, 175, 884, 846, 3423, 447
0.097294, -7352, 175, 884, 846, 3423, 447
0.097429, -7352, 175, 884, 846, 3423, 447
0.097563, -7352, 175, 884, 846, 3423, 447
0.097698, -4346, 38, 1725, 17, 2042, 4082
0.097833, -4346, 38, 1725, 17, 2042, 4082
0.097967, -4346, 38, 1725, 17, 2042, 4082
0.098102, -4346, 38, 1725, 17, 2042, 4082
0.098237, -4346, 38, 1725, 17, 2042, 4082
0.098370, -4346, 38, 1725, 17, 2042, 4082
0.098508, -4346, 38, 1725, 17, 2042, 4082
0.098646, -1573, -23, 2636, -768, 475, 5970
0.098781, -1573, -23, 2636, -768, 475, 5970
0.098916, -1573, -23, 2636, -768, 475, 5970
0.099050, -1573, -23, 2636, -768, 475, 5970
0.099185, -1573, -23, 2636, -768, 475, 5970
0.099320, -1573, -23, 2636, -768, 475, 5970
0.099454, -1573, -23, 2636, -768, 475, 5970
0.099589, -1573, -23, 2636, -768, 475, 5970
0.099724, 64, 129, 2310, -1418, -729, 6383
0.099858, 64, 129, 2310, -1418, -729, 6383
0.099993, 64, 129, 2310, -1418, -729, 6383
0.100128, 64, 129, 2310, -1418, -729, 6383
0.100270, 64, 129, 2310, -1418, -729, 6383
0.100406, 64, 129, 2310, -1418, -729, 6383
0.100541, 64, 129, 2310, -1418, -729, 6383
0.100675, 904, 161, 1945, -2008, -1520, 5902
0.100810, 904, 161, 1945, -2008, -1520, 5902
0.100945, 904, 161, 1945, -2008, -1520, 5902
0.101079, 904, 161, 1945, -2008, -1520, 5902
0.101214, 904, 161, 1945, -2008, -1520, 5902
0.101349, 904, 161, 1945, -2008, -1520, 5902
0.101483, 904, 161, 1945, -2008, -1520, 5902
0.101618, 904, 161, 1945, -2008, -1520, 5902
0.101753, 2851, 452, 1536, -2490, -2061, 4801
0.101887, 2851, 452, 1536, -2490, -2061, 4801
0.102022, 2851, 452, 1536, -2490, -2061, 4801
0.102157, 2851, 452, 1536, -2490, -2061, 4801
0.102291, 2851, 452, 1536, -2490, -2061, 4801
0.102426, 2851, 452, 1536, -2490, -2061, 4801
0.102561, 2851, 452, 1536, -2490, -2061, 4801
0.102695, 6489, 1415, 975, -3016, -2472, 2062
0.102830, 6489, 1415, 975, -3016, -2472, 2062
0.102965, 6489, 1415, 975, -3016, -2472, 2062
0.103099, 6489, 1415, 975, -3016, -2472, 2062
0.103234, 6489, 1415, 975, -3016, -2472, 2062
0.103368, 6489, 1415, 975, -3016, -2472, 2062
0.103503, 6489, 1415, 975, -3016, -2472, 2062
0.103638, 6489, 1415, 975, -3016, -2472, 2062
0.103772, 6069, 1166, 933, -3597, -2232, -2234
0.103907, 6069, 1166, 933, -3597, -2232, -2234
0.104042, 6069, 1166, 933, -3597, -2232, -2234
0.104176, 6069, 1166, 933, -3597, -2232, -2234
0.104311, 6069, 1166, 933, -3597, -2232, -2234
0.104445, 6069, 1166, 933, -3597, -2232, -2234
0.104580, 6069, 1166, 933, -3597, -2232, -2234
0.104715, 2431, -49, 1358, -3529, -1181, -5090
0.104849, 2431, -49, 1358, -3529, -1181, -5090
0.104984, 2431, -49, 1358, -3529, -1181, -5090
0.105119, 2431, -49, 1358, -3529, -1181, -5090
0.105253, 2431, -49, 1358, -3529, -1181, -5090
0.105388, 2431, -49, 1358, -3529, -1181, -5090
0.105522, 2431, -49, 1358, -3529, -1181, -5090
0.105657, 2431, -49, 1358, -3529, -1181, -5090
0.105792, 2374, 370, 1262, -2616, -15, -6133
0.105926, 2374, 370, 1262, -2616, -15, -6133
0.106061, 2374, 370, 1262, -2616, -15, -6133
0.106195, 2374, 370, 1262, -2616, -15, -6133
0.106330, 2374, 370, 1262, -2616, -15, -6133
0.106465, 2374, 370, 1262, -2616, -15, -6133
0.106599, 2374, 370, 1262, -2616, -15, -6133
0.106734, 2563, 902, 1160, -1976, 1167, -7482
0.106869, 2563, 902, 1160, -1976, 1167, -7482
0.107003, 2563, 902, 1160, -1976, 1167, -7482
0.107138, 2563, 902, 1160, -1976, 1167, -7482
0.107272, 2563, 902, 1160, -1976, 1167, -7482
0.107407, 2563, 902, 1160, -1976, 1167, -7482
0.107541, 2563, 902, 1160, -1976, 1167, -7482
0.107676, 2563, 902, 1160, -1976, 1167, -7482
0.107810, -89, 225, 1529, -1797, 2550, -8269
0.107945, -89, 225, 1529, -1797, 2550, -8269
0.108080, -89, 225, 1529, -1797, 2550, -8269
0.108214, -89, 225, 1529, -1797, 2550, -8269
0.108349, -89, 225, 1529, -1797, 2550, -8269
0.108484, -89, 225, 1529, -1797, 2550, -8269
0.108618, -89, 225, 1529, -1797, 2550, -8269
0.108753, -89, 225, 1529, -1797, 2550, -8269
0.108887, -3287, -579, 1754, -1635, 3823, -7211
0.109022, -3287, -579, 1754, -1635, 3823, -7211
0.109157, -3287, -579, 1754, -1635, 3823, -7211
0.109291, -3287, -579, 1754, -1635, 3823, -7211
0.109426, -3287, -579, 1754, -1635, 3823, -7211
0.109561, -3287, -579, 1754, -1635, 3823, -7211
0.109695, -3287, -579, 1754, -1635, 3823, -7211
0.109830, -6814, -1571, 3560, -1156, 4401, -4208
0.109965, -6814, -1571, 3560, -1156, 4401, -4208
0.110099, -6814, -1571, 3560, -1156, 4401, -4208
0.110234, -6814, -1571, 3560, -1156, 4401, -4208
0.110369, -6814, -1571, 3560, -1156, 4401, -4208
0.110503, -6814, -1571, 3560, -1156, 4401, -4208
0.110638, -6814, -1571, 3560, -1156, 4401, -4208
0.110773, -6814, -1571, 3560, -1156, 4401, -4208
0.110907, -8136, -1598, 5366, 402, 3921, 487
0.111042, -8136, -1598, 5366, 402, 3921, 487
0.111177, -8136, -1598, 5366, 402, 3921, 487
0.111311, -8136, -1598, 5366, 402, 3921, 487
0.111446, -8136, -1598, 5366, 402, 3921, 487
0.111581, -8136, -1598, 5366, 402, 3921, 487
0.111715, -8136, -1598, 5366, 402, 3921, 487
0.111850, -4393, -183, 3434, 1632, 2350, 4601
0.111985, -4393, -183, 3434, 1632, 2350, 4601
0.112129, -4393, -183, 3434, 1632, 2350, 4601
0.112265, -4393, -183, 3434, 1632, 2350, 4601
0.112400, -4393, -183, 3434, 1632, 2350, 4601
0.112534, -4393, -183, 3434, 1632, 2350, 4601
0.112669, -4393, -183, 3434, 1632, 2350, 4601
0.112804, -4393, -183, 3434, 1632, 2350, 4601
0.112938, 81, 359, 1696, 943, 23, 5775
0.113073, 81, 359, 1696, 943, 23, 5775
0.113208, 81, 359, 1696, 943, 23, 5775
0.113343, 81, 359, 1696, 943, 23, 5775
0.113478, 81, 359, 1696, 943, 23, 5775
0.113612, 81, 359, 1696, 943, 23, 5775
0.113747, 81, 359, 1696, 943, 23, 5775
0.113881, 1209, 143, 2499, -244, -2068, 4717
0.114016, 1209, 143, 2499, -244, -2068, 4717
0.114151, 1209, 143, 2499, -244, -2068, 4717
0.114286, 1209, 143, 2499, -244, -2068, 4717
0.114420, 1209, 143, 2499, -244, -2068, 4717
0.114555, 1209, 143, 2499, -244, -2068, 4717
0.114689, 1209, 143, 2499, -244, -2068, 4717
0.114824, 1209, 143, 2499, -244, -2068, 4717
0.114959, 396, 155, 2749, -638, -3352, 3583
0.115094, 396, 155, 2749, -638, -3352, 3583
0.115228, 396, 155, 2749, -638, -3352, 3583
0.115363, 396, 155, 2749, -638, -3352, 3583
0.115497, 396, 155, 2749, -638, -3352, 3583
0.115632, 396, 155, 2749, -638, -3352, 3583
0.115767, 396, 155, 2749, -638, -3352, 3583
0.115901, 678, 181, 2204, -508, -4088, 2966
0.116036, 678, 181, 2204, -508, -4088, 2966
0.116171, 678, 181, 2204, -508, -4088, 2966
0.116305, 678, 181, 2204, -508, -4088, 2966
0.116440, 678, 181, 2204, -508, -4088, 2966
0.116575, 678, 181, 2204, -508, -4088, 2966
0.116710, 678, 181, 2204, -508, -4088, 2966
0.116844, 678, 181, 2204, -508, -4088, 2966
0.116979, 2465, 420, 2243, -234, -4258, 1919
0.117114, 2465, 420, 2243, -234, -4258, 1919
0.117249, 2465, 420, 2243, -234, -4258, 1919
0.117383, 2465, 420, 2243, -234, -4258, 1919
0.117518, 2465, 420, 2243, -234, -4258, 1919
0.117652, 2465, 420, 2243, -234, -4258, 1919
0.117787, 2465, 420, 2243, -234, -4258, 1919
0.117922, 2973, 456, 2402, 105, -3749, 103
0.118056, 2973, 456, 2402, 105, -3749, 103
0.118191, 2973, 456, 2402, 105, -3749, 103
0.118326, 2973, 456, 2402, 105, -3749, 103
0.118460, 2973, 456, 2402, 105, -3749, 103
0.118595, 2973, 456, 2402, 105, -3749, 103
0.118730, 2973, 456, 2402, 105, -3749, 103
0.118864, 2973, 456, 2402, 105, -3749, 103
0.118999, -379, -70, 1473, 276, -2589, -1065
0.119134, -379, -70, 1473, 276, -2589, -1065
0.119268, -379, -70, 1473, 276, -2589, -1065
0.119403, -379, -70, 1473, 276, -2589, -1065
0.119538, -379, -70, 1473, 276, -2589, -1065
0.119672, -379, -70, 1473, 276, -2589, -1065
0.119807, -379, -70, 1473, 276, -2589, -1065
0.119942, -3763, -347, 664, 76, -1129, 215
0.120077, -3763, -347, 664, 76, -1129, 215
0.120211, -3763, -347, 664, 76, -1129, 215
0.120346, -3763, -347, 664, 76, -1129, 215
0.120481, -3763, -347, 664, 76, -1129, 215
0.120615, -3763, -347, 664, 76, -1129, 215
0.120750, -3763, -347, 664, 76, -1129, 215
0.120885, -3763, -347, 664, 76, -1129, 215
0.121019, -973, 243, 1437, -167, -119, 2407
0.121154, -973, 243, 1437, -167, -119, 2407
0.121289, -973, 243, 1437, -167, -119, 2407
0.121424, -973, 243, 1437, -167, -119, 2407
0.121558, -973, 243, 1437, -167, -119, 2407
0.121693, -973, 243, 1437, -167, -119, 2407
0.121828, -973, 243, 1437, -167, -119, 2407
0.121962, 3243, 682, 2610, -280, 399, 2094
0.122097, 3243, 682, 2610, -280, 399, 2094
0.122232, 3243, 682, 2610, -280, 399, 2094
0.122366, 3243, 682, 2610, -280, 399, 2094
0.122501, 3243, 682, 2610, -280, 399, 2094
0.122635, 3243, 682, 2610, -280, 399, 2094
0.122770, 3243, 682, 2610, -280, 399, 2094
0.122905, 3243, 682, 2610, -280, 399, 2094
0.123039, 2964, 371, 3338, -151, 974, -27
0.123174, 2964, 371, 3338, -151, 974, -27
0.123309, 2964, 371, 3338, -151, 974, -27
0.123443, 2964, 371, 3338, -151, 974, -27
0.123578, 2964, 371, 3338, -151, 974, -27
0.123712, 2964, 371, 3338, -151, 974, -27
0.123847, 2964, 371, 3338, -151, 974, -27
0.123982, 1447, 325, 3797, 591, 1737, -1417
0.124116, 1447, 325, 3797, 591, 1737, -1417
0.124251, 1447, 325, 3797, 591, 1737, -1417
0.124386, 1447, 325, 3797, 591, 1737, -1417
0.124520, 1447, 325, 3797, 591, 1737, -1417
0.124654, 1447, 325, 3797, 591, 1737, -1417
0.124792, 1447, 325, 3797, 591, 1737, -1417
0.124927, 1447, 325, 3797, 591, 1737, -1417
0.125062, 1840, 697, 3033, 1589, 2226, -2432
0.125196, 1840, 697, 3033, 1589, 2226, -2432
0.125331, 1840, 697, 3033, 1589, 2226, -2432
0.125465, 1840, 697, 3033, 1589, 2226, -2432
0.125599, 1840, 697, 3033, 1589, 2226, -2432
0.125734, 1840, 697, 3033, 1589, 2226, -2432
0.125868, 1840, 697, 3033, 1589, 2226, -2432
0.126002, 849, 30, 720, 1740, 2008, -3822
0.126137, 849, 30, 720, 1740, 2008, -3822
0.126271, 849, 30, 720, 1740, 2008, -3822
0.126406, 849, 30, 720, 1740, 2008, -3822
0.126540, 849, 30, 720, 1740, 2008, -3822
0.126675, 849, 30, 720, 1740, 2008, -3822
0.126809, 849, 30, 720, 1740, 2008, -3822
0.126943, 849, 30, 720, 1740, 2008, -3822
0.127078, -2917, -1126, -319, 858, 1205, -3868
0.127212, -2917, -1126, -319, 858, 1205, -3868
0.127347, -2917, -1126, -319, 858, 1205, -3868
0.127481, -2917, -1126, -319, 858, 1205, -3868
0.127616, -2917, -1126, -319, 858, 1205, -3868
0.127750, -2917, -1126, -319, 858, 1205, -3868
0.127884, -2917, -1126, -319, 858, 1205, -3868
0.128019, -4053, -822, 1577, 328, 387, -1772
0.128153, -4053, -822, 1577, 328, 387, -1772
0.128288, -4053, -822, 1577, 328, 387, -1772
0.128423, -4053, -822, 1577, 328, 387, -1772
0.128557, -4053, -822, 1577, 328, 387, -1772
0.128692, -4053, -822, 1577, 328, 387, -1772
0.128826, -4053, -822, 1577, 328, 387, -1772
0.128961, -4053, -822, 1577, 328, 387, -1772
0.129095, -1412, 121, 3405, 926, 6, 140
0.129230, -1412, 121, 3405, 926, 6, 140
0.129365, -1412, 121, 3405, 926, 6, 140
0.129499, -1412, 121, 3405, 926, 6, 140
0.129634, -1412, 121, 3405, 926, 6, 140
0.129768, -1412, 121, 3405, 926, 6, 140
0.129903, -1412, 121, 3405, 926, 6, 140
0.130038, -1412, 121, 3405, 926, 6, 140
0.130172, 1301, 398, 2486, 1467, -111, 339
0.130307, 1301, 398, 2486, 1467, -111, 339
0.130441, 1301, 398, 2486, 1467, -111, 339
0.130576, 1301, 398, 2486, 1467, -111, 339
0.130711, 1301, 398, 2486, 1467, -111, 339
0.130845, 1301, 398, 2486, 1467, -111, 339
0.130980, 1301, 398, 2486, 1467, -111, 339
0.131114, 4090, 553, 767, 815, -178, -976
0.131249, 4090, 553, 767, 815, -178, -976
0.131384, 4090, 553, 767, 815, -178, -976
0.131518, 4090, 553, 767, 815, -178, -976
0.131653, 4090, 553, 767, 815, -178, -976
0.131787, 4090, 553, 767, 815, -178, -976
0.131922, 4090, 553, 767, 815, -178, -976
0.132056, 4090, 553, 767, 815, -178, -976
0.132191, 6226, 811, 700, -384, -60, -3988
0.132326, 6226, 811, 700, -384, -60, -3988
0.132461, 6226, 811, 700, -384, -60, -3988
0.132596, 6226, 811, 700, -384, -60, -3988
0.132730, 6226, 811, 700, -384, -60, -3988
0.132865, 6226, 811, 700, -384, -60, -3988
0.132999, 6226, 811, 700, -384, -60, -3988
0.133134, 2708, 353, 981, -996, 468, -7384
0.133269, 2708, 353, 981, -996, 468, -7384
0.133403, 2708, 353, 981, -996, 468, -7384
0.133538, 2708, 353, 981, -996, 468, -7384
0.133675, 2708, 353, 981, -996, 468, -7384
0.133811, 2708, 353, 981, -996, 468, -7384
0.133945, 2708, 353, 981, -996, 468, -7384
0.134080, 2708, 353, 981, -996, 468, -7384
0.134215, -3807, -170, 842, -915, 1335, -7631
0.134351, -3807, -170, 842, -915, 1335, -7631
0.134495, -3807, -170, 842, -915, 1335, -7631
0.134634, -3807, -170, 842, -915, 1335, -7631
0.134770, -3807, -170, 842, -915, 1335, -7631
0.134907, -3807, -170, 842, -915, 1335, -7631
0.135043, -3807, -170, 842, -915, 1335, -7631
0.135178, -5331, -259, 2400, -246, 2029, -4461
0.135313, -5331, -259, 2400, -246, 2029, -4461
0.135447, -5331, -259, 2400, -246, 2029, -4461
0.135582, -5331, -259, 2400, -246, 2029, -4461
0.135718, -5331, -259, 2400, -246, 2029, -4461
0.135862, -5331, -259, 2400, -246, 2029, -4461
0.136007, -5331, -259, 2400, -246, 2029, -4461
0.136145, -3856, -493, 4166, 1071, 2160, -1216
0.136280, -3856, -493, 4166, 1071, 2160, -1216
0.136415, -3856, -493, 4166, 1071, 2160, -1216
0.136558, -3856, -493, 4166, 1071, 2160, -1216
0.136696, -3856, -493, 4166, 1071, 2160, -1216
0.136839, -3856, -493, 4166, 1071, 2160, -1216
0.136987, -3856, -493, 4166, 1071, 2160, -1216
0.137136, -2716, -145, 3021, 2008, 1620, 1016
0.137293, -2716, -145, 3021, 2008, 1620, 1016
0.137477, -2716, -145, 3021, 2008, 1620, 1016
0.137628, -2716, -145, 3021, 2008, 1620, 1016
0.137767, -2716, -145, 3021, 2008, 1620, 1016
0.137915, -2716, -145, 3021, 2008, 1620, 1016
0.138059, -2716, -145, 3021, 2008, 1620, 1016
0.138208, -120, 421, 1742, 1655, 664, 2163
0.138356, -120, 421, 1742, 1655, 664, 2163
0.138494, -120, 421, 1742, 1655, 664, 2163
0.138629, -120, 421, 1742, 1655, 664, 2163
0.138763, -120, 421, 1742, 1655, 664, 2163
0.138897, -120, 421, 1742, 1655, 664, 2163
0.139039, -120, 421, 1742, 1655, 664, 2163
0.139182, 2238, 526, 2219, 889, -218, 1446
0.139321, 2238, 526, 2219, 889, -218, 1446
0.139463, 2238, 526, 2219, 889, -218, 1446
0.139600, 2238, 526, 2219, 889, -218, 1446
0.139737, 2238, 526, 2219, 889, -218, 1446
0.139872, 2238, 526, 2219, 889, -218, 1446
0.140007, 2238, 526, 2219, 889, -218, 1446
0.140146, 2238, 526, 2219, 889, -218, 1446
0.140282, 2387, 528, 2185, 437, -830, -406
0.140417, 2387, 528, 2185, 437, -830, -406
0.140559, 2387, 528, 2185, 437, -830, -406
0.140696, 2387, 528, 2185, 437, -830, -406
0.140832, 2387, 528, 2185, 437, -830, -406
0.140967, 2387, 528, 2185, 437, -830, -406
0.141101, 2387, 528, 2185, 437, -830, -406
0.141251, -503, -4, 2136, 328, -984, -1686
0.141395, -503, -4, 2136, 328, -984, -1686
0.141533, -503, -4, 2136, 328, -984, -1686
0.141670, -503, -4, 2136, 328, -984, -1686
0.141804, -503, -4, 2136, 328, -984, -1686
0.141938, -503, -4, 2136, 328, -984, -1686
0.142072, -503, -4, 2136, 328, -984, -1686
0.142206, -4863, -591, 2284, 712, -800, -578
0.142340, -4863, -591, 2284, 712, -800, -578
0.142474, -4863, -591, 2284, 712, -800, -578
0.142608, -4863, -591, 2284, 712, -800, -578
0.142742, -4863, -591, 2284, 712, -800, -578
0.142876, -4863, -591, 2284, 712, -800, -578
0.143010, -4863, -591, 2284, 712, -800, -578
0.143144, -4863, -591, 2284, 712, -800, -578
0.143278, -4864, -248, 1489, 994, -1047, 2559
0.143412, -4864, -248, 1489, 994, -1047, 2559
0.143546, -4864, -248, 1489, 994, -1047, 2559
0.143680, -4864, -248, 1489, 994, -1047, 2559
0.143813, -4864, -248, 1489, 994, -1047, 2559
0.143947, -4864, -248, 1489, 994, -1047, 2559
0.144081, -4864, -248, 1489, 994, -1047, 2559
0.144215, -4864, -248, 1489, 994, -1047, 2559
0.144355, -1237, 184, 1623, 628, -1803, 4692
0.144489, -1237, 184, 1623, 628, -1803, 4692
0.144623, -1237, 184, 1623, 628, -1803, 4692
0.144757, -1237, 184, 1623, 628, -1803, 4692
0.144891, -1237, 184, 1623, 628, -1803, 4692
0.145025, -1237, 184, 1623, 628, -1803, 4692
0.145159, -1237, 184, 1623, 628, -1803, 4692
0.145293, 1869, 336, 2635, 170, -2358, 4624
0.145427, 1869, 336, 2635, 170, -2358, 4624
0.145561, 1869, 336, 2635, 170, -2358, 4624
0.145694, 1869, 336, 2635, 170, -2358, 4624
0.145828, 1869, 336, 2635, 170, -2358, 4624
0.145962, 1869, 336, 2635, 170, -2358, 4624
0.146096, 1869, 336, 2635, 170, -2358, 4624
0.146230, 1869, 336, 2635, 170, -2358, 4624
0.146364, 5351, 826, 2766, 37, -2358, 2755
0.146498, 5351, 826, 2766, 37, -2358, 2755
0.146631, 5351, 826, 2766, 37, -2358, 2755
0.146765, 5351, 826, 2766, 37, -2358, 2755
0.146899, 5351, 826, 2766, 37, -2358, 2755
0.147033, 5351, 826, 2766, 37, -2358, 2755
0.147167, 5351, 826, 2766, 37, -2358, 2755
0.147301, 7191, 1039, 2446, 96, -1664, -1158
0.147435, 7191, 1039, 2446, 96, -1664, -1158
0.147569, 7191, 1039, 2446, 96, -1664, -1158
0.147702, 7191, 1039, 2446, 96, -1664, -1158
0.147836, 7191, 1039, 2446, 96, -1664, -1158
0.147970, 7191, 1039, 2446, 96, -1664, -1158
0.148104, 7191, 1039, 2446, 96, -1664, -1158
0.148238, 7191, 1039, 2446, 96, -1664, -1158
0.148372, 2908, 390, 2462, 437, -321, -5045
0.148507, 2908, 390, 2462, 437, -321, -5045
0.148640, 2908, 390, 2462, 437, -321, -5045
0.148774, 2908, 390, 2462, 437, -321, -5045
0.148908, 2908, 390, 2462, 437, -321, -5045
0.149042, 2908, 390, 2462, 437, -321, -5045
0.149176, 2908, 390, 2462, 437, -321, -5045
0.149310, -3241, -437, 2383, 1330, 1007, -5441
0.149444, -3241, -437, 2383, 1330, 1007, -5441
0.149578, -3241, -437, 2383, 1330, 1007, -5441
0.149712, -3241, -437, 2383, 1330, 1007, -5441
0.149846, -3241, -437, 2383, 1330, 1007, -5441
0.149980, -3241, -437, 2383, 1330, 1007, -5441
0.150139, -3241, -437, 2383, 1330, 1007, -5441
0.150278, -3241, -437, 2383, 1330, 1007, -5441
0.150414, -5054, -402, 1395, 2212, 1654, -2806
0.150548, -5054, -402, 1395, 2212, 1654, -2806
0.150682, -5054, -402, 1395, 2212, 1654, -2806
0.150816, -5054, -402, 1395, 2212, 1654, -2806
0.150950, -5054, -402, 1395, 2212, 1654, -2806
0.151084, -5054, -402, 1395, 2212, 1654, -2806
0.151218, -5054, -402, 1395, 2212, 1654, -2806
0.151351, -4272, 54, 928, 2115, 1525, 172
0.151485, -4272, 54, 928, 2115, 1525, 172
0.151619, -4272, 54, 928, 2115, 1525, 172
0.151753, -4272, 54, 928, 2115, 1525, 172
0.151887, -4272, 54, 928, 2115, 1525, 172
0.152021, -4272, 54, 928, 2115, 1525, 172
0.152155, -4272, 54, 928, 2115, 1525, 172
0.152289, -4272, 54, 928, 2115, 1525, 172
0.152423, -3747, -325, 1849, 1427, 980, 2689
0.152557, -3747, -325, 1849, 1427, 980, 2689
0.152691, -3747, -325, 1849, 1427, 980, 2689
0.152825, -3747, -325, 1849, 1427, 980, 2689
0.152959, -3747, -325, 1849, 1427, 980, 2689
0.153093, -3747, -325, 1849, 1427, 980, 2689
0.153227, -3747, -325, 1849, 1427, 980, 2689
0.153360, -2571, -522, 2387, 968, 309, 4800
0.153494, -2571, -522, 2387, 968, 309, 4800
0.153628, -2571, -522, 2387, 968, 309, 4800
0.153762, -2571, -522, 2387, 968, 309, 4800
0.153896, -2571, -522, 2387, 968, 309, 4800
0.154030, -2571, -522, 2387, 968, 309, 4800
0.154164, -2571, -522, 2387, 968, 309, 4800
0.154298, -2571, -522, 2387, 968, 309, 4800
0.154432, -48, 167, 2503, 653, -520, 5746
0.154566, -48, 167, 2503, 653, -520, 5746
0.154700, -48, 167, 2503, 653, -520, 5746
0.154834, -48, 167, 2503, 653, -520, 5746
0.154967, -48, 167, 2503, 653, -520, 5746
0.155101, -48, 167, 2503, 653, -520, 5746
0.155235, -48, 167, 2503, 653, -520, 5746
0.155369, -48, 167, 2503, 653, -520, 5746
0.155503, 2049, 773, 3147, 554, -1380, 4993
0.155637, 2049, 773, 3147, 554, -1380, 4993
0.155771, 2049, 773, 3147, 554, -1380, 4993
0.155905, 2049, 773, 3147, 554, -1380, 4993
0.156039, 2049, 773, 3147, 554, -1380, 4993
0.156173, 2049, 773, 3147, 554, -1380, 4993
0.156306, 2049, 773, 3147, 554, -1380, 4993
0.156441, 2160, 654, 3224, 887, -2099, 3287
0.156575, 2160, 654, 3224, 887, -2099, 3287
0.156709, 2160, 654, 3224, 887, -2099, 3287
0.156843, 2160, 654, 3224, 887, -2099, 3287
0.156976, 2160, 654, 3224, 887, -2099, 3287
0.157110, 2160, 654, 3224, 887, -2099, 3287
0.157244, 2160, 654, 3224, 887, -2099, 3287
0.157378, 2160, 654, 3224, 887, -2099, 3287
0.157512, 304, -37, 2195, 1298, -2617, 2022
0.157646, 304, -37, 2195, 1298, -2617, 2022
0.157780, 304, -37, 2195, 1298, -2617, 2022
0.157914, 304, -37, 2195, 1298, -2617, 2022
0.158047, 304, -37, 2195, 1298, -2617, 2022
0.158181, 304, -37, 2195, 1298, -2617, 2022
0.158315, 304, -37, 2195, 1298, -2617, 2022
0.158449, -1177, -405, 1002, 1376, -2922, 2089
0.158583, -1177, -405, 1002, 1376, -2922, 2089
0.158717, -1177, -405, 1002, 1376, -2922, 2089
0.158851, -1177, -405, 1002, 1376, -2922, 2089
0.158985, -1177, -405, 1002, 1376, -2922, 2089
0.159119, -1177, -405, 1002, 1376, -2922, 2089
0.159252, -1177, -405, 1002, 1376, -2922, 2089
0.159386, -1177, -405, 1002, 1376, -2922, 2089
0.159520, 80, -144, 583, 1029, -3080, 2563
0.159654, 80, -144, 583, 1029, -3080, 2563
0.159788, 80, -144, 583, 1029, -3080, 2563
0.159922, 80, -144, 583, 1029, -3080, 2563
0.160056, 80, -144, 583, 1029, -3080, 2563
0.160190, 80, -144, 583, 1029, -3080, 2563
0.160324, 80, -144, 583, 1029, -3080, 2563
0.160458, 2069, 304, 1135, 522, -2905, 1963
0.160592, 2069, 304, 1135, 522, -2905, 1963
0.160726, 2069, 304, 1135, 522, -2905, 1963
0.160859, 2069, 304, 1135, 522, -2905, 1963
0.160993, 2069, 304, 1135, 522, -2905, 1963
0.161127, 2069, 304, 1135, 522, -2905, 1963
0.161261, 2069, 304, 1135, 522, -2905, 1963
0.161395, 2069, 304, 1135, 522, -2905, 1963
0.161529, 1866, 388, 1745, 186, -2064, 671
0.161663, 1866, 388, 1745, 186, -2064, 671
0.161797, 1866, 388, 1745, 186, -2064, 671
0.161931, 1866, 388, 1745, 186, -2064, 671
0.162065, 1866, 388, 1745, 186, -2064, 671
0.162199, 1866, 388, 1745, 186, -2064, 671
0.162333, 1866, 388, 1745, 186, -2064, 671
0.162481, 563, 255, 2081, 163, -734, -68
0.162621, 563, 255, 2081, 163, -734, -68
0.162757, 563, 255, 2081, 163, -734, -68
0.162891, 563, 255, 2081, 163, -734, -68
0.163025, 563, 255, 2081, 163, -734, -68
0.163159, 563, 255, 2081, 163, -734, -68
0.163293, 563, 255, 2081, 163, -734, -68
0.163427, 563, 255, 2081, 163, -734, -68
0.163561, 460, 3, 2042, 336, 440, -184
0.163695, 460, 3, 2042, 336, 440, -184
0.163829, 460, 3, 2042, 336, 440, -184
0.163963, 460, 3, 2042, 336, 440, -184
0.164097, 460, 3, 2042, 336, 440, -184
0.164230, 460, 3, 2042, 336, 440, -184
0.164365, 460, 3, 2042, 336, 440, -184
0.164499, 460, 3, 2042, 336, 440, -184
0.164632, 1938, -28, 1712, 328, 1045, -694
0.164766, 1938, -28, 1712, 328, 1045, -694
0.164900, 1938, -28, 1712, 328, 1045, -694
0.165034, 1938, -28, 1712, 328, 1045, -694
0.165168, 1938, -28, 1712, 328, 1045, -694
0.165302, 1938, -28, 1712, 328, 1045, -694
0.165436, 1938, -28, 1712, 328, 1045, -694
0.165570, 3300, 489, 2175, 183, 1294, -2309
0.165704, 3300, 489, 2175, 183, 1294, -2309
0.165838, 3300, 489, 2175, 183, 1294, -2309
0.165971, 3300, 489, 2175, 183, 1294, -2309
0.166105, 3300, 489, 2175, 183, 1294, -2309
0.166239, 3300, 489, 2175, 183, 1294, -2309
0.166373, 3300, 489, 2175, 183, 1294, -2309
0.166507, 3300, 489, 2175, 183, 1294, -2309
0.166641, 2239, 528, 2519, 372, 1656, -4315
0.166775, 2239, 528, 2519, 372, 1656, -4315
0.166909, 2239, 528, 2519, 372, 1656, -4315
0.167042, 2239, 528, 2519, 372, 1656, -4315
0.167176, 2239, 528, 2519, 372, 1656, -4315
0.167310, 2239, 528, 2519, 372, 1656, -4315
0.167444, 2239, 528, 2519, 372, 1656, -4315
0.167578, -858, 93, 1547, 677, 2038, -5196
0.167712, -858, 93, 1547, 677, 2038, -5196
0.167846, -858, 93, 1547, 677, 2038, -5196
0.167979, -858, 93, 1547, 677, 2038, -5196
0.168113, -858, 93, 1547, 677, 2038, -5196
0.168247, -858, 93, 1547, 677, 2038, -5196
0.168384, -858, 93, 1547, 677, 2038, -5196
0.168519, -858, 93, 1547, 677, 2038, -5196
0.168653, -3175, 27, 765, 518, 2082, -4188
0.168788, -3175, 27, 765, 518, 2082, -4188
0.168923, -3175, 27, 765, 518, 2082, -4188
0.169057, -3175, 27, 765, 518, 2082, -4188
0.169191, -3175, 27, 765, 518, 2082, -4188
0.169326, -3175, 27, 765, 518, 2082, -4188
0.169460, -3175, 27, 765, 518, 2082, -4188
0.169595, -3013, 32, 1166, 87, 1746, -2197
0.169729, -3013, 32, 1166, 87, 1746, -2197
0.169864, -3013, 32, 1166, 87, 1746, -2197
0.169998, -3013, 32, 1166, 87, 1746, -2197
0.170132, -3013, 32, 1166, 87, 1746, -2197
0.170267, -3013, 32, 1166, 87, 1746, -2197
0.170401, -3013, 32, 1166, 87, 1746, -2197
0.170536, -3013, 32, 1166, 87, 1746, -2197
0.170670, -1735, -98, 1936, -265, 1166, -640
0.170805, -1735, -98, 1936, -265, 1166, -640
0.170939, -1735, -98, 1936, -265, 1166, -640
0.171074, -1735, -98, 1936, -265, 1166, -640
0.171208, -1735, -98, 1936, -265, 1166, -640
0.171342, -1735, -98, 1936, -265, 1166, -640
0.171477, -1735, -98, 1936, -265, 1166, -640
0.171611, -1282, -299, 2666, -347, 685, 285
0.171746, -1282, -299, 2666, -347, 685, 285
0.171880, -1282, -299, 2666, -347, 685, 285
0.172015, -1282, -299, 2666, -347, 685, 285
0.172149, -1282, -299, 2666, -347, 685, 285
0.172284, -1282, -299, 2666, -347, 685, 285
0.172418, -1282, -299, 2666, -347, 685, 285
0.172553, -1282, -299, 2666, -347, 685, 285
0.172687, -1129, -308, 3024, -3, 362, 936
0.172822, -1129, -308, 3024, -3, 362, 936
0.172956, -1129, -308, 3024, -3, 362, 936
0.173091, -1129, -308, 3024, -3, 362, 936
0.173225, -1129, -308, 3024, -3, 362, 936
0.173360, -1129, -308, 3024, -3, 362, 936
0.173494, -1129, -308, 3024, -3, 362, 936
0.173628, -1061, -117, 2398, 280, -251, 1373
0.173763, -1061, -117, 2398, 280, -251, 1373
0.173897, -1061, -117, 2398, 280, -251, 1373
0.174032, -1061, -117, 2398, 280, -251, 1373
0.174166, -1061, -117, 2398, 280, -251, 1373
0.174301, -1061, -117, 2398, 280, -251, 1373
0.174435, -1061, -117, 2398, 280, -251, 1373
0.174570, -1061, -117, 2398, 280, -251, 1373
0.174704, -1862, -186, 1928, 154, -1196, 1893
0.174838, -1862, -186, 1928, 154, -1196, 1893
0.174973, -1862, -186, 1928, 154, -1196, 1893
0.175107, -1862, -186, 1928, 154, -1196, 1893
0.175253, -1862, -186, 1928, 154, -1196, 1893
0.175394, -1862, -186, 1928, 154, -1196, 1893
0.175531, -1862, -186, 1928, 154, -1196, 1893
0.175665, -2356, -127, 2237, 58, -2062, 2936
0.175800, -2356, -127, 2237, 58, -2062, 2936
0.175934, -2356, -127, 2237, 58, -2062, 2936
0.176069, -2356, -127, 2237, 58, -2062, 2936
0.176203, -2356, -127, 2237, 58, -2062, 2936
0.176338, -2356, -127, 2237, 58, -2062, 2936
0.176473, -2356, -127, 2237, 58, -2062, 2936
0.176607, -2356, -127, 2237, 58, -2062, 2936
0.176742, -1737, 95, 2271, 128, -2695, 4125
0.176876, -1737, 95, 2271, 128, -2695, 4125
0.177011, -1737, 95, 2271, 128, -2695, 4125
0.177145, -1737, 95, 2271, 128, -2695, 4125
0.177280, -1737, 95, 2271, 128, -2695, 4125
0.177414, -1737, 95, 2271, 128, -2695, 4125
0.177549, -1737, 95, 2271, 128, -2695, 4125
0.177683, -678, 94, 2061, 95, -3111, 4867
0.177818, -678, 94, 2061, 95, -3111, 4867
0.177952, -678, 94, 2061, 95, -3111, 4867
0.178087, -678, 94, 2061, 95, -3111, 4867
0.178221, -678, 94, 2061, 95, -3111, 4867
0.178356, -678, 94, 2061, 95, -3111, 4867
0.178490, -678, 94, 2061, 95, -3111, 4867
0.178625, -678, 94, 2061, 95, -3111, 4867
0.178759, 1000, 76, 2122, -44, -3245, 4901
0.178894, 1000, 76, 2122, -44, -3245, 4901
0.179028, 1000, 76, 2122, -44, -3245, 4901
0.179163, 1000, 76, 2122, -44, -3245, 4901
0.179297, 1000, 76, 2122, -44, -3245, 4901
0.179432, 1000, 76, 2122, -44, -3245, 4901
0.179566, 1000, 76, 2122, -44, -3245, 4901
0.179700, 1000, 76, 2122, -44, -3245, 4901
0.179835, 3082, 161, 2319, -134, -3072, 3834
0.179970, 3082, 161, 2319, -134, -3072, 3834
0.180104, 3082, 161, 2319, -134, -3072, 3834
0.180238, 3082, 161, 2319, -134, -3072, 3834
0.180373, 3082, 161, 2319, -134, -3072, 3834
0.180507, 3082, 161, 2319, -134, -3072, 3834
0.180642, 3082, 161, 2319, -134, -3072, 3834
0.180776, 5152, 358, 2391, -24, -2531, 1496
0.180911, 5152, 358, 2391, -24, -2531, 1496
0.181045, 5152, 358, 2391, -24, -2531, 1496
0.181180, 5152, 358, 2391, -24, -2531, 1496
0.181314, 5152, 358, 2391, -24, -2531, 1496
0.181449, 5152, 358, 2391, -24, -2531, 1496
0.181583, 5152, 358, 2391, -24, -2531, 1496
0.181718, 5152, 358, 2391, -24, -2531, 1496
0.181852, 6776, 799, 2044, 234, -1489, -2054
0.181987, 6776, 799, 2044, 234, -1489, -2054
0.182121, 6776, 799, 2044, 234, -1489, -2054
0.182255, 6776, 799, 2044, 234, -1489, -2054
0.182390, 6776, 799, 2044, 234, -1489, -2054
0.182524, 6776, 799, 2044, 234, -1489, -2054
0.182659, 6776, 799, 2044, 234, -1489, -2054
0.182793, 5430, 743, 1534, 401, 30, -6101
0.182928, 5430, 743, 1534, 401, 30, -6101
0.183062, 5430, 743, 1534, 401, 30, -6101
0.183196, 5430, 743, 1534, 401, 30, -6101
0.183331, 5430, 743, 1534, 401, 30, -6101
0.183465, 5430, 743, 1534, 401, 30, -6101
0.183600, 5430, 743, 1534, 401, 30, -6101
0.183734, 5430, 743, 1534, 401, 30, -6101
0.183868, 347, -30, 1494, 699, 1765, -8433
0.184003, 347, -30, 1494, 699, 1765, -8433
0.184138, 347, -30, 1494, 699, 1765, -8433
0.184272, 347, -30, 1494, 699, 1765, -8433
0.184407, 347, -30, 1494, 699, 1765, -8433
0.184541, 347, -30, 1494, 699, 1765, -8433
0.184676, 347, -30, 1494, 699, 1765, -8433
0.184810, -3559, -5, 1677, 1352, 3196, -7514
0.184944, -3559, -5, 1677, 1352, 3196, -7514
0.185079, -3559, -5, 1677, 1352, 3196, -7514
0.185213, -3559, -5, 1677, 1352, 3196, -7514
0.185348, -3559, -5, 1677, 1352, 3196, -7514
0.185482, -3559, -5, 1677, 1352, 3196, -7514
0.185617, -3559, -5, 1677, 1352, 3196, -7514
0.185751, -3559, -5, 1677, 1352, 3196, -7514
0.185885, -3044, 320, 1973, 1867, 3887, -5122
0.186020, -3044, 320, 1973, 1867, 3887, -5122
0.186154, -3044, 320, 1973, 1867, 3887, -5122
0.186289, -3044, 320, 1973, 1867, 3887, -5122
0.186423, -3044, 320, 1973, 1867, 3887, -5122
0.186558, -3044, 320, 1973, 1867, 3887, -5122
0.186692, -3044, 320, 1973, 1867, 3887, -5122
0.186827, -1683, -58, 2490, 2050, 3838, -3497
0.186961, -1683, -58, 2490, 2050, 3838, -3497
0.187096, -1683, -58, 2490, 2050, 3838, -3497
0.187230, -1683, -58, 2490, 2050, 3838, -3497
0.187364, -1683, -58, 2490, 2050, 3838, -3497
0.187499, -1683, -58, 2490, 2050, 3838, -3497
0.187633, -1683, -58, 2490, 2050, 3838, -3497
0.187779, -1683, -58, 2490, 2050, 3838, -3497
0.187919, -1141, 65, 2405, 2025, 3293, -2533
0.188057, -1141, 65, 2405, 2025, 3293, -2533
0.188192, -1141, 65, 2405, 2025, 3293, -2533
0.188326, -1141, 65, 2405, 2025, 3293, -2533
0.188461, -1141, 65, 2405, 2025, 3293, -2533
0.188595, -1141, 65, 2405, 2025, 3293, -2533
0.188730, -1141, 65, 2405, 2025, 3293, -2533
0.188864, 126, 567, 1935, 1617, 2554, -2118
0.188999, 126, 567, 1935, 1617, 2554, -2118
0.189133, 126, 567, 1935, 1617, 2554, -2118
0.189268, 126, 567, 1935, 1617, 2554, -2118
0.189403, 126, 567, 1935, 1617, 2554, -2118
0.189537, 126, 567, 1935, 1617, 2554, -2118
0.189671, 126, 567, 1935, 1617, 2554, -2118
0.189806, 126, 567, 1935, 1617, 2554, -2118
0.189940, 1033, 464, 1963, 1096, 1851, -2634
0.190075, 1033, 464, 1963, 1096, 1851, -2634
0.190209, 1033, 464, 1963, 1096, 1851, -2634
0.190344, 1033, 464, 1963, 1096, 1851, -2634
0.190478, 1033, 464, 1963, 1096, 1851, -2634
0.190613, 1033, 464, 1963, 1096, 1851, -2634
0.190747, 1033, 464, 1963, 1096, 1851, -2634
0.190881, 148, 8, 1996, 882, 1252, -3373
0.191016, 148, 8, 1996, 882, 1252, -3373
0.191150, 148, 8, 1996, 882, 1252, -3373
0.191285, 148, 8, 1996, 882, 1252, -3373
0.191419, 148, 8, 1996, 882, 1252, -3373
0.191554, 148, 8, 1996, 882, 1252, -3373
0.191688, 148, 8, 1996, 882, 1252, -3373
0.191823, 148, 8, 1996, 882, 1252, -3373
0.191957, -1362, -109, 1886, 936, 725, -3272
0.192092, -1362, -109, 1886, 936, 725, -3272
0.192226, -1362, -109, 1886, 936, 725, -3272
0.192361, -1362, -109, 1886, 936, 725, -3272
0.192495, -1362, -109, 1886, 936, 725, -3272
0.192630, -1362, -109, 1886, 936, 725, -3272
0.192764, -1362, -109, 1886, 936, 725, -3272
0.192899, -1418, 167, 1975, 1133, 219, -2447
0.193033, -1418, 167, 1975, 1133, 219, -2447
0.193168, -1418, 167, 1975, 1133, 219, -2447
0.193302, -1418, 167, 1975, 1133, 219, -2447
0.193437, -1418, 167, 1975, 1133, 219, -2447
0.193571, -1418, 167, 1975, 1133, 219, -2447
0.193705, -1418, 167, 1975, 1133, 219, -2447
0.193840, -1418, 167, 1975, 1133, 219, -2447
0.193974, -673, 216, 1999, 1312, -200, -1841
0.194109, -673, 216, 1999, 1312, -200, -1841
0.194243, -673, 216, 1999, 1312, -200, -1841
0.194378, -673, 216, 1999, 1312, -200, -1841
0.194512, -673, 216, 1999, 1312, -200, -1841
0.194647, -673, 216, 1999, 1312, -200, -1841
0.194781, -673, 216, 1999, 1312, -200, -1841
0.194916, -1292, -3, 1991, 1361, -456, -1439
0.195050, -1292, -3, 1991, 1361, -456, -1439
0.195185, -1292, -3, 1991, 1361, -456, -1439
0.195319, -1292, -3, 1991, 1361, -456, -1439
0.195453, -1292, -3, 1991, 1361, -456, -1439
0.195588, -1292, -3, 1991, 1361, -456, -1439
0.195723, -1292, -3, 1991, 1361, -456, -1439
0.195857, -1292, -3, 1991, 1361, -456, -1439
0.195992, -3366, -270, 2163, 1374, -595, -231
0.196126, -3366, -270, 2163, 1374, -595, -231
0.196261, -3366, -270, 2163, 1374, -595, -231
0.196395, -3366, -270, 2163, 1374, -595, -231
0.196530, -3366, -270, 2163, 1374, -595, -231
0.196664, -3366, -270, 2163, 1374, -595, -231
0.196799, -3366, -270, 2163, 1374, -595, -231
0.196933, -3366, -270, 2163, 1374, -595, -231
0.197068, -4305, -379, 2218, 1415, -871, 2133
0.197202, -4305, -379, 2218, 1415, -871, 2133
0.197337, -4305, -379, 2218, 1415, -871, 2133
0.197471, -4305, -379, 2218, 1415, -871, 2133
0.197606, -4305, -379, 2218, 1415, -871, 2133
0.197740, -4305, -379, 2218, 1415, -871, 2133
0.197875, -4305, -379, 2218, 1415, -871, 2133
0.198009, -2718, -147, 2164, 1344, -1462, 4431
0.198144, -2718, -147, 2164, 1344, -1462, 4431
0.198278, -2718, -147, 2164, 1344, -1462, 4431
0.198413, -2718, -147, 2164, 1344, -1462, 4431
0.198547, -2718, -147, 2164, 1344, -1462, 4431
0.198682, -2718, -147, 2164, 1344, -1462, 4431
0.198816, -2718, -147, 2164, 1344, -1462, 4431
0.198951, -2718, -147, 2164, 1344, -1462, 4431
0.199085, -906, 89, 2260, 1056, -2142, 5513
0.199220, -906, 89, 2260, 1056, -2142, 5513
0.199354, -906, 89, 2260, 1056, -2142, 5513
0.199489, -906, 89, 2260, 1056, -2142, 5513
0.199623, -906, 89, 2260, 1056, -2142, 5513
0.199758, -906, 89, 2260, 1056, -2142, 5513
0.199892, -906, 89, 2260, 1056, -2142, 5513
0.200026, -123, 141, 2309, 667, -2654, 5689
0.200172, -123, 141, 2309, 667, -2654, 5689
0.200312, -123, 141, 2309, 667, -2654, 5689
0.200449, -123, 141, 2309, 667, -2654, 5689
0.200583, -123, 141, 2309, 667, -2654, 5689
0.200718, -123, 141, 2309, 667, -2654, 5689
0.200852, -123, 141, 2309, 667, -2654, 5689
0.200987, -123, 141, 2309, 667, -2654, 5689
0.201121, 595, 200, 2245, 376, -2941, 5421
0.201256, 595, 200, 2245, 376, -2941, 5421
0.201390, 595, 200, 2245, 376, -2941, 5421
0.201524, 595, 200, 2245, 376, -2941, 5421
0.201659, 595, 200, 2245, 376, -2941, 5421
0.201793, 595, 200, 2245, 376, -2941, 5421
0.201928, 595, 200, 2245, 376, -2941, 5421
0.202062, 1747, 355, 2194, 255, -3035, 4613
0.202197, 1747, 355, 2194, 255, -3035, 4613
0.202331, 1747, 355, 2194, 255, -3035, 4613
0.202465, 1747, 355, 2194, 255, -3035, 4613
0.202600, 1747, 355, 2194, 255, -3035, 4613
0.202734, 1747, 355, 2194, 255, -3035, 4613
0.202869, 1747, 355, 2194, 255, -3035, 4613
0.203003, 1747, 355, 2194, 255, -3035, 4613
0.203137, 3530, 647, 2133, 223, -2942, 2990
0.203272, 3530, 647, 2133, 223, -2942, 2990
0.203406, 3530, 647, 2133, 223, -2942, 2990
0.203541, 3530, 647, 2133, 223, -2942, 2990
0.203675, 3530, 647, 2133, 223, -2942, 2990
0.203809, 3530, 647, 2133, 223, -2942, 2990
0.203944, 3530, 647, 2133, 223, -2942, 2990
0.204078, 4145, 769, 2427, 310, -2425, 434
0.204213, 4145, 769, 2427, 310, -2425, 434
0.204347, 4145, 769, 2427, 310, -2425, 434
0.204482, 4145, 769, 2427, 310, -2425, 434
0.204616, 4145, 769, 2427, 310, -2425, 434
0.204751, 4145, 769, 2427, 310, -2425, 434
0.204885, 4145, 769, 2427, 310, -2425, 434
0.205019, 4145, 769, 2427, 310, -2425, 434
0.205154, 2272, 480, 2799, 823, -1319, -1821
0.205288, 2272, 480, 2799, 823, -1319, -1821
0.205423, 2272, 480, 2799, 823, -1319, -1821
0.205557, 2272, 480, 2799, 823, -1319, -1821
0.205692, 2272, 480, 2799, 823, -1319, -1821
0.205826, 2272, 480, 2799, 823, -1319, -1821
0.205960, 2272, 480, 2799, 823, -1319, -1821
0.206095, 1402, 214, 2189, 1561, -38, -2845
0.206229, 1402, 214, 2189, 1561, -38, -2845
0.206364, 1402, 214, 2189, 1561, -38, -2845
0.206498, 1402, 214, 2189, 1561, -38, -2845
0.206633, 1402, 214, 2189, 1561, -38, -2845
0.206767, 1402, 214, 2189, 1561, -38, -2845
0.206901, 1402, 214, 2189, 1561, -38, -2845
0.207036, 1402, 214, 2189, 1561, -38, -2845
0.207170, 1604, 142, 1404, 1794, 1010, -3748
0.207305, 1604, 142, 1404, 1794, 1010, -3748
0.207439, 1604, 142, 1404, 1794, 1010, -3748
0.207573, 1604, 142, 1404, 1794, 1010, -3748
0.207708, 1604, 142, 1404, 1794, 1010, -3748
0.207842, 1604, 142, 1404, 1794, 1010, -3748
0.207977, 1604, 142, 1404, 1794, 1010, -3748
0.208111, -146, 194, 1590, 1631, 1930, -4404
0.208246, -146, 194, 1590, 1631, 1930, -4404
0.208380, -146, 194, 1590, 1631, 1930, -4404
0.208515, -146, 194, 1590, 1631, 1930, -4404
0.208649, -146, 194, 1590, 1631, 1930, -4404
0.208784, -146, 194, 1590, 1631, 1930, -4404
0.208918, -146, 194, 1590, 1631, 1930, -4404
0.209052, -146, 194, 1590, 1631, 1930, -4404
0.209187, -1689, 263, 2063, 1673, 2714, -3811
0.209321, -1689, 263, 2063, 1673, 2714, -3811
0.209456, -1689, 263, 2063, 1673, 2714, -3811
0.209590, -1689, 263, 2063, 1673, 2714, -3811
0.209725, -1689, 263, 2063, 1673, 2714, -3811
0.209859, -1689, 263, 2063, 1673, 2714, -3811
0.209994, -1689, 263, 2063, 1673, 2714, -3811
0.210128, -1749, -37, 1880, 1783, 3083, -2694
0.210263, -1749, -37, 1880, 1783, 3083, -2694
0.210397, -1749, -37, 1880, 1783, 3083, -2694
0.210532, -1749, -37, 1880, 1783, 3083, -2694
0.210666, -1749, -37, 1880, 1783, 3083, -2694
0.210800, -1749, -37, 1880, 1783, 3083, -2694
0.210935, -1749, -37, 1880, 1783, 3083, -2694
0.211069, -1749, -37, 1880, 1783, 3083, -2694
0.211204, -2599, -552, 1147, 1364, 2910, -1548
0.211338, -2599, -552, 1147, 1364, 2910, -1548
0.211473, -2599, -552, 1147, 1364, 2910, -1548
0.211607, -2599, -552, 1147, 1364, 2910, -1548
0.211741, -2599, -552, 1147, 1364, 2910, -1548
0.211876, -2599, -552, 1147, 1364, 2910, -1548
0.212010, -2599, -552, 1147, 1364, 2910, -1548
0.212144, -2599, -552, 1147, 1364, 2910, -1548
0.212279, -3617, -535, 1285, 539, 2252, 218
0.212429, -3617, -535, 1285, 539, 2252, 218
0.212569, -3617, -535, 1285, 539, 2252, 218
0.212705, -3617, -535, 1285, 539, 2252, 218
0.212840, -3617, -535, 1285, 539, 2252, 218
0.212974, -3617, -535, 1285, 539, 2252, 218
0.213109, -3617, -535, 1285, 539, 2252, 218
0.213243, -2506, -69, 2240, 42, 1227, 2111
0.213378, -2506, -69, 2240, 42, 1227, 2111
0.213512, -2506, -69, 2240, 42, 1227, 2111
0.213647, -2506, -69, 2240, 42, 1227, 2111
0.213781, -2506, -69, 2240, 42, 1227, 2111
0.213916, -2506, -69, 2240, 42, 1227, 2111
0.214051, -2506, -69, 2240, 42, 1227, 2111
0.214185, -1132, 65, 2479, -117, 57, 2979
0.214320, -1132, 65, 2479, -117, 57, 2979
0.214454, -1132, 65, 2479, -117, 57, 2979
0.214589, -1132, 65, 2479, -117, 57, 2979
0.214723, -1132, 65, 2479, -117, 57, 2979
0.214858, -1132, 65, 2479, -117, 57, 2979
0.214992, -1132, 65, 2479, -117, 57, 2979
0.215127, -1132, 65, 2479, -117, 57, 2979
0.215261, -1101, -9, 2308, -289, -1029, 3311
0.215396, -1101, -9, 2308, -289, -1029, 3311
0.215530, -1101, -9, 2308, -289, -1029, 3311
0.215665, -1101, -9, 2308, -289, -1029, 3311
0.215799, -1101, -9, 2308, -289, -1029, 3311
0.215934, -1101, -9, 2308, -289, -1029, 3311
0.216068, -1101, -9, 2308, -289, -1029, 3311
0.216203, -393, 153, 2233, -424, -1958, 3674
0.216338, -393, 153, 2233, -424, -1958, 3674
0.216473, -393, 153, 2233, -424, -1958, 3674
0.216608, -393, 153, 2233, -424, -1958, 3674
0.216742, -393, 153, 2233, -424, -1958, 3674
0.216877, -393, 153, 2233, -424, -1958, 3674
0.217011, -393, 153, 2233, -424, -1958, 3674
0.217146, -393, 153, 2233, -424, -1958, 3674
0.217280, 426, 236, 2113, -461, -2690, 3508
0.217415, 426, 236, 2113, -461, -2690, 3508
0.217549, 426, 236, 2113, -461, -2690, 3508
0.217684, 426, 236, 2113, -461, -2690, 3508
0.217818, 426, 236, 2113, -461, -2690, 3508
0.217952, 426, 236, 2113, -461, -2690, 3508
0.218087, 426, 236, 2113, -461, -2690, 3508
0.218221, 426, 236, 2113, -461, -2690, 3508
0.218356, -318, 18, 2118, -388, -3027, 3196
0.218491, -318, 18, 2118, -388, -3027, 3196
0.218625, -318, 18, 2118, -388, -3027, 3196
0.218760, -318, 18, 2118, -388, -3027, 3196
0.218894, -318, 18, 2118, -388, -3027, 3196
0.219028, -318, 18, 2118, -388, -3027, 3196
0.219163, -318, 18, 2118, -388, -3027, 3196
0.219298, -945, -50, 2096, -217, -2905, 3550
0.219432, -945, -50, 2096, -217, -2905, 3550
0.219567, -945, -50, 2096, -217, -2905, 3550
0.219701, -945, -50, 2096, -217, -2905, 3550
0.219836, -945, -50, 2096, -217, -2905, 3550
0.219970, -945, -50, 2096, -217, -2905, 3550
0.220105, -945, -50, 2096, -217, -2905, 3550
0.220239, -945, -50, 2096, -217, -2905, 3550
0.220374, -337, 129, 2034, -88, -2573, 4082
0.220512, -337, 129, 2034, -88, -2573, 4082
0.220654, -337, 129, 2034, -88, -2573, 4082
0.220789, -337, 129, 2034, -88, -2573, 4082
0.220924, -337, 129, 2034, -88, -2573, 4082
0.221059, -337, 129, 2034, -88, -2573, 4082
0.221193, -337, 129, 2034, -88, -2573, 4082
0.221328, 322, 191, 2062, -92, -2145, 4154
0.221462, 322, 191, 2062, -92, -2145, 4154
0.221597, 322, 191, 2062, -92, -2145, 4154
0.221732, 322, 191, 2062, -92, -2145, 4154
0.221866, 322, 191, 2062, -92, -2145, 4154
0.222001, 322, 191, 2062, -92, -2145, 4154
0.222135, 322, 191, 2062, -92, -2145, 4154
0.222270, 322, 191, 2062, -92, -2145, 4154
0.222404, 744, 198, 2107, -179, -1611, 3895
0.222539, 744, 198, 2107, -179, -1611, 3895
0.222674, 744, 198, 2107, -179, -1611, 3895
0.222808, 744, 198, 2107, -179, -1611, 3895
0.222943, 744, 198, 2107, -179, -1611, 3895
0.223077, 744, 198, 2107, -179, -1611, 3895
0.223212, 744, 198, 2107, -179, -1611, 3895
0.223346, 2303, 418, 2098, -270, -1080, 3195
0.223481, 2303, 418, 2098, -270, -1080, 3195
0.223616, 2303, 418, 2098, -270, -1080, 3195
0.223750, 2303, 418, 2098, -270, -1080, 3195
0.223885, 2303, 418, 2098, -270, -1080, 3195
0.224019, 2303, 418, 2098, -270, -1080, 3195
0.224154, 2303, 418, 2098, -270, -1080, 3195
0.224289, 2303, 418, 2098, -270, -1080, 3195
0.224424, 4988, 738, 2116, -375, -611, 1154
0.224559, 4988, 738, 2116, -375, -611, 1154
0.224693, 4988, 738, 2116, -375, -611, 1154
0.224828, 4988, 738, 2116, -375, -611, 1154
0.224972, 4988, 738, 2116, -375, -611, 1154
0.225112, 4988, 738, 2116, -375, -611, 1154
0.225248, 4988, 738, 2116, -375, -611, 1154
0.225383, 5613, 795, 2204, -381, 27, -2292
0.225517, 5613, 795, 2204, -381, 27, -2292
0.225652, 5613, 795, 2204, -381, 27, -2292
0.225787, 5613, 795, 2204, -381, 27, -2292
0.225921, 5613, 795, 2204, -381, 27, -2292
0.226056, 5613, 795, 2204, -381, 27, -2292
0.226190, 5613, 795, 2204, -381, 27, -2292
0.226325, 5613, 795, 2204, -381, 27, -2292
0.226459, 2845, 533, 1732, -284, 966, -5319
0.226594, 2845, 533, 1732, -284, 966, -5319
0.226729, 2845, 533, 1732, -284, 966, -5319
0.226863, 2845, 533, 1732, -284, 966, -5319
0.226998, 2845, 533, 1732, -284, 966, -5319
0.227132, 2845, 533, 1732, -284, 966, -5319
0.227267, 2845, 533, 1732, -284, 966, -5319
0.227401, -579, 401, 787, -381, 1852, -6372
0.227536, -579, 401, 787, -381, 1852, -6372
0.227671, -579, 401, 787, -381, 1852, -6372
0.227806, -579, 401, 787, -381, 1852, -6372
0.227940, -579, 401, 787, -381, 1852, -6372
0.228075, -579, 401, 787, -381, 1852, -6372
0.228209, -579, 401, 787, -381, 1852, -6372
0.228345, -579, 401, 787, -381, 1852, -6372
0.228479, -3437, -65, 976, -579, 2405, -5397
0.228614, -3437, -65, 976, -579, 2405, -5397
0.228748, -3437, -65, 976, -579, 2405, -5397
0.228883, -3437, -65, 976, -579, 2405, -5397
0.229018, -3437, -65, 976, -579, 2405, -5397
0.229152, -3437, -65, 976, -579, 2405, -5397
0.229287, -3437, -65, 976, -579, 2405, -5397
0.229421, -5239, -891, 2388, -383, 2523, -2769
0.229556, -5239, -891, 2388, -383, 2523, -2769
0.229691, -5239, -891, 2388, -383, 2523, -2769
0.229825, -5239, -891, 2388, -383, 2523, -2769
0.229960, -5239, -891, 2388, -383, 2523, -2769
0.230094, -5239, -891, 2388, -383, 2523, -2769
0.230229, -5239, -891, 2388, -383, 2523, -2769
0.230364, -5239, -891, 2388, -383, 2523, -2769
0.230498, -4294, -674, 3153, 207, 2081, 438
0.230633, -4294, -674, 3153, 207, 2081, 438
0.230768, -4294, -674, 3153, 207, 2081, 438
0.230902, -4294, -674, 3153, 207, 2081, 438
0.231037, -4294, -674, 3153, 207, 2081, 438
0.231171, -4294, -674, 3153, 207, 2081, 438
0.231306, -4294, -674, 3153, 207, 2081, 438
0.231441, -1996, -115, 2892, 490, 1269, 2566
0.231575, -1996, -115, 2892, 490, 1269, 2566
0.231710, -1996, -115, 2892, 490, 1269, 2566
0.231844, -1996, -115, 2892, 490, 1269, 2566
0.231979, -1996, -115, 2892, 490, 1269, 2566
0.232114, -1996, -115, 2892, 490, 1269, 2566
0.232248, -1996, -115, 2892, 490, 1269, 2566
0.232383, -1996, -115, 2892, 490, 1269, 2566
0.232518, -202, -71, 2502, 193, 362, 3173
0.232653, -202, -71, 2502, 193, 362, 3173
0.232787, -202, -71, 2502, 193, 362, 3173
0.232922, -202, -71, 2502, 193, 362, 3173
0.233057, -202, -71, 2502, 193, 362, 3173
0.233191, -202, -71, 2502, 193, 362, 3173
0.233326, -202, -71, 2502, 193, 362, 3173
0.233460, 1050, 19, 2255, -293, -518, 2701
0.233595, 1050, 19, 2255, -293, -518, 2701
0.233730, 1050, 19, 2255, -293, -518, 2701
0.233864, 1050, 19, 2255, -293, -518, 2701
0.233999, 1050, 19, 2255, -293, -518, 2701
0.234134, 1050, 19, 2255, -293, -518, 2701
0.234268, 1050, 19, 2255, -293, -518, 2701
0.234403, 1050, 19, 2255, -293, -518, 2701
0.234537, 963, 16, 2047, -650, -1193, 1698
0.234672, 963, 16, 2047, -650, -1193, 1698
0.234807, 963, 16, 2047, -650, -1193, 1698
0.234941, 963, 16, 2047, -650, -1193, 1698
0.235076, 963, 16, 2047, -650, -1193, 1698
0.235211, 963, 16, 2047, -650, -1193, 1698
0.235345, 963, 16, 2047, -650, -1193, 1698
0.235480, 322, 96, 1682, -804, -1590, 989
0.235615, 322, 96, 1682, -804, -1590, 989
0.235749, 322, 96, 1682, -804, -1590, 989
0.235884, 322, 96, 1682, -804, -1590, 989
0.236019, 322, 96, 1682, -804, -1590, 989
0.236153, 322, 96, 1682, -804, -1590, 989
0.236288, 322, 96, 1682, -804, -1590, 989
0.236423, 322, 96, 1682, -804, -1590, 989
0.236557, 1133, 376, 1363, -904, -1786, 522
0.236692, 1133, 376, 1363, -904, -1786, 522
0.236827, 1133, 376, 1363, -904, -1786, 522
0.236961, 1133, 376, 1363, -904, -1786, 522
0.237096, 1133, 376, 1363, -904, -1786, 522
0.237230, 1133, 376, 1363, -904, -1786, 522
0.237365, 1133, 376, 1363, -904, -1786, 522
0.237500, 2738, 404, 977, -1142, -1806, -615
0.237644, 2738, 404, 977, -1142, -1806, -615
0.237784, 2738, 404, 977, -1142, -1806, -615
0.237921, 2738, 404, 977, -1142, -1806, -615
0.238056, 2738, 404, 977, -1142, -1806, -615
0.238190, 2738, 404, 977, -1142, -1806, -615
0.238325, 2738, 404, 977, -1142, -1806, -615
0.238459, 2738, 404, 977, -1142, -1806, -615
0.238594, 3057, 327, 193, -1739, -1473, -2431
0.238729, 3057, 327, 193, -1739, -1473, -2431
0.238863, 3057, 327, 193, -1739, -1473, -2431
0.238998, 3057, 327, 193, -1739, -1473, -2431
0.239133, 3057, 327, 193, -1739, -1473, -2431
0.239267, 3057, 327, 193, -1739, -1473, -2431
0.239402, 3057, 327, 193, -1739, -1473, -2431
0.239536, 2250, 601, -387, -2766, -612, -3991
0.239671, 2250, 601, -387, -2766, -612, -3991
0.239806, 2250, 601, -387, -2766, -612, -3991
0.239940, 2250, 601, -387, -2766, -612, -3991
0.240075, 2250, 601, -387, -2766, -612, -3991
0.240210, 2250, 601, -387, -2766, -612, -3991
0.240345, 2250, 601, -387, -2766, -612, -3991
0.240480, 2250, 601, -387, -2766, -612, -3991
0.240614, 1613, 995, 35, -3843, 658, -4968
0.240749, 1613, 995, 35, -3843, 658, -4968
0.240884, 1613, 995, 35, -3843, 658, -4968
0.241018, 1613, 995, 35, -3843, 658, -4968
0.241153, 1613, 995, 35, -3843, 658, -4968
0.241288, 1613, 995, 35, -3843, 658, -4968
0.241422, 1613, 995, 35, -3843, 658, -4968
0.241557, 238, 369, 1786, -4258, 2048, -5434
0.241692, 238, 369, 1786, -4258, 2048, -5434
0.241826, 238, 369, 1786, -4258, 2048, -5434
0.241961, 238, 369, 1786, -4258, 2048, -5434
0.242095, 238, 369, 1786, -4258, 2048, -5434
0.242230, 238, 369, 1786, -4258, 2048, -5434
0.242365, 238, 369, 1786, -4258, 2048, -5434
0.242499, 238, 369, 1786, -4258, 2048, -5434
0.242634, -1650, -777, 3939, -3444, 3210, -4847
0.242769, -1650, -777, 3939, -3444, 3210, -4847
0.242903, -1650, -777, 3939, -3444, 3210, -4847
0.243038, -1650, -777, 3939, -3444, 3210, -4847
0.243173, -1650, -777, 3939, -3444, 3210, -4847
0.243307, -1650, -777, 3939, -3444, 3210, -4847
0.243442, -1650, -777, 3939, -3444, 3210, -4847
0.243576, -2418, -478, 4762, -1691, 3808, -3348
0.243711, -2418, -478, 4762, -1691, 3808, -3348
0.243846, -2418, -478, 4762, -1691, 3808, -3348
0.243980, -2418, -478, 4762, -1691, 3808, -3348
0.244115, -2418, -478, 4762, -1691, 3808, -3348
0.244249, -2418, -478, 4762, -1691, 3808, -3348
0.244384, -2418, -478, 4762, -1691, 3808, -3348
0.244519, -2418, -478, 4762, -1691, 3808, -3348
0.244653, -2928, 275, 3542, -295, 3642, -1712
0.244788, -2928, 275, 3542, -295, 3642, -1712
0.244923, -2928, 275, 3542, -295, 3642, -1712
0.245057, -2928, 275, 3542, -295, 3642, -1712
0.245192, -2928, 275, 3542, -295, 3642, -1712
0.245326, -2928, 275, 3542, -295, 3642, -1712
0.245461, -2928, 275, 3542, -295, 3642, -1712
0.245596, -2928, 275, 3542, -295, 3642, -1712
0.245730, -1933, 254, 2194, -67, 2697, -263
0.245865, -1933, 254, 2194, -67, 2697, -263
0.246000, -1933, 254, 2194, -67, 2697, -263
0.246134, -1933, 254, 2194, -67, 2697, -263
0.246269, -1933, 254, 2194, -67, 2697, -263
0.246403, -1933, 254, 2194, -67, 2697, -263
0.246538, -1933, 254, 2194, -67, 2697, -263
0.246672, -202, 150, 2525, -363, 1441, 194
0.246807, -202, 150, 2525, -363, 1441, 194
0.246942, -202, 150, 2525, -363, 1441, 194
0.247076, -202, 150, 2525, -363, 1441, 194
0.247211, -202, 150, 2525, -363, 1441, 194
0.247345, -202, 150, 2525, -363, 1441, 194
0.247480, -202, 150, 2525, -363, 1441, 194
0.247614, -202, 150, 2525, -363, 1441, 194
0.247749, -1235, -77, 3045, -401, 503, 130
0.247884, -1235, -77, 3045, -401, 503, 130
0.248018, -1235, -77, 3045, -401, 503, 130
0.248153, -1235, -77, 3045, -401, 503, 130
0.248287, -1235, -77, 3045, -401, 503, 130
0.248422, -1235, -77, 3045, -401, 503, 130
0.248557, -1235, -77, 3045, -401, 503, 130
0.248691, -2166, -173, 2720, -82, -109, 919
0.248826, -2166, -173, 2720, -82, -109, 919
0.248961, -2166, -173, 2720, -82, -109, 919
0.249095, -2166, -173, 2720, -82, -109, 919
0.249230, -2166, -173, 2720, -82, -109, 919
0.249365, -2166, -173, 2720, -82, -109, 919
0.249499, -2166, -173, 2720, -82, -109, 919
0.249634, -2166, -173, 2720, -82, -109, 919
0.249768, -1238, 62, 2214, 173, -584, 1871
0.249914, -1238, 62, 2214, 173, -584, 1871
0.250055, -1238, 62, 2214, 173, -584, 1871
0.250191, -1238, 62, 2214, 173, -584, 1871
0.250326, -1238, 62, 2214, 173, -584, 1871
0.250461, -1238, 62, 2214, 173, -584, 1871
0.250596, -1238, 62, 2214, 173, -584, 1871
0.250730, -354, 182, 1863, -26, -1053, 2197
0.250865, -354, 182, 1863, -26, -1053, 2197
0.251000, -354, 182, 1863, -26, -1053, 2197
0.251134, -354, 182, 1863, -26, -1053, 2197
0.251269, -354, 182, 1863, -26, -1053, 2197
0.251404, -354, 182, 1863, -26, -1053, 2197
0.251538, -354, 182, 1863, -26, -1053, 2197
0.251673, -354, 182, 1863, -26, -1053, 2197
0.251808, 592, 252, 1765, -442, -1520, 2073
0.251942, 592, 252, 1765, -442, -1520, 2073
0.252077, 592, 252, 1765, -442, -1520, 2073
0.252212, 592, 252, 1765, -442, -1520, 2073
0.252347, 592, 252, 1765, -442, -1520, 2073
0.252481, 592, 252, 1765, -442, -1520, 2073
0.252616, 592, 252, 1765, -442, -1520, 2073
0.252751, 2230, 475, 1677, -774, -1694, 1307
0.252885, 2230, 475, 1677, -774, -1694, 1307
0.253020, 2230, 475, 1677, -774, -1694, 1307
0.253155, 2230, 475, 1677, -774, -1694, 1307
0.253289, 2230, 475, 1677, -774, -1694, 1307
0.253424, 2230, 475, 1677, -774, -1694, 1307
0.253559, 2230, 475, 1677, -774, -1694, 1307
0.253693, 2230, 475, 1677, -774, -1694, 1307
0.253828, 3962, 734, 1574, -1063, -1454, -476
0.253963, 3962, 734, 1574, -1063, -1454, -476
0.254097, 3962, 734, 1574, -1063, -1454, -476
0.254232, 3962, 734, 1574, -1063, -1454, -476
0.254367, 3962, 734, 1574, -1063, -1454, -476
0.254501, 3962, 734, 1574, -1063, -1454, -476
0.254636, 3962, 734, 1574, -1063, -1454, -476
0.254771, 4224, 790, 1733, -1190, -714, -3008
0.254905, 4224, 790, 1733, -1190, -714, -3008
0.255040, 4224, 790, 1733, -1190, -714, -3008
0.255175, 4224, 790, 1733, -1190, -714, -3008
0.255309, 4224, 790, 1733, -1190, -714, -3008
0.255444, 4224, 790, 1733, -1190, -714, -3008
0.255578, 4224, 790, 1733, -1190, -714, -3008
0.255713, 4224, 790, 1733, -1190, -714, -3008
0.255848, 2073, 400, 1754, -1006, 489, -5118
0.255983, 2073, 400, 1754, -1006, 489, -5118
0.256117, 2073, 400, 1754, -1006, 489, -5118
0.256252, 2073, 400, 1754, -1006, 489, -5118
0.256387, 2073, 400, 1754, -1006, 489, -5118
0.256521, 2073, 400, 1754, -1006, 489, -5118
0.256656, 2073, 400, 1754, -1006, 489, -5118
0.256791, -613, 86, 1241, -785, 1716, -5584
0.256926, -613, 86, 1241, -785, 1716, -5584
0.257060, -613, 86, 1241, -785, 1716, -5584
0.257195, -613, 86, 1241, -785, 1716, -5584
0.257330, -613, 86, 1241, -785, 1716, -5584
0.257464, -613, 86, 1241, -785, 1716, -5584
0.257599, -613, 86, 1241, -785, 1716, -5584
0.257733, -613, 86, 1241, -785, 1716, -5584
0.257868, -749, 244, 1250, -770, 2639, -4857
0.258003, -749, 244, 1250, -770, 2639, -4857
0.258137, -749, 244, 1250, -770, 2639, -4857
0.258272, -749, 244, 1250, -770, 2639, -4857
0.258407, -749, 244, 1250, -770, 2639, -4857
0.258541, -749, 244, 1250, -770, 2639, -4857
0.258676, -749, 244, 1250, -770, 2639, -4857
0.258810, -263, 110, 2379, -682, 3259, -4390
0.258945, -263, 110, 2379, -682, 3259, -4390
0.259080, -263, 110, 2379, -682, 3259, -4390
0.259214, -263, 110, 2379, -682, 3259, -4390
0.259349, -263, 110, 2379, -682, 3259, -4390
0.259484, -263, 110, 2379, -682, 3259, -4390
0.259618, -263, 110, 2379, -682, 3259, -4390
0.259753, -263, 110, 2379, -682, 3259, -4390
0.259887, -1570, -173, 3026, -213, 3555, -3911
0.260022, -1570, -173, 3026, -213, 3555, -3911
0.260157, -1570, -173, 3026, -213, 3555, -3911
0.260292, -1570, -173, 3026, -213, 3555, -3911
0.260426, -1570, -173, 3026, -213, 3555, -3911
0.260561, -1570, -173, 3026, -213, 3555, -3911
0.260696, -1570, -173, 3026, -213, 3555, -3911
0.260830, -2702, -293, 2777, 299, 3426, -2658
0.260965, -2702, -293, 2777, 299, 3426, -2658
0.261100, -2702, -293, 2777, 299, 3426, -2658
0.261234, -2702, -293, 2777, 299, 3426, -2658
0.261369, -2702, -293, 2777, 299, 3426, -2658
0.261503, -2702, -293, 2777, 299, 3426, -2658
0.261638, -2702, -293, 2777, 299, 3426, -2658
0.261773, -2702, -293, 2777, 299, 3426, -2658
0.261907, -3121, -476, 2826, 636, 2841, -1006
0.262042, -3121, -476, 2826, 636, 2841, -1006
0.262191, -3121, -476, 2826, 636, 2841, -1006
0.262331, -3121, -476, 2826, 636, 2841, -1006
0.262468, -3121, -476, 2826, 636, 2841, -1006
0.262603, -3121, -476, 2826, 636, 2841, -1006
0.262738, -3121, -476, 2826, 636, 2841, -1006
0.262872, -3357, -404, 2938, 970, 1811, 774
0.263007, -3357, -404, 2938, 970, 1811, 774
0.263142, -3357, -404, 2938, 970, 1811, 774
0.263276, -3357, -404, 2938, 970, 1811, 774
0.263411, -3357, -404, 2938, 970, 1811, 774
0.263545, -3357, -404, 2938, 970, 1811, 774
0.263680, -3357, -404, 2938, 970, 1811, 774
0.263814, -3357, -404, 2938, 970, 1811, 774
0.263949, -2474, -108, 2411, 1090, 514, 2459
0.264084, -2474, -108, 2411, 1090, 514, 2459
0.264219, -2474, -108, 2411, 1090, 514, 2459
0.264354, -2474, -108, 2411, 1090, 514, 2459
0.264488, -2474, -108, 2411, 1090, 514, 2459
0.264623, -2474, -108, 2411, 1090, 514, 2459
0.264758, -2474, -108, 2411, 1090, 514, 2459
0.264892, 69, 192, 1789, 732, -747, 3232
0.265027, 69, 192, 1789, 732, -747, 3232
0.265162, 69, 192, 1789, 732, -747, 3232
0.265296, 69, 192, 1789, 732, -747, 3232
0.265431, 69, 192, 1789, 732, -747, 3232
0.265566, 69, 192, 1789, 732, -747, 3232
0.265700, 69, 192, 1789, 732, -747, 3232
0.265835, 69, 192, 1789, 732, -747, 3232
0.265969, 2988, 537, 1707, 120, -1646, 2294
0.266104, 2988, 537, 1707, 120, -1646, 2294
0.266239, 2988, 537, 1707, 120, -1646, 2294
0.266373, 2988, 537, 1707, 120, -1646, 2294
0.266508, 2988, 537, 1707, 120, -1646, 2294
0.266642, 2988, 537, 1707, 120, -1646, 2294
0.266777, 2988, 537, 1707, 120, -1646, 2294
0.266911, 3939, 501, 1679, -409, -1934, -58
0.267046, 3939, 501, 1679, -409, -1934, -58
0.267181, 3939, 501, 1679, -409, -1934, -58
0.267315, 3939, 501, 1679, -409, -1934, -58
0.267450, 3939, 501, 1679, -409, -1934, -58
0.267584, 3939, 501, 1679, -409, -1934, -58
0.267719, 3939, 501, 1679, -409, -1934, -58
0.267854, 3939, 501, 1679, -409, -1934, -58
0.267988, 2215, 136, 1693, -592, -1587, -2278
0.268123, 2215, 136, 1693, -592, -1587, -2278
0.268257, 2215, 136, 1693, -592, -1587, -2278
0.268392, 2215, 136, 1693, -592, -1587, -2278
0.268527, 2215, 136, 1693, -592, -1587, -2278
0.268661, 2215, 136, 1693, -592, -1587, -2278
0.268796, 2215, 136, 1693, -592, -1587, -2278
0.268930, 498, 155, 1940, -226, -842, -3165
0.269065, 498, 155, 1940, -226, -842, -3165
0.269199, 498, 155, 1940, -226, -842, -3165
0.269334, 498, 155, 1940, -226, -842, -3165
0.269468, 498, 155, 1940, -226, -842, -3165
0.269602, 498, 155, 1940, -226, -842, -3165
0.269737, 498, 155, 1940, -226, -842, -3165
0.269872, 498, 155, 1940, -226, -842, -3165
0.270006, 332, 212, 2084, 390, -60, -3288
0.270141, 332, 212, 2084, 390, -60, -3288
0.270276, 332, 212, 2084, 390, -60, -3288
0.270410, 332, 212, 2084, 390, -60, -3288
0.270545, 332, 212, 2084, 390, -60, -3288
0.270679, 332, 212, 2084, 390, -60, -3288
0.270814, 332, 212, 2084, 390, -60, -3288
0.270948, -246, 58, 1964, 866, 624, -3260
0.271083, -246, 58, 1964, 866, 624, -3260
0.271218, -246, 58, 1964, 866, 624, -3260
0.271352, -246, 58, 1964, 866, 624, -3260
0.271487, -246, 58, 1964, 866, 624, -3260
0.271622, -246, 58, 1964, 866, 624, -3260
0.271756, -246, 58, 1964, 866, 624, -3260
0.271891, -246, 58, 1964, 866, 624, -3260
0.272025, -989, -53, 1366, 859, 1229, -2729
0.272160, -989, -53, 1366, 859, 1229, -2729
0.272294, -989, -53, 1366, 859, 1229, -2729
0.272429, -989, -53, 1366, 859, 1229, -2729
0.272564, -989, -53, 1366, 859, 1229, -2729
0.272699, -989, -53, 1366, 859, 1229, -2729
0.272833, -989, -53, 1366, 859, 1229, -2729
0.272968, -676, 31, 1611, 478, 1680, -1989
0.273103, -676, 31, 1611, 478, 1680, -1989
0.273237, -676, 31, 1611, 478, 1680, -1989
0.273372, -676, 31, 1611, 478, 1680, -1989
0.273506, -676, 31, 1611, 478, 1680, -1989
0.273641, -676, 31, 1611, 478, 1680, -1989
0.273776, -676, 31, 1611, 478, 1680, -1989
0.273910, -676, 31, 1611, 478, 1680, -1989
0.274045, -672, 248, 2770, 462, 1975, -1588
0.274180, -672, 248, 2770, 462, 1975, -1588
0.274314, -672, 248, 2770, 462, 1975, -1588
0.274449, -672, 248, 2770, 462, 1975, -1588
0.274583, -672, 248, 2770, 462, 1975, -1588
0.274729, -672, 248, 2770, 462, 1975, -1588
0.274869, -672, 248, 2770, 462, 1975, -1588
0.275006, -1978, 79, 2865, 776, 2015, -997
0.275141, -1978, 79, 2865, 776, 2015, -997
0.275276, -1978, 79, 2865, 776, 2015, -997
0.275411, -1978, 79, 2865, 776, 2015, -997
0.275545, -1978, 79, 2865, 776, 2015, -997
0.275680, -1978, 79, 2865, 776, 2015, -997
0.275814, -1978, 79, 2865, 776, 2015, -997
0.275949, -1978, 79, 2865, 776, 2015, -997
0.276084, -3164, -257, 2358, 963, 1541, 396
0.276219, -3164, -257, 2358, 963, 1541, 396
0.276354, -3164, -257, 2358, 963, 1541, 396
0.276488, -3164, -257, 2358, 963, 1541, 396
0.276623, -3164, -257, 2358, 963, 1541, 396
0.276758, -3164, -257, 2358, 963, 1541, 396
0.276892, -3164, -257, 2358, 963, 1541, 396
0.277027, -3300, -312, 2188, 914, 601, 2172
0.277162, -3300, -312, 2188, 914, 601, 2172
0.277296, -3300, -312, 2188, 914, 601, 2172
0.277431, -3300, -312, 2188, 914, 601, 2172
0.277566, -3300, -312, 2188, 914, 601, 2172
0.277700, -3300, -312, 2188, 914, 601, 2172
0.277835, -3300, -312, 2188, 914, 601, 2172
0.277970, -3300, -312, 2188, 914, 601, 2172
0.278104, -3038, -191, 1978, 633, -602, 3922
0.278239, -3038, -191, 1978, 633, -602, 3922
0.278374, -3038, -191, 1978, 633, -602, 3922
0.278509, -3038, -191, 1978, 633, -602, 3922
0.278643, -3038, -191, 1978, 633, -602, 3922
0.278778, -3038, -191, 1978, 633, -602, 3922
0.278912, -3038, -191, 1978, 633, -602, 3922
0.279047, -1729, -14, 1939, 248, -1812, 5321
0.279182, -1729, -14, 1939, 248, -1812, 5321
0.279317, -1729, -14, 1939, 248, -1812, 5321
0.279451, -1729, -14, 1939, 248, -1812, 5321
0.279586, -1729, -14, 1939, 248, -1812, 5321
0.279721, -1729, -14, 1939, 248, -1812, 5321
0.279855, -1729, -14, 1939, 248, -1812, 5321
0.279990, -1729, -14, 1939, 248, -1812, 5321
0.280125, 80, 150, 2284, -69, -2698, 5741
0.280259, 80, 150, 2284, -69, -2698, 5741
0.280395, 80, 150, 2284, -69, -2698, 5741
0.280529, 80, 150, 2284, -69, -2698, 5741
0.280664, 80, 150, 2284, -69, -2698, 5741
0.280799, 80, 150, 2284, -69, -2698, 5741
0.280933, 80, 150, 2284, -69, -2698, 5741
0.281068, 80, 150, 2284, -69, -2698, 5741
0.281203, 1017, 256, 2626, -154, -3174, 5301
0.281338, 1017, 256, 2626, -154, -3174, 5301
0.281472, 1017, 256, 2626, -154, -3174, 5301
0.281607, 1017, 256, 2626, -154, -3174, 5301
0.281742, 1017, 256, 2626, -154, -3174, 5301
0.281876, 1017, 256, 2626, -154, -3174, 5301
0.282011, 1017, 256, 2626, -154, -3174, 5301
0.282146, 2622, 458, 3007, 147, -3242, 4329
0.282280, 2622, 458, 3007, 147, -3242, 4329
0.282415, 2622, 458, 3007, 147, -3242, 4329
0.282550, 2622, 458, 3007, 147, -3242, 4329
0.282684, 2622, 458, 3007, 147, -3242, 4329
0.282819, 2622, 458, 3007, 147, -3242, 4329
0.282954, 2622, 458, 3007, 147, -3242, 4329
0.283088, 2622, 458, 3007, 147, -3242, 4329
0.283223, 6819, 1226, 2856, 805, -2915, 1905
0.283358, 6819, 1226, 2856, 805, -2915, 1905
0.283492, 6819, 1226, 2856, 805, -2915, 1905
0.283627, 6819, 1226, 2856, 805, -2915, 1905
0.283762, 6819, 1226, 2856, 805, -2915, 1905
0.283896, 6819, 1226, 2856, 805, -2915, 1905
0.284031, 6819, 1226, 2856, 805, -2915, 1905
0.284166, 9523, 1441, 1678, 1117, -2084, -3094
0.284301, 9523, 1441, 1678, 1117, -2084, -3094
0.284436, 9523, 1441, 1678, 1117, -2084, -3094
0.284570, 9523, 1441, 1678, 1117, -2084, -3094
0.284705, 9523, 1441, 1678, 1117, -2084, -3094
0.284840, 9523, 1441, 1678, 1117, -2084, -3094
0.284974, 9523, 1441, 1678, 1117, -2084, -3094
0.285109, 9523, 1441, 1678, 1117, -2084, -3094
0.285243, 3038, -421, 779, 1027, -481, -7950
0.285378, 3038, -421, 779, 1027, -481, -7950
0.285513, 3038, -421, 779, 1027, -481, -7950
0.285648, 3038, -421, 779, 1027, -481, -7950
0.285782, 3038, -421, 779, 1027, -481, -7950
0.285917, 3038, -421, 779, 1027, -481, -7950
0.286052, 3038, -421, 779, 1027, -481, -7950
0.286186, -7282, -1709, 741, 1336, 1424, -7325
0.286321, -7282, -1709, 741, 1336, 1424, -7325
0.286456, -7282, -1709, 741, 1336, 1424, -7325
0.286591, -7282, -1709, 741, 1336, 1424, -7325
0.286725, -7282, -1709, 741, 1336, 1424, -7325
0.286860, -7282, -1709, 741, 1336, 1424, -7325
0.286995, -7282, -1709, 741, 1336, 1424, -7325
0.287140, -7282, -1709, 741, 1336, 1424, -7325
0.287281, -9323, -795, 1197, 1754, 2553, -1736
0.287419, -9323, -795, 1197, 1754, 2553, -1736
0.287554, -9323, -795, 1197, 1754, 2553, -1736
0.287689, -9323, -795, 1197, 1754, 2553, -1736
0.287824, -9323, -795, 1197, 1754, 2553, -1736
0.287958, -9323, -795, 1197, 1754, 2553, -1736
0.288093, -9323, -795, 1197, 1754, 2553, -1736
0.288227, -5031, -98, 1946, 1632, 2535, 3330
0.288363, -5031, -98, 1946, 1632, 2535, 3330
0.288497, -5031, -98, 1946, 1632, 2535, 3330
0.288632, -5031, -98, 1946, 1632, 2535, 3330
0.288766, -5031, -98, 1946, 1632, 2535, 3330
0.288901, -5031, -98, 1946, 1632, 2535, 3330
0.289036, -5031, -98, 1946, 1632, 2535, 3330
0.289170, -5031, -98, 1946, 1632, 2535, 3330
0.289305, -465, 75, 2475, 903, 1683, 5393
0.289440, -465, 75, 2475, 903, 1683, 5393
0.289574, -465, 75, 2475, 903, 1683, 5393
0.289709, -465, 75, 2475, 903, 1683, 5393
0.289843, -465, 75, 2475, 903, 1683, 5393
0.289978, -465, 75, 2475, 903, 1683, 5393
0.290113, -465, 75, 2475, 903, 1683, 5393
0.290247, 3072, 358, 2555, -92, 636, 4689
0.290382, 3072, 358, 2555, -92, 636, 4689
0.290517, 3072, 358, 2555, -92, 636, 4689
0.290651, 3072, 358, 2555, -92, 636, 4689
0.290786, 3072, 358, 2555, -92, 636, 4689
0.290921, 3072, 358, 2555, -92, 636, 4689
0.291055, 3072, 358, 2555, -92, 636, 4689
0.291190, 3072, 358, 2555, -92, 636, 4689
0.291324, 3736, 463, 2114, -911, -82, 2221
0.291459, 3736, 463, 2114, -911, -82, 2221
0.291594, 3736, 463, 2114, -911, -82, 2221
0.291728, 3736, 463, 2114, -911, -82, 2221
0.291863, 3736, 463, 2114, -911, -82, 2221
0.291998, 3736, 463, 2114, -911, -82, 2221
0.292132, 3736, 463, 2114, -911, -82, 2221
0.292267, 2217, 541, 1227, -1541, -588, -193
0.292402, 2217, 541, 1227, -1541, -588, -193
0.292537, 2217, 541, 1227, -1541, -588, -193
0.292672, 2217, 541, 1227, -1541, -588, -193
0.292806, 2217, 541, 1227, -1541, -588, -193
0.292941, 2217, 541, 1227, -1541, -588, -193
0.293075, 2217, 541, 1227, -1541, -588, -193
0.293210, 2217, 541, 1227, -1541, -588, -193
0.293345, -205, 170, 754, -2074, -908, -1417
0.293479, -205, 170, 754, -2074, -908, -1417
0.293614, -205, 170, 754, -2074, -908, -1417
0.293749, -205, 170, 754, -2074, -908, -1417
0.293883, -205, 170, 754, -2074, -908, -1417
0.294018, -205, 170, 754, -2074, -908, -1417
0.294153, -205, 170, 754, -2074, -908, -1417
0.294287, -2429, -248, 1034, -2257, -966, -911
0.294422, -2429, -248, 1034, -2257, -966, -911
0.294557, -2429, -248, 1034, -2257, -966, -911
0.294692, -2429, -248, 1034, -2257, -966, -911
0.294826, -2429, -248, 1034, -2257, -966, -911
0.294961, -2429, -248, 1034, -2257, -966, -911
0.295095, -2429, -248, 1034, -2257, -966, -911
0.295230, -2429, -248, 1034, -2257, -966, -911
0.295365, -1236, 149, 1497, -2074, -900, 564
0.295499, -1236, 149, 1497, -2074, -900, 564
0.295634, -1236, 149, 1497, -2074, -900, 564
0.295769, -1236, 149, 1497, -2074, -900, 564
0.295903, -1236, 149, 1497, -2074, -900, 564
0.296038, -1236, 149, 1497, -2074, -900, 564
0.296172, -1236, 149, 1497, -2074, -900, 564
0.296307, 1967, 575, 1750, -1961, -639, 794
0.296442, 1967, 575, 1750, -1961, -639, 794
0.296576, 1967, 575, 1750, -1961, -639, 794
0.296710, 1967, 575, 1750, -1961, -639, 794
0.296844, 1967, 575, 1750, -1961, -639, 794
0.296978, 1967, 575, 1750, -1961, -639, 794
0.297112, 1967, 575, 1750, -1961, -639, 794
0.297246, 1967, 575, 1750, -1961, -639, 794
0.297380, 3106, 541, 1580, -2193, 12, -571
0.297514, 3106, 541, 1580, -2193, 12, -571
0.297648, 3106, 541, 1580, -2193, 12, -571
0.297783, 3106, 541, 1580, -2193, 12, -571
0.297917, 3106, 541, 1580, -2193, 12, -571
0.298052, 3106, 541, 1580, -2193, 12, -571
0.298186, 3106, 541, 1580, -2193, 12, -571
0.298320, 2113, 346, 1783, -2500, 1042, -2063
0.298455, 2113, 346, 1783, -2500, 1042, -2063
0.298589, 2113, 346, 1783, -2500, 1042, -2063
0.298724, 2113, 346, 1783, -2500, 1042, -2063
0.298858, 2113, 346, 1783, -2500, 1042, -2063
0.298993, 2113, 346, 1783, -2500, 1042, -2063
0.299127, 2113, 346, 1783, -2500, 1042, -2063
0.299261, 2113, 346, 1783, -2500, 1042, -2063
0.299396, -250, 267, 1798, -2481, 2094, -2753
0.299541, -250, 267, 1798, -2481, 2094, -2753
0.299681, -250, 267, 1798, -2481, 2094, -2753
0.299817, -250, 267, 1798, -2481, 2094, -2753
0.299952, -250, 267, 1798, -2481, 2094, -2753
0.300087, -250, 267, 1798, -2481, 2094, -2753
0.300221, -250, 267, 1798, -2481, 2094, -2753
0.300356, -3131, -21, 1421, -2386, 2687, -1862
0.300491, -3131, -21, 1421, -2386, 2687, -1862
0.300625, -3131, -21, 1421, -2386, 2687, -1862
0.300760, -3131, -21, 1421, -2386, 2687, -1862
0.300894, -3131, -21, 1421, -2386, 2687, -1862
0.301029, -3131, -21, 1421, -2386, 2687, -1862
0.301164, -3131, -21, 1421, -2386, 2687, -1862
0.301298, -3131, -21, 1421, -2386, 2687, -1862
0.301433, -2010, -74, 2250, -2203, 2512, 159
0.301568, -2010, -74, 2250, -2203, 2512, 159
0.301702, -2010, -74, 2250, -2203, 2512, 159
0.301837, -2010, -74, 2250, -2203, 2512, 159
0.301971, -2010, -74, 2250, -2203, 2512, 159
0.302106, -2010, -74, 2250, -2203, 2512, 159
0.302240, -2010, -74, 2250, -2203, 2512, 159
0.302375, 2245, 384, 2820, -1990, 1840, 408
0.302510, 2245, 384, 2820, -1990, 1840, 408
0.302644, 2245, 384, 2820, -1990, 1840, 408
0.302779, 2245, 384, 2820, -1990, 1840, 408
0.302913, 2245, 384, 2820, -1990, 1840, 408
0.303048, 2245, 384, 2820, -1990, 1840, 408
0.303182, 2245, 384, 2820, -1990, 1840, 408
0.303317, 2245, 384, 2820, -1990, 1840, 408
0.303452, 1269, -263, 2750, -2058, 1459, -1168
0.303587, 1269, -263, 2750, -2058, 1459, -1168
0.303721, 1269, -263, 2750, -2058, 1459, -1168
0.303856, 1269, -263, 2750, -2058, 1459, -1168
0.303990, 1269, -263, 2750, -2058, 1459, -1168
0.304125, 1269, -263, 2750, -2058, 1459, -1168
0.304260, 1269, -263, 2750, -2058, 1459, -1168
0.304395, -1145, -40, 2322, -1872, 1337, -1386
0.304529, -1145, -40, 2322, -1872, 1337, -1386
0.304663, -1145, -40, 2322, -1872, 1337, -1386
0.304798, -1145, -40, 2322, -1872, 1337, -1386
0.304932, -1145, -40, 2322, -1872, 1337, -1386
0.305066, -1145, -40, 2322, -1872, 1337, -1386
0.305201, -1145, -40, 2322, -1872, 1337, -1386
0.305335, -1145, -40, 2322, -1872, 1337, -1386
0.305470, 972, 1323, 1259, -1859, 927, -1297
0.305604, 972, 1323, 1259, -1859, 927, -1297
0.305739, 972, 1323, 1259, -1859, 927, -1297
0.305873, 972, 1323, 1259, -1859, 927, -1297
0.306008, 972, 1323, 1259, -1859, 927, -1297
0.306142, 972, 1323, 1259, -1859, 927, -1297
0.306277, 972, 1323, 1259, -1859, 927, -1297
0.306411, 972, 1323, 1259, -1859, 927, -1297
0.306545, 1602, 618, 1787, -2183, 462, -2496
0.306680, 1602, 618, 1787, -2183, 462, -2496
0.306814, 1602, 618, 1787, -2183, 462, -2496
0.306949, 1602, 618, 1787, -2183, 462, -2496
0.307083, 1602, 618, 1787, -2183, 462, -2496
0.307218, 1602, 618, 1787, -2183, 462, -2496
0.307352, 1602, 618, 1787, -2183, 462, -2496
0.307486, 1307, 193, 2418, -1931, 335, -3334
0.307621, 1307, 193, 2418, -1931, 335, -3334
0.307755, 1307, 193, 2418, -1931, 335, -3334
0.307890, 1307, 193, 2418, -1931, 335, -3334
0.308024, 1307, 193, 2418, -1931, 335, -3334
0.308159, 1307, 193, 2418, -1931, 335, -3334
0.308293, 1307, 193, 2418, -1931, 335, -3334
0.308428, 1307, 193, 2418, -1931, 335, -3334
0.308562, 1197, 129, 2026, -1524, 579, -4088
0.308697, 1197, 129, 2026, -1524, 579, -4088
0.308831, 1197, 129, 2026, -1524, 579, -4088
0.308966, 1197, 129, 2026, -1524, 579, -4088
0.309100, 1197, 129, 2026, -1524, 579, -4088
0.309235, 1197, 129, 2026, -1524, 579, -4088
0.309369, 1197, 129, 2026, -1524, 579, -4088
0.309504, -4284, -1528, 2992, -825, 966, -3915
0.309638, -4284, -1528, 2992, -825, 966, -3915
0.309773, -4284, -1528, 2992, -825, 966, -3915
0.309907, -4284, -1528, 2992, -825, 966, -3915
0.310042, -4284, -1528, 2992, -825, 966, -3915
0.310176, -4284, -1528, 2992, -825, 966, -3915
0.310311, -4284, -1528, 2992, -825, 966, -3915
0.310445, -4284, -1528, 2992, -825, 966, -3915
0.310580, -9570, -1586, 3640, 605, 978, 157
0.310714, -9570, -1586, 3640, 605, 978, 157
0.310849, -9570, -1586, 3640, 605, 978, 157
0.310983, -9570, -1586, 3640, 605, 978, 157
0.311118, -9570, -1586, 3640, 605, 978, 157
0.311252, -9570, -1586, 3640, 605, 978, 157
0.311387, -9570, -1586, 3640, 605, 978, 157
0.311521, -5972, -111, 2800, 1458, 169, 5699
0.311670, -5972, -111, 2800, 1458, 169, 5699
0.311810, -5972, -111, 2800, 1458, 169, 5699
0.311948, -5972, -111, 2800, 1458, 169, 5699
0.312084, -5972, -111, 2800, 1458, 169, 5699
0.312218, -5972, -111, 2800, 1458, 169, 5699
0.312353, -5972, -111, 2800, 1458, 169, 5699
0.312488, -5972, -111, 2800, 1458, 169, 5699
0.312622, 12, 282, 2367, 1072, -1282, 7741
0.312757, 12, 282, 2367, 1072, -1282, 7741
0.312891, 12, 282, 2367, 1072, -1282, 7741
0.313026, 12, 282, 2367, 1072, -1282, 7741
0.313164, 12, 282, 2367, 1072, -1282, 7741
0.313294, 12, 282, 2367, 1072, -1282, 7741
0.313429, 12, 282, 2367, 1072, -1282, 7741
0.313564, 641, 91, 2404, 184, -2540, 7048
0.313699, 641, 91, 2404, 184, -2540, 7048
0.313833, 641, 91, 2404, 184, -2540, 7048
0.313968, 641, 91, 2404, 184, -2540, 7048
0.314102, 641, 91, 2404, 184, -2540, 7048
0.314237, 641, 91, 2404, 184, -2540, 7048
0.314371, 641, 91, 2404, 184, -2540, 7048
0.314506, 641, 91, 2404, 184, -2540, 7048
0.314641, -162, 95, 2209, -552, -3190, 6616
0.314775, -162, 95, 2209, -552, -3190, 6616
0.314910, -162, 95, 2209, -552, -3190, 6616
0.315045, -162, 95, 2209, -552, -3190, 6616
0.315179, -162, 95, 2209, -552, -3190, 6616
0.315313, -162, 95, 2209, -552, -3190, 6616
0.315448, -162, 95, 2209, -552, -3190, 6616
0.315583, 769, 181, 1853, -934, -3526, 6289
0.315717, 769, 181, 1853, -934, -3526, 6289
0.315852, 769, 181, 1853, -934, -3526, 6289
0.315987, 769, 181, 1853, -934, -3526, 6289
0.316121, 769, 181, 1853, -934, -3526, 6289
0.316256, 769, 181, 1853, -934, -3526, 6289
0.316391, 769, 181, 1853, -934, -3526, 6289
0.316526, 769, 181, 1853, -934, -3526, 6289
0.316660, 3182, 556, 1193, -1232, -3757, 5054
0.316795, 3182, 556, 1193, -1232, -3757, 5054
0.316930, 3182, 556, 1193, -1232, -3757, 5054
0.317064, 3182, 556, 1193, -1232, -3757, 5054
0.317199, 3182, 556, 1193, -1232, -3757, 5054
0.317333, 3182, 556, 1193, -1232, -3757, 5054
0.317468, 3182, 556, 1193, -1232, -3757, 5054
0.317602, 7494, 1360, 791, -1932, -3643, 2040
0.317737, 7494, 1360, 791, -1932, -3643, 2040
0.317872, 7494, 1360, 791, -1932, -3643, 2040
0.318006, 7494, 1360, 791, -1932, -3643, 2040
0.318141, 7494, 1360, 791, -1932, -3643, 2040
0.318276, 7494, 1360, 791, -1932, -3643, 2040
0.318410, 7494, 1360, 791, -1932, -3643, 2040
0.318545, 7494, 1360, 791, -1932, -3643, 2040
0.318679, 9324, 898, 3081, -2145, -2501, -3166
0.318814, 9324, 898, 3081, -2145, -2501, -3166
0.318949, 9324, 898, 3081, -2145, -2501, -3166
0.319083, 9324, 898, 3081, -2145, -2501, -3166
0.319218, 9324, 898, 3081, -2145, -2501, -3166
0.319352, 9324, 898, 3081, -2145, -2501, -3166
0.319487, 9324, 898, 3081, -2145, -2501, -3166
0.319621, 4113, -599, 4658, -537, -186, -7864
0.319756, 4113, -599, 4658, -537, -186, -7864
0.319891, 4113, -599, 4658, -537, -186, -7864
0.320025, 4113, -599, 4658, -537, -186, -7864
0.320160, 4113, -599, 4658, -537, -186, -7864
0.320295, 4113, -599, 4658, -537, -186, -7864
0.320430, 4113, -599, 4658, -537, -186, -7864
0.320564, 4113, -599, 4658, -537, -186, -7864
0.320699, -1914, -313, 1584, 1297, 2175, -8722
0.320834, -1914, -313, 1584, 1297, 2175, -8722
0.320968, -1914, -313, 1584, 1297, 2175, -8722
0.321103, -1914, -313, 1584, 1297, 2175, -8722
0.321239, -1914, -313, 1584, 1297, 2175, -8722
0.321376, -1914, -313, 1584, 1297, 2175, -8722
0.321512, -1914, -313, 1584, 1297, 2175, -8722
0.321647, -2717, 192, 567, 1787, 3552, -6983
0.321782, -2717, 192, 567, 1787, 3552, -6983
0.321916, -2717, 192, 567, 1787, 3552, -6983
0.322051, -2717, 192, 567, 1787, 3552, -6983
0.322185, -2717, 192, 567, 1787, 3552, -6983
0.322319, -2717, 192, 567, 1787, 3552, -6983
0.322454, -2717, 192, 567, 1787, 3552, -6983
0.322588, -2717, 192, 567, 1787, 3552, -6983
0.322722, -2280, -151, 2621, 2115, 4072, -5370
0.322857, -2280, -151, 2621, 2115, 4072, -5370
0.322991, -2280, -151, 2621, 2115, 4072, -5370
0.323126, -2280, -151, 2621, 2115, 4072, -5370
0.323260, -2280, -151, 2621, 2115, 4072, -5370
0.323395, -2280, -151, 2621, 2115, 4072, -5370
0.323529, -2280, -151, 2621, 2115, 4072, -5370
0.323664, -2945, 253, 2017, 2286, 4082, -3753
0.323798, -2945, 253, 2017, 2286, 4082, -3753
0.323947, -2945, 253, 2017, 2286, 4082, -3753
0.324088, -2945, 253, 2017, 2286, 4082, -3753
0.324225, -2945, 253, 2017, 2286, 4082, -3753
0.324361, -2945, 253, 2017, 2286, 4082, -3753
0.324496, -2945, 253, 2017, 2286, 4082, -3753
0.324630, -2945, 253, 2017, 2286, 4082, -3753
0.324765, -3472, 230, 1193, 1517, 3744, -1685
0.324900, -3472, 230, 1193, 1517, 3744, -1685
0.325034, -3472, 230, 1193, 1517, 3744, -1685
0.325169, -3472, 230, 1193, 1517, 3744, -1685
0.325303, -3472, 230, 1193, 1517, 3744, -1685
0.325438, -3472, 230, 1193, 1517, 3744, -1685
0.325572, -3472, 230, 1193, 1517, 3744, -1685
0.325707, -2359, -72, 2095, 721, 3102, 244
0.325842, -2359, -72, 2095, 721, 3102, 244
0.325976, -2359, -72, 2095, 721, 3102, 244
0.326111, -2359, -72, 2095, 721, 3102, 244
0.326245, -2359, -72, 2095, 721, 3102, 244
0.326380, -2359, -72, 2095, 721, 3102, 244
0.326515, -2359, -72, 2095, 721, 3102, 244
0.326649, -2359, -72, 2095, 721, 3102, 244
0.326784, 997, 274, 2531, 349, 1969, 820
0.326919, 997, 274, 2531, 349, 1969, 820
0.327053, 997, 274, 2531, 349, 1969, 820
0.327188, 997, 274, 2531, 349, 1969, 820
0.327322, 997, 274, 2531, 349, 1969, 820
0.327457, 997, 274, 2531, 349, 1969, 820
0.327591, 997, 274, 2531, 349, 1969, 820
0.327726, 3450, 677, 3051, 315, 720, -721
0.327861, 3450, 677, 3051, 315, 720, -721
0.327995, 3450, 677, 3051, 315, 720, -721
0.328130, 3450, 677, 3051, 315, 720, -721
0.328265, 3450, 677, 3051, 315, 720, -721
0.328399, 3450, 677, 3051, 315, 720, -721
0.328534, 3450, 677, 3051, 315, 720, -721
0.328669, 3450, 677, 3051, 315, 720, -721
0.328803, 876, 265, 2985, 782, 54, -2876
0.328938, 876, 265, 2985, 782, 54, -2876
0.329073, 876, 265, 2985, 782, 54, -2876
0.329207, 876, 265, 2985, 782, 54, -2876
0.329342, 876, 265, 2985, 782, 54, -2876
0.329476, 876, 265, 2985, 782, 54, -2876
0.329611, 876, 265, 2985, 782, 54, -2876
0.329746, -6379, -969, 1216, 1162, -229, -2156
0.329881, -6379, -969, 1216, 1162, -229, -2156
0.330015, -6379, -969, 1216, 1162, -229, -2156
0.330150, -6379, -969, 1216, 1162, -229, -2156
0.330284, -6379, -969, 1216, 1162, -229, -2156
0.330419, -6379, -969, 1216, 1162, -229, -2156
0.330554, -6379, -969, 1216, 1162, -229, -2156
0.330688, -6379, -969, 1216, 1162, -229, -2156
0.330823, -8543, -907, 622, 1057, -877, 2584
0.330958, -8543, -907, 622, 1057, -877, 2584
0.331093, -8543, -907, 622, 1057, -877, 2584
0.331227, -8543, -907, 622, 1057, -877, 2584
0.331362, -8543, -907, 622, 1057, -877, 2584
0.331496, -8543, -907, 622, 1057, -877, 2584
0.331631, -8543, -907, 622, 1057, -877, 2584
0.331765, -2532, 125, 2030, 816, -1866, 6677
0.331900, -2532, 125, 2030, 816, -1866, 6677
0.332035, -2532, 125, 2030, 816, -1866, 6677
0.332170, -2532, 125, 2030, 816, -1866, 6677
0.332304, -2532, 125, 2030, 816, -1866, 6677
0.332439, -2532, 125, 2030, 816, -1866, 6677
0.332574, -2532, 125, 2030, 816, -1866, 6677
0.332708, -2532, 125, 2030, 816, -1866, 6677
0.332843, 1022, 249, 2690, 473, -2601, 7091
0.332978, 1022, 249, 2690, 473, -2601, 7091
0.333113, 1022, 249, 2690, 473, -2601, 7091
0.333247, 1022, 249, 2690, 473, -2601, 7091
0.333382, 1022, 249, 2690, 473, -2601, 7091
0.333516, 1022, 249, 2690, 473, -2601, 7091
0.333651, 1022, 249, 2690, 473, -2601, 7091
0.333786, 309, 57, 2256, -58, -2717, 6493
0.333921, 309, 57, 2256, -58, -2717, 6493
0.334055, 309, 57, 2256, -58, -2717, 6493
0.334190, 309, 57, 2256, -58, -2717, 6493
0.334324, 309, 57, 2256, -58, -2717, 6493
0.334459, 309, 57, 2256, -58, -2717, 6493
0.334594, 309, 57, 2256, -58, -2717, 6493
0.334728, 309, 57, 2256, -58, -2717, 6493
0.334863, 647, 146, 2113, -483, -2335, 6296
0.334998, 647, 146, 2113, -483, -2335, 6296
0.335132, 647, 146, 2113, -483, -2335, 6296
0.335267, 647, 146, 2113, -483, -2335, 6296
0.335402, 647, 146, 2113, -483, -2335, 6296
0.335536, 647, 146, 2113, -483, -2335, 6296
0.335671, 647, 146, 2113, -483, -2335, 6296
0.335805, 647, 146, 2113, -483, -2335, 6296
0.335940, 2629, 385, 2155, -642, -2089, 5366
0.336075, 2629, 385, 2155, -642, -2089, 5366
0.336209, 2629, 385, 2155, -642, -2089, 5366
0.336345, 2629, 385, 2155, -642, -2089, 5366
0.336491, 2629, 385, 2155, -642, -2089, 5366
0.336632, 2629, 385, 2155, -642, -2089, 5366
0.336769, 2629, 385, 2155, -642, -2089, 5366
0.336903, 5897, 739, 1569, -818, -2041, 2868
0.337038, 5897, 739, 1569, -818, -2041, 2868
0.337173, 5897, 739, 1569, -818, -2041, 2868
0.337308, 5897, 739, 1569, -818, -2041, 2868
0.337442, 5897, 739, 1569, -818, -2041, 2868
0.337577, 5897, 739, 1569, -818, -2041, 2868
0.337711, 5897, 739, 1569, -818, -2041, 2868
0.337846, 8544, 747, 1200, -1356, -1418, -1549
0.337981, 8544, 747, 1200, -1356, -1418, -1549
0.338115, 8544, 747, 1200, -1356, -1418, -1549
0.338250, 8544, 747, 1200, -1356, -1418, -1549
0.338385, 8544, 747, 1200, -1356, -1418, -1549
0.338519, 8544, 747, 1200, -1356, -1418, -1549
0.338654, 8544, 747, 1200, -1356, -1418, -1549
0.338789, 8544, 747, 1200, -1356, -1418, -1549
0.338923, 7080, 623, 604, -2127, 174, -6755
0.339058, 7080, 623, 604, -2127, 174, -6755
0.339193, 7080, 623, 604, -2127, 174, -6755
0.339327, 7080, 623, 604, -2127, 174, -6755
0.339462, 7080, 623, 604, -2127, 174, -6755
0.339596, 7080, 623, 604, -2127, 174, -6755
0.339731, 7080, 623, 604, -2127, 174, -6755
0.339866, 1739, 118, 39, -2947, 2273, -10133
0.340000, 1739, 118, 39, -2947, 2273, -10133
0.340135, 1739, 118, 39, -2947, 2273, -10133
0.340270, 1739, 118, 39, -2947, 2273, -10133
0.340405, 1739, 118, 39, -2947, 2273, -10133
0.340540, 1739, 118, 39, -2947, 2273, -10133
0.340674, 1739, 118, 39, -2947, 2273, -10133
0.340809, 1739, 118, 39, -2947, 2273, -10133
0.340943, -2343, -329, 2048, -2699, 4041, -10256
0.341078, -2343, -329, 2048, -2699, 4041, -10256
0.341213, -2343, -329, 2048, -2699, 4041, -10256
0.341348, -2343, -329, 2048, -2699, 4041, -10256
0.341482, -2343, -329, 2048, -2699, 4041, -10256
0.341617, -2343, -329, 2048, -2699, 4041, -10256
0.341752, -2343, -329, 2048, -2699, 4041, -10256
0.341886, -2343, -329, 2048, -2699, 4041, -10256
0.342021, -3263, 3, 3108, -1151, 5110, -8421
0.342156, -3263, 3, 3108, -1151, 5110, -8421
0.342290, -3263, 3, 3108, -1151, 5110, -8421
0.342425, -3263, 3, 3108, -1151, 5110, -8421
0.342559, -3263, 3, 3108, -1151, 5110, -8421
0.342694, -3263, 3, 3108, -1151, 5110, -8421
0.342829, -3263, 3, 3108, -1151, 5110, -8421
0.342963, -3892, -303, 2435, -267, 5492, -6100
0.343098, -3892, -303, 2435, -267, 5492, -6100
0.343233, -3892, -303, 2435, -267, 5492, -6100
0.343367, -3892, -303, 2435, -267, 5492, -6100
0.343502, -3892, -303, 2435, -267, 5492, -6100
0.343637, -3892, -303, 2435, -267, 5492, -6100
0.343771, -3892, -303, 2435, -267, 5492, -6100
0.343906, -3892, -303, 2435, -267, 5492, -6100
0.344040, -5489, -776, 3083, 8, 5282, -3167
0.344175, -5489, -776, 3083, 8, 5282, -3167
0.344310, -5489, -776, 3083, 8, 5282, -3167
0.344445, -5489, -776, 3083, 8, 5282, -3167
0.344579, -5489, -776, 3083, 8, 5282, -3167
0.344714, -5489, -776, 3083, 8, 5282, -3167
0.344848, -5489, -776, 3083, 8, 5282, -3167
0.344983, -6566, -483, 2991, 357, 4537, 621
0.345118, -6566, -483, 2991, 357, 4537, 621
0.345252, -6566, -483, 2991, 357, 4537, 621
0.345387, -6566, -483, 2991, 357, 4537, 621
0.345522, -6566, -483, 2991, 357, 4537, 621
0.345656, -6566, -483, 2991, 357, 4537, 621
0.345791, -6566, -483, 2991, 357, 4537, 621
0.345925, -6566, -483, 2991, 357, 4537, 621
0.346060, -4067, 116, 2222, 225, 2871, 4153
0.346195, -4067, 116, 2222, 225, 2871, 4153
0.346330, -4067, 116, 2222, 225, 2871, 4153
0.346464, -4067, 116, 2222, 225, 2871, 4153
0.346599, -4067, 116, 2222, 225, 2871, 4153
0.346733, -4067, 116, 2222, 225, 2871, 4153
0.346868, -4067, 116, 2222, 225, 2871, 4153
0.347003, -452, 343, 2326, -322, 801, 5484
0.347137, -452, 343, 2326, -322, 801, 5484
0.347272, -452, 343, 2326, -322, 801, 5484
0.347407, -452, 343, 2326, -322, 801, 5484
0.347541, -452, 343, 2326, -322, 801, 5484
0.347676, -452, 343, 2326, -322, 801, 5484
0.347811, -452, 343, 2326, -322, 801, 5484
0.347945, -452, 343, 2326, -322, 801, 5484
0.348080, 256, 150, 2428, -873, -743, 5115
0.348215, 256, 150, 2428, -873, -743, 5115
0.348350, 256, 150, 2428, -873, -743, 5115
0.348484, 256, 150, 2428, -873, -743, 5115
0.348619, 256, 150, 2428, -873, -743, 5115
0.348764, 256, 150, 2428, -873, -743, 5115
0.348904, 256, 150, 2428, -873, -743, 5115
0.349041, 952, 193, 2172, -1143, -1851, 4627
0.349176, 952, 193, 2172, -1143, -1851, 4627
0.349311, 952, 193, 2172, -1143, -1851, 4627
0.349445, 952, 193, 2172, -1143, -1851, 4627
0.349580, 952, 193, 2172, -1143, -1851, 4627
0.349715, 952, 193, 2172, -1143, -1851, 4627
0.349850, 952, 193, 2172, -1143, -1851, 4627
0.349984, 952, 193, 2172, -1143, -1851, 4627
0.350119, 3267, 417, 1870, -1108, -2606, 3302
0.350254, 3267, 417, 1870, -1108, -2606, 3302
0.350388, 3267, 417, 1870, -1108, -2606, 3302
0.350523, 3267, 417, 1870, -1108, -2606, 3302
0.350658, 3267, 417, 1870, -1108, -2606, 3302
0.350792, 3267, 417, 1870, -1108, -2606, 3302
0.350927, 3267, 417, 1870, -1108, -2606, 3302
0.351062, 3965, 533, 1137, -1155, -2899, 759
0.351196, 3965, 533, 1137, -1155, -2899, 759
0.351331, 3965, 533, 1137, -1155, -2899, 759
0.351466, 3965, 533, 1137, -1155, -2899, 759
0.351600, 3965, 533, 1137, -1155, -2899, 759
0.351735, 3965, 533, 1137, -1155, -2899, 759
0.351870, 3965, 533, 1137, -1155, -2899, 759
0.352004, 3965, 533, 1137, -1155, -2899, 759
0.352139, 3257, 877, -163, -1695, -2582, -1592
0.352274, 3257, 877, -163, -1695, -2582, -1592
0.352409, 3257, 877, -163, -1695, -2582, -1592
0.352543, 3257, 877, -163, -1695, -2582, -1592
0.352677, 3257, 877, -163, -1695, -2582, -1592
0.352811, 3257, 877, -163, -1695, -2582, -1592
0.352945, 3257, 877, -163, -1695, -2582, -1592
0.353079, 4115, 1645, -1417, -2849, -1661, -3593
0.353213, 4115, 1645, -1417, -2849, -1661, -3593
0.353348, 4115, 1645, -1417, -2849, -1661, -3593
0.353482, 4115, 1645, -1417, -2849, -1661, -3593
0.353617, 4115, 1645, -1417, -2849, -1661, -3593
0.353751, 4115, 1645, -1417, -2849, -1661, -3593
0.353885, 4115, 1645, -1417, -2849, -1661, -3593
0.354020, 4115, 1645, -1417, -2849, -1661, -3593
0.354154, 4474, 1922, -1925, -4688, -270, -6093
0.354289, 4474, 1922, -1925, -4688, -270, -6093
0.354423, 4474, 1922, -1925, -4688, -270, -6093
0.354558, 4474, 1922, -1925, -4688, -270, -6093
0.354692, 4474, 1922, -1925, -4688, -270, -6093
0.354827, 4474, 1922, -1925, -4688, -270, -6093
0.354961, 4474, 1922, -1925, -4688, -270, -6093
0.355096, 1714, -45, 2106, -5773, 1632, -8037
0.355230, 1714, -45, 2106, -5773, 1632, -8037
0.355365, 1714, -45, 2106, -5773, 1632, -8037
0.355499, 1714, -45, 2106, -5773, 1632, -8037
0.355634, 1714, -45, 2106, -5773, 1632, -8037
0.355768, 1714, -45, 2106, -5773, 1632, -8037
0.355902, 1714, -45, 2106, -5773, 1632, -8037
0.356037, 1714, -45, 2106, -5773, 1632, -8037
0.356171, -3008, -2070, 8694, -2943, 3816, -7566
0.356306, -3008, -2070, 8694, -2943, 3816, -7566
0.356441, -3008, -2070, 8694, -2943, 3816, -7566
0.356575, -3008, -2070, 8694, -2943, 3816, -7566
0.356710, -3008, -2070, 8694, -2943, 3816, -7566
0.356844, -3008, -2070, 8694, -2943, 3816, -7566
0.356979, -3008, -2070, 8694, -2943, 3816, -7566
0.357113, -6361, -1110, 7730, 2373, 5212, -4403
0.357248, -6361, -1110, 7730, 2373, 5212, -4403
0.357382, -6361, -1110, 7730, 2373, 5212, -4403
0.357517, -6361, -1110, 7730, 2373, 5212, -4403
0.357651, -6361, -1110, 7730, 2373, 5212, -4403
0.357786, -6361, -1110, 7730, 2373, 5212, -4403
0.357920, -6361, -1110, 7730, 2373, 5212, -4403
0.358055, -6361, -1110, 7730, 2373, 5212, -4403
0.358190, -6606, -551, 1383, 4385, 4625, -204
0.358324, -6606, -551, 1383, 4385, 4625, -204
0.358459, -6606, -551, 1383, 4385, 4625, -204
0.358593, -6606, -551, 1383, 4385, 4625, -204
0.358728, -6606, -551, 1383, 4385, 4625, -204
0.358862, -6606, -551, 1383, 4385, 4625, -204
0.358997, -6606, -551, 1383, 4385, 4625, -204
0.359131, -4886, -884, -204, 2621, 2504, 3301
0.359266, -4886, -884, -204, 2621, 2504, 3301
0.359401, -4886, -884, -204, 2621, 2504, 3301
0.359535, -4886, -884, -204, 2621, 2504, 3301
0.359670, -4886, -884, -204, 2621, 2504, 3301
0.359804, -4886, -884, -204, 2621, 2504, 3301
0.359939, -4886, -884, -204, 2621, 2504, 3301
0.360073, -4886, -884, -204, 2621, 2504, 3301
0.360208, -1220, 78, 2226, 812, 223, 5096
0.360343, -1220, 78, 2226, 812, 223, 5096
0.360478, -1220, 78, 2226, 812, 223, 5096
0.360627, -1220, 78, 2226, 812, 223, 5096
0.360768, -1220, 78, 2226, 812, 223, 5096
0.360904, -1220, 78, 2226, 812, 223, 5096
0.361039, -1220, 78, 2226, 812, 223, 5096
0.361174, 2334, 747, 2847, 101, -1441, 4398
0.361308, 2334, 747, 2847, 101, -1441, 4398
0.361443, 2334, 747, 2847, 101, -1441, 4398
0.361578, 2334, 747, 2847, 101, -1441, 4398
0.361712, 2334, 747, 2847, 101, -1441, 4398
0.361846, 2334, 747, 2847, 101, -1441, 4398
0.361981, 2334, 747, 2847, 101, -1441, 4398
0.362115, 2334, 747, 2847, 101, -1441, 4398
0.362250, 2245, 475, 1929, -359, -2018, 2244
0.362384, 2245, 475, 1929, -359, -2018, 2244
0.362519, 2245, 475, 1929, -359, -2018, 2244
0.362653, 2245, 475, 1929, -359, -2018, 2244
0.362787, 2245, 475, 1929, -359, -2018, 2244
0.362922, 2245, 475, 1929, -359, -2018, 2244
0.363056, 2245, 475, 1929, -359, -2018, 2244
0.363191, -819, -99, 1741, -830, -1701, 1143
0.363325, -819, -99, 1741, -830, -1701, 1143
0.363460, -819, -99, 1741, -830, -1701, 1143
0.363594, -819, -99, 1741, -830, -1701, 1143
0.363729, -819, -99, 1741, -830, -1701, 1143
0.363863, -819, -99, 1741, -830, -1701, 1143
0.363998, -819, -99, 1741, -830, -1701, 1143
