Time, ax, ay, az, gx, gy, gz
0.000051, 136, 271, 2114, -2460, -697, 7010
0.000219, 136, 271, 2114, -2460, -697, 7010
0.000358, 136, 271, 2114, -2460, -697, 7010
0.000495, 136, 271, 2114, -2460, -697, 7010
0.000634, 136, 271, 2114, -2460, -697, 7010
0.000771, 136, 271, 2114, -2460, -697, 7010
0.000908, 136, 271, 2114, -2460, -697, 7010
0.001045, 201, 225, 1976, -2772, -592, 6890
0.001183, 201, 225, 1976, -2772, -592, 6890
0.001316, 201, 225, 1976, -2772, -592, 6890
0.001452, 201, 225, 1976, -2772, -592, 6890
0.001589, 201, 225, 1976, -2772, -592, 6890
0.001726, 201, 225, 1976, -2772, -592, 6890
0.001858, 201, 225, 1976, -2772, -592, 6890
0.001994, 753, 190, 2117, -2789, -1188, 6410
0.002132, 753, 190, 2117, -2789, -1188, 6410
0.002268, 753, 190, 2117, -2789, -1188, 6410
0.002405, 753, 190, 2117, -2789, -1188, 6410
0.002542, 753, 190, 2117, -2789, -1188, 6410
0.002679, 753, 190, 2117, -2789, -1188, 6410
0.002816, 753, 190, 2117, -2789, -1188, 6410
0.002952, 753, 190, 2117, -2789, -1188, 6410
0.003089, 1556, 59, 2109, -2650, -2252, 5468
0.003226, 1556, 59, 2109, -2650, -2252, 5468
0.003363, 1556, 59, 2109, -2650, -2252, 5468
0.003500, 1556, 59, 2109, -2650, -2252, 5468
0.003637, 1556, 59, 2109, -2650, -2252, 5468
0.003773, 1556, 59, 2109, -2650, -2252, 5468
0.003910, 1556, 59, 2109, -2650, -2252, 5468
0.004047, 2184, -25, 2197, -2434, -2858, 4116
0.004184, 2184, -25, 2197, -2434, -2858, 4116
0.004321, 2184, -25, 2197, -2434, -2858, 4116
0.004457, 2184, -25, 2197, -2434, -2858, 4116
0.004594, 2184, -25, 2197, -2434, -2858, 4116
0.004733, 2184, -25, 2197, -2434, -2858, 4116
0.004870, 2184, -25, 2197, -2434, -2858, 4116
0.005007, 2697, -10, 2122, -2292, -2477, 2574
0.005144, 2697, -10, 2122, -2292, -2477, 2574
0.005282, 2697, -10, 2122, -2292, -2477, 2574
0.005422, 2697, -10, 2122, -2292, -2477, 2574
0.005559, 2697, -10, 2122, -2292, -2477, 2574
0.005696, 2697, -10, 2122, -2292, -2477, 2574
0.005833, 2697, -10, 2122, -2292, -2477, 2574
0.005969, 2697, -10, 2122, -2292, -2477, 2574
0.006106, 4610, 33, 2256, -2209, -1667, 560
0.006243, 4610, 33, 2256, -2209, -1667, 560
0.006380, 4610, 33, 2256, -2209, -1667, 560
0.006520, 4610, 33, 2256, -2209, -1667, 560
0.006653, 4610, 33, 2256, -2209, -1667, 560
0.006790, 4610, 33, 2256, -2209, -1667, 560
0.006927, 4610, 33, 2256, -2209, -1667, 560
0.007063, 6376, 40, 2642, -1863, -633, -2813
0.007201, 6376, 40, 2642, -1863, -633, -2813
0.007337, 6376, 40, 2642, -1863, -633, -2813
0.007474, 6376, 40, 2642, -1863, -633, -2813
0.007611, 6376, 40, 2642, -1863, -633, -2813
0.007748, 6376, 40, 2642, -1863, -633, -2813
0.007884, 6376, 40, 2642, -1863, -633, -2813
0.008021, 6376, 40, 2642, -1863, -633, -2813
0.008158, 2906, -253, 2162, -1419, 1069, -6231
0.008295, 2906, -253, 2162, -1419, 1069, -6231
0.008432, 2906, -253, 2162, -1419, 1069, -6231
0.008569, 2906, -253, 2162, -1419, 1069, -6231
0.008707, 2906, -253, 2162, -1419, 1069, -6231
0.008844, 2906, -253, 2162, -1419, 1069, -6231
0.008980, 2906, -253, 2162, -1419, 1069, -6231
0.009117, -2625, -291, 2384, -808, 2931, -6578
0.009254, -2625, -291, 2384, -808, 2931, -6578
0.009391, -2625, -291, 2384, -808, 2931, -6578
0.009528, -2625, -291, 2384, -808, 2931, -6578
0.009665, -2625, -291, 2384, -808, 2931, -6578
0.009801, -2625, -291, 2384, -808, 2931, -6578
0.009938, -2625, -291, 2384, -808, 2931, -6578
0.010075, -2509, 395, 3249, 496, 3888, -4637
0.010212, -2509, 395, 3249, 496, 3888, -4637
0.010349, -2509, 395, 3249, 496, 3888, -4637
0.010485, -2509, 395, 3249, 496, 3888, -4637
0.010622, -2509, 395, 3249, 496, 3888, -4637
0.010759, -2509, 395, 3249, 496, 3888, -4637
0.010896, -2509, 395, 3249, 496, 3888, -4637
0.011032, -2509, 395, 3249, 496, 3888, -4637
0.011169, -553, 814, 2238, 1408, 4090, -3543
0.011306, -553, 814, 2238, 1408, 4090, -3543
0.011443, -553, 814, 2238, 1408, 4090, -3543
0.011580, -553, 814, 2238, 1408, 4090, -3543
0.011717, -553, 814, 2238, 1408, 4090, -3543
0.011853, -553, 814, 2238, 1408, 4090, -3543
0.011990, -553, 814, 2238, 1408, 4090, -3543
0.012127, -507, 643, 1042, 990, 3829, -3209
0.012264, -507, 643, 1042, 990, 3829, -3209
0.012436, -507, 643, 1042, 990, 3829, -3209
0.012581, -507, 643, 1042, 990, 3829, -3209
0.012719, -507, 643, 1042, 990, 3829, -3209
0.012856, -507, 643, 1042, 990, 3829, -3209
0.012992, -507, 643, 1042, 990, 3829, -3209
0.013129, -694, 421, 1069, 13, 3224, -2777
0.013266, -694, 421, 1069, 13, 3224, -2777
0.013403, -694, 421, 1069, 13, 3224, -2777
0.013540, -694, 421, 1069, 13, 3224, -2777
0.013677, -694, 421, 1069, 13, 3224, -2777
0.013813, -694, 421, 1069, 13, 3224, -2777
0.013950, -694, 421, 1069, 13, 3224, -2777
0.014087, -694, 421, 1069, 13, 3224, -2777
0.014224, -2188, 329, 1615, -703, 2785, -1997
0.014361, -2188, 329, 1615, -703, 2785, -1997
0.014497, -2188, 329, 1615, -703, 2785, -1997
0.014634, -2188, 329, 1615, -703, 2785, -1997
0.014771, -2188, 329, 1615, -703, 2785, -1997
0.014908, -2188, 329, 1615, -703, 2785, -1997
0.015045, -2188, 329, 1615, -703, 2785, -1997
0.015181, -3540, 403, 1841, -852, 2189, -255
0.015318, -3540, 403, 1841, -852, 2189, -255
0.015455, -3540, 403, 1841, -852, 2189, -255
0.015592, -3540, 403, 1841, -852, 2189, -255
0.015728, -3540, 403, 1841, -852, 2189, -255
0.015865, -3540, 403, 1841, -852, 2189, -255
0.016002, -3540, 403, 1841, -852, 2189, -255
0.016139, -3540, 403, 1841, -852, 2189, -255
0.016275, -2648, 525, 1545, -1001, 1160, 1796
0.016412, -2648, 525, 1545, -1001, 1160, 1796
0.016549, -2648, 525, 1545, -1001, 1160, 1796
0.016686, -2648, 525, 1545, -1001, 1160, 1796
0.016823, -2648, 525, 1545, -1001, 1160, 1796
0.016960, -2648, 525, 1545, -1001, 1160, 1796
0.017097, -2648, 525, 1545, -1001, 1160, 1796
0.017233, -876, 476, 1790, -1520, 14, 2994
0.017370, -876, 476, 1790, -1520, 14, 2994
0.017503, -876, 476, 1790, -1520, 14, 2994
0.017641, -876, 476, 1790, -1520, 14, 2994
0.017779, -876, 476, 1790, -1520, 14, 2994
0.017916, -876, 476, 1790, -1520, 14, 2994
0.018052, -876, 476, 1790, -1520, 14, 2994
0.018189, 441, 366, 2206, -1933, -1000, 3175
0.018326, 441, 366, 2206, -1933, -1000, 3175
0.018463, 441, 366, 2206, -1933, -1000, 3175
0.018600, 441, 366, 2206, -1933, -1000, 3175
0.018737, 441, 366, 2206, -1933, -1000, 3175
0.018875, 441, 366, 2206, -1933, -1000, 3175
0.019014, 441, 366, 2206, -1933, -1000, 3175
0.019151, 441, 366, 2206, -1933, -1000, 3175
0.019288, 1531, 359, 2227, -2070, -1525, 2624
0.019425, 1531, 359, 2227, -2070, -1525, 2624
0.019562, 1531, 359, 2227, -2070, -1525, 2624
0.019698, 1531, 359, 2227, -2070, -1525, 2624
0.019835, 1531, 359, 2227, -2070, -1525, 2624
0.019972, 1531, 359, 2227, -2070, -1525, 2624
0.020109, 1531, 359, 2227, -2070, -1525, 2624
0.020245, 2399, 342, 2280, -2017, -1480, 1399
0.020382, 2399, 342, 2280, -2017, -1480, 1399
0.020519, 2399, 342, 2280, -2017, -1480, 1399
0.020656, 2399, 342, 2280, -2017, -1480, 1399
0.020793, 2399, 342, 2280, -2017, -1480, 1399
0.020930, 2399, 342, 2280, -2017, -1480, 1399
0.021067, 2399, 342, 2280, -2017, -1480, 1399
0.021204, 2399, 342, 2280, -2017, -1480, 1399
0.021341, 1734, 258, 2265, -1770, -909, -63
0.021477, 1734, 258, 2265, -1770, -909, -63
0.021614, 1734, 258, 2265, -1770, -909, -63
0.021751, 1734, 258, 2265, -1770, -909, -63
0.021888, 1734, 258, 2265, -1770, -909, -63
0.022024, 1734, 258, 2265, -1770, -909, -63
0.022161, 1734, 258, 2265, -1770, -909, -63
0.022298, 108, 224, 2062, -1458, 38, -758
0.022435, 108, 224, 2062, -1458, 38, -758
0.022572, 108, 224, 2062, -1458, 38, -758
0.022708, 108, 224, 2062, -1458, 38, -758
0.022845, 108, 224, 2062, -1458, 38, -758
0.022982, 108, 224, 2062, -1458, 38, -758
0.023119, 108, 224, 2062, -1458, 38, -758
0.023255, -90, 374, 2289, -1120, 898, -661
0.023392, -90, 374, 2289, -1120, 898, -661
0.023529, -90, 374, 2289, -1120, 898, -661
0.023666, -90, 374, 2289, -1120, 898, -661
0.023803, -90, 374, 2289, -1120, 898, -661
0.023939, -90, 374, 2289, -1120, 898, -661
0.024076, -90, 374, 2289, -1120, 898, -661
0.024213, -90, 374, 2289, -1120, 898, -661
0.024350, 834, 623, 2928, -608, 1498, -793
0.024487, 834, 623, 2928, -608, 1498, -793
0.024624, 834, 623, 2928, -608, 1498, -793
0.024761, 834, 623, 2928, -608, 1498, -793
0.024897, 834, 623, 2928, -608, 1498, -793
0.025034, 834, 623, 2928, -608, 1498, -793
0.025180, 834, 623, 2928, -608, 1498, -793
0.025318, 66, 384, 2890, -75, 2014, -1295
0.025455, 66, 384, 2890, -75, 2014, -1295
0.025592, 66, 384, 2890, -75, 2014, -1295
0.025728, 66, 384, 2890, -75, 2014, -1295
0.025865, 66, 384, 2890, -75, 2014, -1295
0.026002, 66, 384, 2890, -75, 2014, -1295
0.026139, 66, 384, 2890, -75, 2014, -1295
0.026276, 66, 384, 2890, -75, 2014, -1295
0.026412, -2891, -70, 1928, 140, 2397, -744
0.026549, -2891, -70, 1928, 140, 2397, -744
0.026686, -2891, -70, 1928, 140, 2397, -744
0.026823, -2891, -70, 1928, 140, 2397, -744
0.026960, -2891, -70, 1928, 140, 2397, -744
0.027097, -2891, -70, 1928, 140, 2397, -744
0.027233, -2891, -70, 1928, 140, 2397, -744
0.027370, -3940, 203, 1004, -145, 2201, 1426
0.027507, -3940, 203, 1004, -145, 2201, 1426
0.027644, -3940, 203, 1004, -145, 2201, 1426
0.027781, -3940, 203, 1004, -145, 2201, 1426
0.027918, -3940, 203, 1004, -145, 2201, 1426
0.028054, -3940, 203, 1004, -145, 2201, 1426
0.028191, -3940, 203, 1004, -145, 2201, 1426
0.028328, -2314, 545, 998, -916, 1316, 3408
0.028465, -2314, 545, 998, -916, 1316, 3408
0.028607, -2314, 545, 998, -916, 1316, 3408
0.028744, -2314, 545, 998, -916, 1316, 3408
0.028881, -2314, 545, 998, -916, 1316, 3408
0.029018, -2314, 545, 998, -916, 1316, 3408
0.029154, -2314, 545, 998, -916, 1316, 3408
0.029291, -2314, 545, 998, -916, 1316, 3408
0.029428, -1606, 405, 1612, -1783, 290, 4405
0.029565, -1606, 405, 1612, -1783, 290, 4405
0.029702, -1606, 405, 1612, -1783, 290, 4405
0.029838, -1606, 405, 1612, -1783, 290, 4405
0.029975, -1606, 405, 1612, -1783, 290, 4405
0.030112, -1606, 405, 1612, -1783, 290, 4405
0.030249, -1606, 405, 1612, -1783, 290, 4405
0.030386, -1362, 300, 1955, -2398, -490, 5288
0.030523, -1362, 300, 1955, -2398, -490, 5288
0.030659, -1362, 300, 1955, -2398, -490, 5288
0.030796, -1362, 300, 1955, -2398, -490, 5288
0.030933, -1362, 300, 1955, -2398, -490, 5288
0.031070, -1362, 300, 1955, -2398, -490, 5288
0.031207, -1362, 300, 1955, -2398, -490, 5288
0.031344, -1362, 300, 1955, -2398, -490, 5288
0.031480, -453, 301, 2046, -2763, -985, 5927
0.031617, -453, 301, 2046, -2763, -985, 5927
0.031754, -453, 301, 2046, -2763, -985, 5927
0.031891, -453, 301, 2046, -2763, -985, 5927
0.032028, -453, 301, 2046, -2763, -985, 5927
0.032165, -453, 301, 2046, -2763, -985, 5927
0.032301, -453, 301, 2046, -2763, -985, 5927
0.032438, 233, 265, 2125, -2936, -1317, 5954
0.032575, 233, 265, 2125, -2936, -1317, 5954
0.032713, 233, 265, 2125, -2936, -1317, 5954
0.032849, 233, 265, 2125, -2936, -1317, 5954
0.032986, 233, 265, 2125, -2936, -1317, 5954
0.033123, 233, 265, 2125, -2936, -1317, 5954
0.033260, 233, 265, 2125, -2936, -1317, 5954
0.033397, 923, 220, 2136, -2973, -1617, 5569
0.033534, 923, 220, 2136, -2973, -1617, 5569
0.033671, 923, 220, 2136, -2973, -1617, 5569
0.033807, 923, 220, 2136, -2973, -1617, 5569
0.033944, 923, 220, 2136, -2973, -1617, 5569
0.034081, 923, 220, 2136, -2973, -1617, 5569
0.034218, 923, 220, 2136, -2973, -1617, 5569
0.034354, 923, 220, 2136, -2973, -1617, 5569
0.034491, 1987, 231, 2178, -2930, -1753, 4724
0.034628, 1987, 231, 2178, -2930, -1753, 4724
0.034765, 1987, 231, 2178, -2930, -1753, 4724
0.034902, 1987, 231, 2178, -2930, -1753, 4724
0.035039, 1987, 231, 2178, -2930, -1753, 4724
0.035175, 1987, 231, 2178, -2930, -1753, 4724
0.035312, 1987, 231, 2178, -2930, -1753, 4724
0.035449, 4068, 372, 2557, -2729, -1591, 3069
0.035586, 4068, 372, 2557, -2729, -1591, 3069
0.035723, 4068, 372, 2557, -2729, -1591, 3069
0.035859, 4068, 372, 2557, -2729, -1591, 3069
0.035996, 4068, 372, 2557, -2729, -1591, 3069
0.036133, 4068, 372, 2557, -2729, -1591, 3069
0.036270, 4068, 372, 2557, -2729, -1591, 3069
0.036406, 4068, 372, 2557, -2729, -1591, 3069
0.036543, 6601, 258, 3278, -2154, -1058, -45
0.036681, 6601, 258, 3278, -2154, -1058, -45
0.036818, 6601, 258, 3278, -2154, -1058, -45
0.036954, 6601, 258, 3278, -2154, -1058, -45
0.037091, 6601, 258, 3278, -2154, -1058, -45
0.037228, 6601, 258, 3278, -2154, -1058, -45
0.037365, 6601, 258, 3278, -2154, -1058, -45
0.037501, 6576, 19, 4023, -1024, 51, -4269
0.037643, 6576, 19, 4023, -1024, 51, -4269
0.037780, 6576, 19, 4023, -1024, 51, -4269
0.037917, 6576, 19, 4023, -1024, 51, -4269
0.038054, 6576, 19, 4023, -1024, 51, -4269
0.038191, 6576, 19, 4023, -1024, 51, -4269
0.038328, 6576, 19, 4023, -1024, 51, -4269
0.038464, 3613, 304, 4616, 827, 1709, -7698
0.038601, 3613, 304, 4616, 827, 1709, -7698
0.038738, 3613, 304, 4616, 827, 1709, -7698
0.038875, 3613, 304, 4616, 827, 1709, -7698
0.039012, 3613, 304, 4616, 827, 1709, -7698
0.039149, 3613, 304, 4616, 827, 1709, -7698
0.039286, 3613, 304, 4616, 827, 1709, -7698
0.039423, 3613, 304, 4616, 827, 1709, -7698
0.039559, 1228, 255, 4357, 3171, 3384, -9287
0.039696, 1228, 255, 4357, 3171, 3384, -9287
0.039833, 1228, 255, 4357, 3171, 3384, -9287
0.039970, 1228, 255, 4357, 3171, 3384, -9287
0.040107, 1228, 255, 4357, 3171, 3384, -9287
0.040244, 1228, 255, 4357, 3171, 3384, -9287
0.040380, 1228, 255, 4357, 3171, 3384, -9287
0.040517, 325, -451, 2575, 4940, 4387, -9843
0.040655, 325, -451, 2575, 4940, 4387, -9843
0.040791, 325, -451, 2575, 4940, 4387, -9843
0.040928, 325, -451, 2575, 4940, 4387, -9843
0.041065, 325, -451, 2575, 4940, 4387, -9843
0.041202, 325, -451, 2575, 4940, 4387, -9843
0.041338, 325, -451, 2575, 4940, 4387, -9843
0.041475, 325, -451, 2575, 4940, 4387, -9843
0.041612, -1009, -184, 1331, 5455, 4490, -9931
0.041749, -1009, -184, 1331, 5455, 4490, -9931
0.041886, -1009, -184, 1331, 5455, 4490, -9931
0.042022, -1009, -184, 1331, 5455, 4490, -9931
0.042159, -1009, -184, 1331, 5455, 4490, -9931
0.042296, -1009, -184, 1331, 5455, 4490, -9931
0.042433, -1009, -184, 1331, 5455, 4490, -9931
0.042569, -2899, 776, 1891, 5377, 4268, -8906
0.042706, -2899, 776, 1891, 5377, 4268, -8906
0.042843, -2899, 776, 1891, 5377, 4268, -8906
0.042980, -2899, 776, 1891, 5377, 4268, -8906
0.043116, -2899, 776, 1891, 5377, 4268, -8906
0.043253, -2899, 776, 1891, 5377, 4268, -8906
0.043390, -2899, 776, 1891, 5377, 4268, -8906
0.043527, -3694, 632, 1527, 5149, 4101, -6745
0.043664, -3694, 632, 1527, 5149, 4101, -6745
0.043800, -3694, 632, 1527, 5149, 4101, -6745
0.043937, -3694, 632, 1527, 5149, 4101, -6745
0.044074, -3694, 632, 1527, 5149, 4101, -6745
0.044211, -3694, 632, 1527, 5149, 4101, -6745
0.044347, -3694, 632, 1527, 5149, 4101, -6745
0.044484, -3694, 632, 1527, 5149, 4101, -6745
0.044621, -3414, 97, -500, 4096, 3503, -4458
0.044758, -3414, 97, -500, 4096, 3503, -4458
0.044895, -3414, 97, -500, 4096, 3503, -4458
0.045032, -3414, 97, -500, 4096, 3503, -4458
0.045169, -3414, 97, -500, 4096, 3503, -4458
0.045306, -3414, 97, -500, 4096, 3503, -4458
0.045442, -3414, 97, -500, 4096, 3503, -4458
0.045579, -4815, 190, -1395, 1907, 2375, -2126
0.045716, -4815, 190, -1395, 1907, 2375, -2126
0.045853, -4815, 190, -1395, 1907, 2375, -2126
0.045990, -4815, 190, -1395, 1907, 2375, -2126
0.046126, -4815, 190, -1395, 1907, 2375, -2126
0.046263, -4815, 190, -1395, 1907, 2375, -2126
0.046400, -4815, 190, -1395, 1907, 2375, -2126
0.046537, -4815, 190, -1395, 1907, 2375, -2126
0.046673, -6151, 374, 33, -306, 1042, 1278
0.046810, -6151, 374, 33, -306, 1042, 1278
0.046947, -6151, 374, 33, -306, 1042, 1278
0.047084, -6151, 374, 33, -306, 1042, 1278
0.047221, -6151, 374, 33, -306, 1042, 1278
0.047357, -6151, 374, 33, -306, 1042, 1278
0.047494, -6151, 374, 33, -306, 1042, 1278
0.047631, -3835, 327, 1557, -1463, -505, 4805
0.047768, -3835, 327, 1557, -1463, -505, 4805
0.047905, -3835, 327, 1557, -1463, -505, 4805
0.048042, -3835, 327, 1557, -1463, -505, 4805
0.048178, -3835, 327, 1557, -1463, -505, 4805
0.048315, -3835, 327, 1557, -1463, -505, 4805
0.048452, -3835, 327, 1557, -1463, -505, 4805
0.048589, -414, 287, 2094, -1902, -1952, 6317
0.048726, -414, 287, 2094, -1902, -1952, 6317
0.048862, -414, 287, 2094, -1902, -1952, 6317
0.048999, -414, 287, 2094, -1902, -1952, 6317
0.049136, -414, 287, 2094, -1902, -1952, 6317
0.049273, -414, 287, 2094, -1902, -1952, 6317
0.049410, -414, 287, 2094, -1902, -1952, 6317
0.049546, -414, 287, 2094, -1902, -1952, 6317
0.049683, 1068, 317, 2400, -2215, -2827, 6110
0.049820, 1068, 317, 2400, -2215, -2827, 6110
0.049957, 1068, 317, 2400, -2215, -2827, 6110
0.050097, 1068, 317, 2400, -2215, -2827, 6110
0.050235, 1068, 317, 2400, -2215, -2827, 6110
0.050371, 1068, 317, 2400, -2215, -2827, 6110
0.050508, 1068, 317, 2400, -2215, -2827, 6110
0.050645, 2076, 325, 2607, -2307, -3184, 5325
0.050781, 2076, 325, 2607, -2307, -3184, 5325
0.050918, 2076, 325, 2607, -2307, -3184, 5325
0.051054, 2076, 325, 2607, -2307, -3184, 5325
0.051191, 2076, 325, 2607, -2307, -3184, 5325
0.051328, 2076, 325, 2607, -2307, -3184, 5325
0.051464, 2076, 325, 2607, -2307, -3184, 5325
0.051601, 2076, 325, 2607, -2307, -3184, 5325
0.051738, 3353, 347, 2940, -1917, -3184, 3742
0.051874, 3353, 347, 2940, -1917, -3184, 3742
0.052011, 3353, 347, 2940, -1917, -3184, 3742
0.052148, 3353, 347, 2940, -1917, -3184, 3742
0.052284, 3353, 347, 2940, -1917, -3184, 3742
0.052421, 3353, 347, 2940, -1917, -3184, 3742
0.052557, 3353, 347, 2940, -1917, -3184, 3742
0.052694, 3792, 516, 3546, -972, -2679, 1425
0.052831, 3792, 516, 3546, -972, -2679, 1425
0.052968, 3792, 516, 3546, -972, -2679, 1425
0.053105, 3792, 516, 3546, -972, -2679, 1425
0.053241, 3792, 516, 3546, -972, -2679, 1425
0.053378, 3792, 516, 3546, -972, -2679, 1425
0.053515, 3792, 516, 3546, -972, -2679, 1425
0.053652, 3792, 516, 3546, -972, -2679, 1425
0.053787, 3540, 462, 3925, 368, -1591, -934
0.053922, 3540, 462, 3925, 368, -1591, -934
0.054057, 3540, 462, 3925, 368, -1591, -934
0.054191, 3540, 462, 3925, 368, -1591, -934
0.054326, 3540, 462, 3925, 368, -1591, -934
0.054460, 3540, 462, 3925, 368, -1591, -934
0.054595, 3540, 462, 3925, 368, -1591, -934
0.054730, 2132, 161, 3284, 1718, -86, -2863
0.054865, 2132, 161, 3284, 1718, -86, -2863
0.054999, 2132, 161, 3284, 1718, -86, -2863
0.055134, 2132, 161, 3284, 1718, -86, -2863
0.055269, 2132, 161, 3284, 1718, -86, -2863
0.055403, 2132, 161, 3284, 1718, -86, -2863
0.055538, 2132, 161, 3284, 1718, -86, -2863
0.055672, 2132, 161, 3284, 1718, -86, -2863
0.055807, -256, 254, 1378, 2321, 1448, -3609
0.055942, -256, 254, 1378, 2321, 1448, -3609
0.056076, -256, 254, 1378, 2321, 1448, -3609
0.056211, -256, 254, 1378, 2321, 1448, -3609
0.056346, -256, 254, 1378, 2321, 1448, -3609
0.056480, -256, 254, 1378, 2321, 1448, -3609
0.056616, -256, 254, 1378, 2321, 1448, -3609
0.056750, -2154, 174, 411, 1841, 2551, -3045
0.056884, -2154, 174, 411, 1841, 2551, -3045
0.057018, -2154, 174, 411, 1841, 2551, -3045
0.057153, -2154, 174, 411, 1841, 2551, -3045
0.057287, -2154, 174, 411, 1841, 2551, -3045
0.057421, -2154, 174, 411, 1841, 2551, -3045
0.057556, -2154, 174, 411, 1841, 2551, -3045
0.057690, -2154, 174, 411, 1841, 2551, -3045
0.057825, -2415, -143, 1130, 1094, 3036, -1706
0.057959, -2415, -143, 1130, 1094, 3036, -1706
0.058094, -2415, -143, 1130, 1094, 3036, -1706
0.058228, -2415, -143, 1130, 1094, 3036, -1706
0.058362, -2415, -143, 1130, 1094, 3036, -1706
0.058497, -2415, -143, 1130, 1094, 3036, -1706
0.058631, -2415, -143, 1130, 1094, 3036, -1706
0.058766, -199, 111, 846, 263, 2803, -726
0.058901, -199, 111, 846, 263, 2803, -726
0.059035, -199, 111, 846, 263, 2803, -726
0.059169, -199, 111, 846, 263, 2803, -726
0.059304, -199, 111, 846, 263, 2803, -726
0.059438, -199, 111, 846, 263, 2803, -726
0.059573, -199, 111, 846, 263, 2803, -726
0.059707, -199, 111, 846, 263, 2803, -726
0.059842, 861, 374, 787, -1011, 2145, -1252
0.059976, 861, 374, 787, -1011, 2145, -1252
0.060111, 861, 374, 787, -1011, 2145, -1252
0.060245, 861, 374, 787, -1011, 2145, -1252
0.060379, 861, 374, 787, -1011, 2145, -1252
0.060514, 861, 374, 787, -1011, 2145, -1252
0.060649, 861, 374, 787, -1011, 2145, -1252
0.060783, -2884, 158, 1935, -1931, 1818, -1345
0.060918, -2884, 158, 1935, -1931, 1818, -1345
0.061053, -2884, 158, 1935, -1931, 1818, -1345
0.061188, -2884, 158, 1935, -1931, 1818, -1345
0.061322, -2884, 158, 1935, -1931, 1818, -1345
0.061457, -2884, 158, 1935, -1931, 1818, -1345
0.061592, -2884, 158, 1935, -1931, 1818, -1345
0.061726, -2884, 158, 1935, -1931, 1818, -1345
0.061861, -6110, 146, 1850, -2085, 1604, 1343
0.061996, -6110, 146, 1850, -2085, 1604, 1343
0.062130, -6110, 146, 1850, -2085, 1604, 1343
0.062265, -6110, 146, 1850, -2085, 1604, 1343
0.062408, -6110, 146, 1850, -2085, 1604, 1343
0.062543, -6110, 146, 1850, -2085, 1604, 1343
0.062678, -6110, 146, 1850, -2085, 1604, 1343
0.062812, -4037, 327, 1351, -2213, 505, 4839
0.062947, -4037, 327, 1351, -2213, 505, 4839
0.063082, -4037, 327, 1351, -2213, 505, 4839
0.063217, -4037, 327, 1351, -2213, 505, 4839
0.063351, -4037, 327, 1351, -2213, 505, 4839
0.063486, -4037, 327, 1351, -2213, 505, 4839
0.063620, -4037, 327, 1351, -2213, 505, 4839
0.063755, -4037, 327, 1351, -2213, 505, 4839
0.063889, -590, 321, 1905, -2624, -1179, 6310
0.064024, -590, 321, 1905, -2624, -1179, 6310
0.064159, -590, 321, 1905, -2624, -1179, 6310
0.064293, -590, 321, 1905, -2624, -1179, 6310
0.064428, -590, 321, 1905, -2624, -1179, 6310
0.064562, -590, 321, 1905, -2624, -1179, 6310
0.064698, -590, 321, 1905, -2624, -1179, 6310
0.064832, 298, 282, 2307, -3111, -2350, 6272
0.064967, 298, 282, 2307, -3111, -2350, 6272
0.065102, 298, 282, 2307, -3111, -2350, 6272
0.065236, 298, 282, 2307, -3111, -2350, 6272
0.065371, 298, 282, 2307, -3111, -2350, 6272
0.065505, 298, 282, 2307, -3111, -2350, 6272
0.065640, 298, 282, 2307, -3111, -2350, 6272
0.065775, 298, 282, 2307, -3111, -2350, 6272
0.065909, 93, 250, 2122, -3481, -2736, 6226
0.066044, 93, 250, 2122, -3481, -2736, 6226
0.066179, 93, 250, 2122, -3481, -2736, 6226
0.066313, 93, 250, 2122, -3481, -2736, 6226
0.066448, 93, 250, 2122, -3481, -2736, 6226
0.066582, 93, 250, 2122, -3481, -2736, 6226
0.066717, 93, 250, 2122, -3481, -2736, 6226
0.066852, 320, 224, 2061, -3579, -2490, 6187
0.066986, 320, 224, 2061, -3579, -2490, 6187
0.067121, 320, 224, 2061, -3579, -2490, 6187
0.067256, 320, 224, 2061, -3579, -2490, 6187
0.067390, 320, 224, 2061, -3579, -2490, 6187
0.067525, 320, 224, 2061, -3579, -2490, 6187
0.067659, 320, 224, 2061, -3579, -2490, 6187
0.067794, 320, 224, 2061, -3579, -2490, 6187
0.067929, 565, 213, 2112, -3499, -1855, 5900
0.068064, 565, 213, 2112, -3499, -1855, 5900
0.068198, 565, 213, 2112, -3499, -1855, 5900
0.068333, 565, 213, 2112, -3499, -1855, 5900
0.068467, 565, 213, 2112, -3499, -1855, 5900
0.068606, 565, 213, 2112, -3499, -1855, 5900
0.068741, 565, 213, 2112, -3499, -1855, 5900
0.068876, 860, 201, 2131, -3419, -1198, 5466
0.069010, 860, 201, 2131, -3419, -1198, 5466
0.069145, 860, 201, 2131, -3419, -1198, 5466
0.069280, 860, 201, 2131, -3419, -1198, 5466
0.069414, 860, 201, 2131, -3419, -1198, 5466
0.069549, 860, 201, 2131, -3419, -1198, 5466
0.069684, 860, 201, 2131, -3419, -1198, 5466
0.069818, 860, 201, 2131, -3419, -1198, 5466
0.069953, 1364, 208, 2186, -3378, -520, 4803
0.070088, 1364, 208, 2186, -3378, -520, 4803
0.070222, 1364, 208, 2186, -3378, -520, 4803
0.070357, 1364, 208, 2186, -3378, -520, 4803
0.070492, 1364, 208, 2186, -3378, -520, 4803
0.070627, 1364, 208, 2186, -3378, -520, 4803
0.070761, 1364, 208, 2186, -3378, -520, 4803
0.070896, 1880, 224, 2233, -3341, 308, 3773
0.071031, 1880, 224, 2233, -3341, 308, 3773
0.071165, 1880, 224, 2233, -3341, 308, 3773
0.071300, 1880, 224, 2233, -3341, 308, 3773
0.071435, 1880, 224, 2233, -3341, 308, 3773
0.071569, 1880, 224, 2233, -3341, 308, 3773
0.071699, 1880, 224, 2233, -3341, 308, 3773
0.071833, 1880, 224, 2233, -3341, 308, 3773
0.071968, 2054, 231, 2207, -3288, 1134, 2465
0.072103, 2054, 231, 2207, -3288, 1134, 2465
0.072238, 2054, 231, 2207, -3288, 1134, 2465
0.072372, 2054, 231, 2207, -3288, 1134, 2465
0.072507, 2054, 231, 2207, -3288, 1134, 2465
0.072642, 2054, 231, 2207, -3288, 1134, 2465
0.072777, 2054, 231, 2207, -3288, 1134, 2465
0.072912, 2054, 231, 2207, -3288, 1134, 2465
0.073046, 2203, 285, 2107, -3224, 1784, 1077
0.073181, 2203, 285, 2107, -3224, 1784, 1077
0.073316, 2203, 285, 2107, -3224, 1784, 1077
0.073450, 2203, 285, 2107, -3224, 1784, 1077
0.073585, 2203, 285, 2107, -3224, 1784, 1077
0.073719, 2203, 285, 2107, -3224, 1784, 1077
0.073854, 2203, 285, 2107, -3224, 1784, 1077
0.073989, 2321, 220, 2068, -3175, 2220, -421
0.074124, 2321, 220, 2068, -3175, 2220, -421
0.074258, 2321, 220, 2068, -3175, 2220, -421
0.074393, 2321, 220, 2068, -3175, 2220, -421
0.074528, 2321, 220, 2068, -3175, 2220, -421
0.074667, 2321, 220, 2068, -3175, 2220, -421
0.074802, 2321, 220, 2068, -3175, 2220, -421
0.074936, 2321, 220, 2068, -3175, 2220, -421
0.075071, 2065, -4, 2407, -3017, 2487, -1888
0.075206, 2065, -4, 2407, -3017, 2487, -1888
0.075340, 2065, -4, 2407, -3017, 2487, -1888
0.075472, 2065, -4, 2407, -3017, 2487, -1888
0.075610, 2065, -4, 2407, -3017, 2487, -1888
0.075748, 2065, -4, 2407, -3017, 2487, -1888
0.075883, 2065, -4, 2407, -3017, 2487, -1888
0.076017, 3633, 207, 3151, -2460, 2541, -3426
0.076152, 3633, 207, 3151, -2460, 2541, -3426
0.076287, 3633, 207, 3151, -2460, 2541, -3426
0.076422, 3633, 207, 3151, -2460, 2541, -3426
0.076556, 3633, 207, 3151, -2460, 2541, -3426
0.076691, 3633, 207, 3151, -2460, 2541, -3426
0.076823, 3633, 207, 3151, -2460, 2541, -3426
0.076953, 3633, 207, 3151, -2460, 2541, -3426
0.077088, 6618, 748, 3742, -1387, 2507, -6358
0.077223, 6618, 748, 3742, -1387, 2507, -6358
0.077358, 6618, 748, 3742, -1387, 2507, -6358
0.077492, 6618, 748, 3742, -1387, 2507, -6358
0.077627, 6618, 748, 3742, -1387, 2507, -6358
0.077762, 6618, 748, 3742, -1387, 2507, -6358
0.077891, 6618, 748, 3742, -1387, 2507, -6358
0.078026, 4683, 121, 3393, -140, 2881, -10395
0.078161, 4683, 121, 3393, -140, 2881, -10395
0.078295, 4683, 121, 3393, -140, 2881, -10395
0.078430, 4683, 121, 3393, -140, 2881, -10395
0.078565, 4683, 121, 3393, -140, 2881, -10395
0.078699, 4683, 121, 3393, -140, 2881, -10395
0.078834, 4683, 121, 3393, -140, 2881, -10395
0.078968, 4683, 121, 3393, -140, 2881, -10395
0.079103, -3391, -1118, 1909, 820, 3648, -11637
0.079238, -3391, -1118, 1909, 820, 3648, -11637
0.079372, -3391, -1118, 1909, 820, 3648, -11637
0.079507, -3391, -1118, 1909, 820, 3648, -11637
0.079642, -3391, -1118, 1909, 820, 3648, -11637
0.079776, -3391, -1118, 1909, 820, 3648, -11637
0.079911, -3391, -1118, 1909, 820, 3648, -11637
0.080045, -8012, -443, 859, 1363, 3877, -8103
0.080181, -8012, -443, 859, 1363, 3877, -8103
0.080315, -8012, -443, 859, 1363, 3877, -8103
0.080450, -8012, -443, 859, 1363, 3877, -8103
0.080584, -8012, -443, 859, 1363, 3877, -8103
0.080720, -8012, -443, 859, 1363, 3877, -8103
0.080854, -8012, -443, 859, 1363, 3877, -8103
0.080989, -8012, -443, 859, 1363, 3877, -8103
0.081124, -4656, 809, 2075, 1610, 3141, -3691
0.081258, -4656, 809, 2075, 1610, 3141, -3691
0.081393, -4656, 809, 2075, 1610, 3141, -3691
0.081528, -4656, 809, 2075, 1610, 3141, -3691
0.081662, -4656, 809, 2075, 1610, 3141, -3691
0.081797, -4656, 809, 2075, 1610, 3141, -3691
0.081932, -4656, 809, 2075, 1610, 3141, -3691
0.082066, -119, 633, 3552, 1887, 2162, -2038
0.082201, -119, 633, 3552, 1887, 2162, -2038
0.082336, -119, 633, 3552, 1887, 2162, -2038
0.082470, -119, 633, 3552, 1887, 2162, -2038
0.082605, -119, 633, 3552, 1887, 2162, -2038
0.082739, -119, 633, 3552, 1887, 2162, -2038
0.082874, -119, 633, 3552, 1887, 2162, -2038
0.083009, -119, 633, 3552, 1887, 2162, -2038
0.083143, 1686, 269, 2391, 1830, 1444, -2429
0.083276, 1686, 269, 2391, 1830, 1444, -2429
0.083411, 1686, 269, 2391, 1830, 1444, -2429
0.083546, 1686, 269, 2391, 1830, 1444, -2429
0.083682, 1686, 269, 2391, 1830, 1444, -2429
0.083817, 1686, 269, 2391, 1830, 1444, -2429
0.083952, 1686, 269, 2391, 1830, 1444, -2429
0.084087, 824, 365, 534, 879, 1029, -3212
0.084227, 824, 365, 534, 879, 1029, -3212
0.084366, 824, 365, 534, 879, 1029, -3212
0.084502, 824, 365, 534, 879, 1029, -3212
0.084640, 824, 365, 534, 879, 1029, -3212
0.084779, 824, 365, 534, 879, 1029, -3212
0.084911, 824, 365, 534, 879, 1029, -3212
0.085046, 824, 365, 534, 879, 1029, -3212
0.085182, -1302, 453, 619, -210, 785, -3227
0.085317, -1302, 453, 619, -210, 785, -3227
0.085452, -1302, 453, 619, -210, 785, -3227
0.085587, -1302, 453, 619, -210, 785, -3227
0.085721, -1302, 453, 619, -210, 785, -3227
0.085856, -1302, 453, 619, -210, 785, -3227
0.085991, -1302, 453, 619, -210, 785, -3227
0.086125, -1645, 322, 1553, -560, 364, -2333
0.086260, -1645, 322, 1553, -560, 364, -2333
0.086395, -1645, 322, 1553, -560, 364, -2333
0.086529, -1645, 322, 1553, -560, 364, -2333
0.086664, -1645, 322, 1553, -560, 364, -2333
0.086813, -1645, 322, 1553, -560, 364, -2333
0.086952, -1645, 322, 1553, -560, 364, -2333
0.087086, -1645, 322, 1553, -560, 364, -2333
0.087221, -51, 265, 1982, -416, -181, -1688
0.087356, -51, 265, 1982, -416, -181, -1688
0.087491, -51, 265, 1982, -416, -181, -1688
0.087625, -51, 265, 1982, -416, -181, -1688
0.087760, -51, 265, 1982, -416, -181, -1688
0.087895, -51, 265, 1982, -416, -181, -1688
0.088029, -51, 265, 1982, -416, -181, -1688
0.088164, 2002, 490, 2396, -304, -456, -2061
0.088299, 2002, 490, 2396, -304, -456, -2061
0.088433, 2002, 490, 2396, -304, -456, -2061
0.088568, 2002, 490, 2396, -304, -456, -2061
0.088704, 2002, 490, 2396, -304, -456, -2061
0.088838, 2002, 490, 2396, -304, -456, -2061
0.088972, 2002, 490, 2396, -304, -456, -2061
0.089106, 2002, 490, 2396, -304, -456, -2061
0.089240, 3262, 703, 3178, -65, -149, -3539
0.089374, 3262, 703, 3178, -65, -149, -3539
0.089509, 3262, 703, 3178, -65, -149, -3539
0.089643, 3262, 703, 3178, -65, -149, -3539
0.089778, 3262, 703, 3178, -65, -149, -3539
0.089912, 3262, 703, 3178, -65, -149, -3539
0.090046, 3262, 703, 3178, -65, -149, -3539
0.090181, 1068, 264, 3380, 651, 846, -5239
0.090315, 1068, 264, 3380, 651, 846, -5239
0.090450, 1068, 264, 3380, 651, 846, -5239
0.090584, 1068, 264, 3380, 651, 846, -5239
0.090719, 1068, 264, 3380, 651, 846, -5239
0.090857, 1068, 264, 3380, 651, 846, -5239
0.090987, 1068, 264, 3380, 651, 846, -5239
0.091123, 1068, 264, 3380, 651, 846, -5239
0.091259, -3900, -397, 1750, 1319, 1929, -4868
0.091393, -3900, -397, 1750, 1319, 1929, -4868
0.091528, -3900, -397, 1750, 1319, 1929, -4868
0.091662, -3900, -397, 1750, 1319, 1929, -4868
0.091797, -3900, -397, 1750, 1319, 1929, -4868
0.091931, -3900, -397, 1750, 1319, 1929, -4868
0.092066, -3900, -397, 1750, 1319, 1929, -4868
0.092200, -5460, -25, -47, 998, 2040, -1908
0.092335, -5460, -25, -47, 998, 2040, -1908
0.092469, -5460, -25, -47, 998, 2040, -1908
0.092604, -5460, -25, -47, 998, 2040, -1908
0.092740, -5460, -25, -47, 998, 2040, -1908
0.092874, -5460, -25, -47, 998, 2040, -1908
0.093009, -5460, -25, -47, 998, 2040, -1908
0.093144, -5460, -25, -47, 998, 2040, -1908
0.093278, -2038, 677, 553, -123, 1169, 684
0.093413, -2038, 677, 553, -123, 1169, 684
0.093548, -2038, 677, 553, -123, 1169, 684
0.093683, -2038, 677, 553, -123, 1169, 684
0.093817, -2038, 677, 553, -123, 1169, 684
0.093952, -2038, 677, 553, -123, 1169, 684
0.094086, -2038, 677, 553, -123, 1169, 684
0.094221, 1245, 609, 2363, -1065, 338, 861
0.094356, 1245, 609, 2363, -1065, 338, 861
0.094491, 1245, 609, 2363, -1065, 338, 861
0.094625, 1245, 609, 2363, -1065, 338, 861
0.094760, 1245, 609, 2363, -1065, 338, 861
0.094895, 1245, 609, 2363, -1065, 338, 861
0.095029, 1245, 609, 2363, -1065, 338, 861
0.095164, 1245, 609, 2363, -1065, 338, 861
0.095298, 1469, 218, 3148, -1312, 133, -215
0.095433, 1469, 218, 3148, -1312, 133, -215
0.095568, 1469, 218, 3148, -1312, 133, -215
0.095703, 1469, 218, 3148, -1312, 133, -215
0.095837, 1469, 218, 3148, -1312, 133, -215
0.095972, 1469, 218, 3148, -1312, 133, -215
0.096106, 1469, 218, 3148, -1312, 133, -215
0.096241, 277, 56, 2723, -1037, 408, -913
0.096376, 277, 56, 2723, -1037, 408, -913
0.096511, 277, 56, 2723, -1037, 408, -913
0.096646, 277, 56, 2723, -1037, 408, -913
0.096780, 277, 56, 2723, -1037, 408, -913
0.096915, 277, 56, 2723, -1037, 408, -913
0.097050, 277, 56, 2723, -1037, 408, -913
0.097184, 277, 56, 2723, -1037, 408, -913
0.097319, -279, 119, 2040, -698, 578, -1077
0.097454, -279, 119, 2040, -698, 578, -1077
0.097588, -279, 119, 2040, -698, 578, -1077
0.097723, -279, 119, 2040, -698, 578, -1077
0.097858, -279, 119, 2040, -698, 578, -1077
0.097992, -279, 119, 2040, -698, 578, -1077
0.098127, -279, 119, 2040, -698, 578, -1077
0.098262, -342, 191, 1482, -626, 178, -1129
0.098396, -342, 191, 1482, -626, 178, -1129
0.098531, -342, 191, 1482, -626, 178, -1129
0.098666, -342, 191, 1482, -626, 178, -1129
0.098800, -342, 191, 1482, -626, 178, -1129
0.098935, -342, 191, 1482, -626, 178, -1129
0.099069, -342, 191, 1482, -626, 178, -1129
0.099204, -342, 191, 1482, -626, 178, -1129
0.099345, -237, 50, 1242, -947, -450, -1076
0.099481, -237, 50, 1242, -947, -450, -1076
0.099616, -237, 50, 1242, -947, -450, -1076
0.099750, -237, 50, 1242, -947, -450, -1076
0.099885, -237, 50, 1242, -947, -450, -1076
0.100019, -237, 50, 1242, -947, -450, -1076
0.100154, -237, 50, 1242, -947, -450, -1076
0.100289, -42, -14, 1511, -1371, -717, -1018
0.100424, -42, -14, 1511, -1371, -717, -1018
0.100558, -42, -14, 1511, -1371, -717, -1018
0.100694, -42, -14, 1511, -1371, -717, -1018
0.100828, -42, -14, 1511, -1371, -717, -1018
0.100963, -42, -14, 1511, -1371, -717, -1018
0.101097, -42, -14, 1511, -1371, -717, -1018
0.101232, -42, -14, 1511, -1371, -717, -1018
0.101367, -544, 217, 1857, -1597, -456, -900
0.101502, -544, 217, 1857, -1597, -456, -900
0.101636, -544, 217, 1857, -1597, -456, -900
0.101771, -544, 217, 1857, -1597, -456, -900
0.101905, -544, 217, 1857, -1597, -456, -900
0.102040, -544, 217, 1857, -1597, -456, -900
0.102175, -544, 217, 1857, -1597, -456, -900
0.102309, -544, 217, 1857, -1597, -456, -900
0.102444, -1230, 347, 2095, -1612, 112, -370
0.102579, -1230, 347, 2095, -1612, 112, -370
0.102713, -1230, 347, 2095, -1612, 112, -370
0.102848, -1230, 347, 2095, -1612, 112, -370
0.102983, -1230, 347, 2095, -1612, 112, -370
0.103117, -1230, 347, 2095, -1612, 112, -370
0.103252, -1230, 347, 2095, -1612, 112, -370
0.103386, -1823, 291, 1886, -1588, 589, 539
0.103521, -1823, 291, 1886, -1588, 589, 539
0.103656, -1823, 291, 1886, -1588, 589, 539
0.103790, -1823, 291, 1886, -1588, 589, 539
0.103925, -1823, 291, 1886, -1588, 589, 539
0.104060, -1823, 291, 1886, -1588, 589, 539
0.104190, -1823, 291, 1886, -1588, 589, 539
0.104326, -1823, 291, 1886, -1588, 589, 539
0.104461, -2615, 291, 1437, -1831, 704, 1828
0.104596, -2615, 291, 1437, -1831, 704, 1828
0.104731, -2615, 291, 1437, -1831, 704, 1828
0.104866, -2615, 291, 1437, -1831, 704, 1828
0.105000, -2615, 291, 1437, -1831, 704, 1828
0.105135, -2615, 291, 1437, -1831, 704, 1828
0.105270, -2615, 291, 1437, -1831, 704, 1828
0.105404, -2104, 359, 1586, -2293, 315, 3367
0.105539, -2104, 359, 1586, -2293, 315, 3367
0.105674, -2104, 359, 1586, -2293, 315, 3367
0.105808, -2104, 359, 1586, -2293, 315, 3367
0.105943, -2104, 359, 1586, -2293, 315, 3367
0.106078, -2104, 359, 1586, -2293, 315, 3367
0.106212, -2104, 359, 1586, -2293, 315, 3367
0.106347, -2104, 359, 1586, -2293, 315, 3367
0.106482, 35, 325, 2192, -2629, -388, 4155
0.106617, 35, 325, 2192, -2629, -388, 4155
0.106751, 35, 325, 2192, -2629, -388, 4155
0.106886, 35, 325, 2192, -2629, -388, 4155
0.107021, 35, 325, 2192, -2629, -388, 4155
0.107155, 35, 325, 2192, -2629, -388, 4155
0.107290, 35, 325, 2192, -2629, -388, 4155
0.107425, 1583, 175, 2621, -2692, -936, 3599
0.107559, 1583, 175, 2621, -2692, -936, 3599
0.107694, 1583, 175, 2621, -2692, -936, 3599
0.107828, 1583, 175, 2621, -2692, -936, 3599
0.107963, 1583, 175, 2621, -2692, -936, 3599
0.108097, 1583, 175, 2621, -2692, -936, 3599
0.108232, 1583, 175, 2621, -2692, -936, 3599
0.108366, 1583, 175, 2621, -2692, -936, 3599
0.108501, 1467, 39, 2581, -2542, -1089, 2492
0.108636, 1467, 39, 2581, -2542, -1089, 2492
0.108771, 1467, 39, 2581, -2542, -1089, 2492
0.108905, 1467, 39, 2581, -2542, -1089, 2492
0.109040, 1467, 39, 2581, -2542, -1089, 2492
0.109175, 1467, 39, 2581, -2542, -1089, 2492
0.109309, 1467, 39, 2581, -2542, -1089, 2492
0.109444, 1652, 15, 2389, -2274, -972, 1547
0.109579, 1652, 15, 2389, -2274, -972, 1547
0.109713, 1652, 15, 2389, -2274, -972, 1547
0.109848, 1652, 15, 2389, -2274, -972, 1547
0.109983, 1652, 15, 2389, -2274, -972, 1547
0.110117, 1652, 15, 2389, -2274, -972, 1547
0.110252, 1652, 15, 2389, -2274, -972, 1547
0.110387, 1652, 15, 2389, -2274, -972, 1547
0.110521, 3885, 104, 2900, -1821, -866, 10
0.110656, 3885, 104, 2900, -1821, -866, 10
0.110791, 3885, 104, 2900, -1821, -866, 10
0.110925, 3885, 104, 2900, -1821, -866, 10
0.111060, 3885, 104, 2900, -1821, -866, 10
0.111194, 3885, 104, 2900, -1821, -866, 10
0.111329, 3885, 104, 2900, -1821, -866, 10
0.111464, 5724, 197, 4468, -720, -611, -3029
0.111599, 5724, 197, 4468, -720, -611, -3029
0.111744, 5724, 197, 4468, -720, -611, -3029
0.111880, 5724, 197, 4468, -720, -611, -3029
0.112015, 5724, 197, 4468, -720, -611, -3029
0.112149, 5724, 197, 4468, -720, -611, -3029
0.112284, 5724, 197, 4468, -720, -611, -3029
0.112419, 5724, 197, 4468, -720, -611, -3029
0.112553, 3819, 154, 4902, 1218, 327, -6397
0.112689, 3819, 154, 4902, 1218, 327, -6397
0.112823, 3819, 154, 4902, 1218, 327, -6397
0.112958, 3819, 154, 4902, 1218, 327, -6397
0.113092, 3819, 154, 4902, 1218, 327, -6397
0.113227, 3819, 154, 4902, 1218, 327, -6397
0.113362, 3819, 154, 4902, 1218, 327, -6397
0.113496, -205, 262, 3003, 3024, 1739, -7874
0.113631, -205, 262, 3003, 3024, 1739, -7874
0.113766, -205, 262, 3003, 3024, 1739, -7874
0.113901, -205, 262, 3003, 3024, 1739, -7874
0.114035, -205, 262, 3003, 3024, 1739, -7874
0.114170, -205, 262, 3003, 3024, 1739, -7874
0.114304, -205, 262, 3003, 3024, 1739, -7874
0.114439, -205, 262, 3003, 3024, 1739, -7874
0.114574, -3882, 573, 831, 3728, 2767, -6960
0.114709, -3882, 573, 831, 3728, 2767, -6960
0.114843, -3882, 573, 831, 3728, 2767, -6960
0.114978, -3882, 573, 831, 3728, 2767, -6960
0.115113, -3882, 573, 831, 3728, 2767, -6960
0.115247, -3882, 573, 831, 3728, 2767, -6960
0.115382, -3882, 573, 831, 3728, 2767, -6960
0.115516, -7659, 468, -1280, 2862, 3110, -3777
0.115651, -7659, 468, -1280, 2862, 3110, -3777
0.115786, -7659, 468, -1280, 2862, 3110, -3777
0.115921, -7659, 468, -1280, 2862, 3110, -3777
0.116055, -7659, 468, -1280, 2862, 3110, -3777
0.116190, -7659, 468, -1280, 2862, 3110, -3777
0.116325, -7659, 468, -1280, 2862, 3110, -3777
0.116459, -7659, 468, -1280, 2862, 3110, -3777
0.116594, -7841, 211, -1932, 447, 2450, 1292
0.116731, -7841, 211, -1932, 447, 2450, 1292
0.116866, -7841, 211, -1932, 447, 2450, 1292
0.117001, -7841, 211, -1932, 447, 2450, 1292
0.117135, -7841, 211, -1932, 447, 2450, 1292
0.117270, -7841, 211, -1932, 447, 2450, 1292
0.117405, -7841, 211, -1932, 447, 2450, 1292
0.117539, -2806, 334, 627, -1941, 797, 5159
0.117674, -2806, 334, 627, -1941, 797, 5159
0.117809, -2806, 334, 627, -1941, 797, 5159
0.117943, -2806, 334, 627, -1941, 797, 5159
0.118078, -2806, 334, 627, -1941, 797, 5159
0.118212, -2806, 334, 627, -1941, 797, 5159
0.118347, -2806, 334, 627, -1941, 797, 5159
0.118482, -2806, 334, 627, -1941, 797, 5159
0.118616, 464, 458, 2770, -3134, -458, 5898
0.118751, 464, 458, 2770, -3134, -458, 5898
0.118887, 464, 458, 2770, -3134, -458, 5898
0.119022, 464, 458, 2770, -3134, -458, 5898
0.119157, 464, 458, 2770, -3134, -458, 5898
0.119291, 464, 458, 2770, -3134, -458, 5898
0.119426, 464, 458, 2770, -3134, -458, 5898
0.119560, 110, 305, 2381, -3674, -949, 5579
0.119695, 110, 305, 2381, -3674, -949, 5579
0.119830, 110, 305, 2381, -3674, -949, 5579
0.119964, 110, 305, 2381, -3674, -949, 5579
0.120099, 110, 305, 2381, -3674, -949, 5579
0.120234, 110, 305, 2381, -3674, -949, 5579
0.120368, 110, 305, 2381, -3674, -949, 5579
0.120503, 110, 305, 2381, -3674, -949, 5579
0.120638, 42, 174, 1949, -3900, -1537, 5573
0.120773, 42, 174, 1949, -3900, -1537, 5573
0.120908, 42, 174, 1949, -3900, -1537, 5573
0.121042, 42, 174, 1949, -3900, -1537, 5573
0.121177, 42, 174, 1949, -3900, -1537, 5573
0.121311, 42, 174, 1949, -3900, -1537, 5573
0.121446, 42, 174, 1949, -3900, -1537, 5573
0.121581, 1009, 155, 2381, -3735, -2292, 5253
0.121716, 1009, 155, 2381, -3735, -2292, 5253
0.121850, 1009, 155, 2381, -3735, -2292, 5253
0.121985, 1009, 155, 2381, -3735, -2292, 5253
0.122120, 1009, 155, 2381, -3735, -2292, 5253
0.122254, 1009, 155, 2381, -3735, -2292, 5253
0.122389, 1009, 155, 2381, -3735, -2292, 5253
0.122523, 1009, 155, 2381, -3735, -2292, 5253
0.122658, 2307, 84, 2860, -3201, -3131, 4178
0.122793, 2307, 84, 2860, -3201, -3131, 4178
0.122927, 2307, 84, 2860, -3201, -3131, 4178
0.123062, 2307, 84, 2860, -3201, -3131, 4178
0.123197, 2307, 84, 2860, -3201, -3131, 4178
0.123331, 2307, 84, 2860, -3201, -3131, 4178
0.123466, 2307, 84, 2860, -3201, -3131, 4178
0.123600, 2764, 75, 3040, -2340, -3607, 2456
0.123736, 2764, 75, 3040, -2340, -3607, 2456
0.123870, 2764, 75, 3040, -2340, -3607, 2456
0.124005, 2764, 75, 3040, -2340, -3607, 2456
0.124144, 2764, 75, 3040, -2340, -3607, 2456
0.124279, 2764, 75, 3040, -2340, -3607, 2456
0.124414, 2764, 75, 3040, -2340, -3607, 2456
0.124548, 2764, 75, 3040, -2340, -3607, 2456
0.124683, 1611, 118, 2551, -1538, -2915, 960
0.124818, 1611, 118, 2551, -1538, -2915, 960
0.124953, 1611, 118, 2551, -1538, -2915, 960
0.125087, 1611, 118, 2551, -1538, -2915, 960
0.125222, 1611, 118, 2551, -1538, -2915, 960
0.125357, 1611, 118, 2551, -1538, -2915, 960
0.125491, 1611, 118, 2551, -1538, -2915, 960
0.125626, 1682, 92, 2229, -1072, -1568, 135
0.125761, 1682, 92, 2229, -1072, -1568, 135
0.125895, 1682, 92, 2229, -1072, -1568, 135
0.126030, 1682, 92, 2229, -1072, -1568, 135
0.126164, 1682, 92, 2229, -1072, -1568, 135
0.126299, 1682, 92, 2229, -1072, -1568, 135
0.126433, 1682, 92, 2229, -1072, -1568, 135
0.126568, 1682, 92, 2229, -1072, -1568, 135
0.126703, 2809, 47, 2667, -587, -325, -1142
0.126837, 2809, 47, 2667, -587, -325, -1142
0.126972, 2809, 47, 2667, -587, -325, -1142
0.127107, 2809, 47, 2667, -587, -325, -1142
0.127241, 2809, 47, 2667, -587, -325, -1142
0.127376, 2809, 47, 2667, -587, -325, -1142
0.127510, 2809, 47, 2667, -587, -325, -1142
0.127645, 2809, 47, 2667, -587, -325, -1142
0.127779, 1907, -3, 2960, 48, 927, -2794
0.127914, 1907, -3, 2960, 48, 927, -2794
0.128049, 1907, -3, 2960, 48, 927, -2794
0.128184, 1907, -3, 2960, 48, 927, -2794
0.128318, 1907, -3, 2960, 48, 927, -2794
0.128453, 1907, -3, 2960, 48, 927, -2794
0.128587, 1907, -3, 2960, 48, 927, -2794
0.128723, 1173, 123, 3129, 853, 1917, -3750
0.128857, 1173, 123, 3129, 853, 1917, -3750
0.128991, 1173, 123, 3129, 853, 1917, -3750
0.129125, 1173, 123, 3129, 853, 1917, -3750
0.129259, 1173, 123, 3129, 853, 1917, -3750
0.129393, 1173, 123, 3129, 853, 1917, -3750
0.129527, 1173, 123, 3129, 853, 1917, -3750
0.129661, 1173, 123, 3129, 853, 1917, -3750
0.129795, 1030, 78, 2265, 1552, 2510, -4450
0.129929, 1030, 78, 2265, 1552, 2510, -4450
0.130063, 1030, 78, 2265, 1552, 2510, -4450
0.130197, 1030, 78, 2265, 1552, 2510, -4450
0.130331, 1030, 78, 2265, 1552, 2510, -4450
0.130465, 1030, 78, 2265, 1552, 2510, -4450
0.130599, 1030, 78, 2265, 1552, 2510, -4450
0.130732, 461, -304, 1370, 1523, 2805, -5066
0.130866, 461, -304, 1370, 1523, 2805, -5066
0.131000, 461, -304, 1370, 1523, 2805, -5066
0.131134, 461, -304, 1370, 1523, 2805, -5066
0.131268, 461, -304, 1370, 1523, 2805, -5066
0.131402, 461, -304, 1370, 1523, 2805, -5066
0.131536, 461, -304, 1370, 1523, 2805, -5066
0.131670, 461, -304, 1370, 1523, 2805, -5066
0.131804, 1113, -98, 2614, 1555, 2504, -5512
0.131938, 1113, -98, 2614, 1555, 2504, -5512
0.132072, 1113, -98, 2614, 1555, 2504, -5512
0.132206, 1113, -98, 2614, 1555, 2504, -5512
0.132340, 1113, -98, 2614, 1555, 2504, -5512
0.132474, 1113, -98, 2614, 1555, 2504, -5512
0.132609, 1113, -98, 2614, 1555, 2504, -5512
0.132744, 475, 532, 3139, 2290, 2213, -6209
0.132879, 475, 532, 3139, 2290, 2213, -6209
0.133013, 475, 532, 3139, 2290, 2213, -6209
0.133148, 475, 532, 3139, 2290, 2213, -6209
0.133283, 475, 532, 3139, 2290, 2213, -6209
0.133417, 475, 532, 3139, 2290, 2213, -6209
0.133552, 475, 532, 3139, 2290, 2213, -6209
0.133686, 475, 532, 3139, 2290, 2213, -6209
0.133821, -3133, 711, 1132, 2610, 2357, -5827
0.133955, -3133, 711, 1132, 2610, 2357, -5827
0.134090, -3133, 711, 1132, 2610, 2357, -5827
0.134225, -3133, 711, 1132, 2610, 2357, -5827
0.134359, -3133, 711, 1132, 2610, 2357, -5827
0.134494, -3133, 711, 1132, 2610, 2357, -5827
0.134628, -3133, 711, 1132, 2610, 2357, -5827
0.134763, -5423, 576, -840, 1676, 2085, -3177
0.134898, -5423, 576, -840, 1676, 2085, -3177
0.135032, -5423, 576, -840, 1676, 2085, -3177
0.135167, -5423, 576, -840, 1676, 2085, -3177
0.135301, -5423, 576, -840, 1676, 2085, -3177
0.135437, -5423, 576, -840, 1676, 2085, -3177
0.135572, -5423, 576, -840, 1676, 2085, -3177
0.135706, -5423, 576, -840, 1676, 2085, -3177
0.135841, -4823, 460, -416, -46, 1182, 221
0.135976, -4823, 460, -416, -46, 1182, 221
0.136110, -4823, 460, -416, -46, 1182, 221
0.136245, -4823, 460, -416, -46, 1182, 221
0.136379, -4823, 460, -416, -46, 1182, 221
0.136520, -4823, 460, -416, -46, 1182, 221
0.136656, -4823, 460, -416, -46, 1182, 221
0.136790, -2982, 386, 1318, -1478, 22, 2871
0.136925, -2982, 386, 1318, -1478, 22, 2871
0.137060, -2982, 386, 1318, -1478, 22, 2871
0.137194, -2982, 386, 1318, -1478, 22, 2871
0.137329, -2982, 386, 1318, -1478, 22, 2871
0.137463, -2982, 386, 1318, -1478, 22, 2871
0.137598, -2982, 386, 1318, -1478, 22, 2871
0.137733, -2982, 386, 1318, -1478, 22, 2871
0.137867, -495, 325, 2229, -2148, -1101, 4251
0.138002, -495, 325, 2229, -2148, -1101, 4251
0.138137, -495, 325, 2229, -2148, -1101, 4251
0.138271, -495, 325, 2229, -2148, -1101, 4251
0.138406, -495, 325, 2229, -2148, -1101, 4251
0.138540, -495, 325, 2229, -2148, -1101, 4251
0.138675, -495, 325, 2229, -2148, -1101, 4251
0.138810, 1389, 250, 2487, -2405, -1665, 4135
0.138944, 1389, 250, 2487, -2405, -1665, 4135
0.139079, 1389, 250, 2487, -2405, -1665, 4135
0.139213, 1389, 250, 2487, -2405, -1665, 4135
0.139348, 1389, 250, 2487, -2405, -1665, 4135
0.139483, 1389, 250, 2487, -2405, -1665, 4135
0.139617, 1389, 250, 2487, -2405, -1665, 4135
0.139752, 1389, 250, 2487, -2405, -1665, 4135
0.139886, 2064, 218, 2613, -2418, -1648, 3098
0.140021, 2064, 218, 2613, -2418, -1648, 3098
0.140156, 2064, 218, 2613, -2418, -1648, 3098
0.140290, 2064, 218, 2613, -2418, -1648, 3098
0.140425, 2064, 218, 2613, -2418, -1648, 3098
0.140559, 2064, 218, 2613, -2418, -1648, 3098
0.140694, 2064, 218, 2613, -2418, -1648, 3098
0.140828, 2326, 231, 2558, -2131, -1507, 1732
0.140962, 2326, 231, 2558, -2131, -1507, 1732
0.141097, 2326, 231, 2558, -2131, -1507, 1732
0.141231, 2326, 231, 2558, -2131, -1507, 1732
0.141365, 2326, 231, 2558, -2131, -1507, 1732
0.141500, 2326, 231, 2558, -2131, -1507, 1732
0.141634, 2326, 231, 2558, -2131, -1507, 1732
0.141769, 2326, 231, 2558, -2131, -1507, 1732
0.141903, 3255, 294, 2943, -1513, -1368, 47
0.142038, 3255, 294, 2943, -1513, -1368, 47
0.142172, 3255, 294, 2943, -1513, -1368, 47
0.142306, 3255, 294, 2943, -1513, -1368, 47
0.142441, 3255, 294, 2943, -1513, -1368, 47
0.142575, 3255, 294, 2943, -1513, -1368, 47
0.142710, 3255, 294, 2943, -1513, -1368, 47
0.142844, 3255, 294, 2943, -1513, -1368, 47
0.142978, 5039, 456, 4109, -307, -971, -2456
0.143113, 5039, 456, 4109, -307, -971, -2456
0.143247, 5039, 456, 4109, -307, -971, -2456
0.143382, 5039, 456, 4109, -307, -971, -2456
0.143516, 5039, 456, 4109, -307, -971, -2456
0.143651, 5039, 456, 4109, -307, -971, -2456
0.143785, 5039, 456, 4109, -307, -971, -2456
0.143919, 3375, 48, 4355, 1382, 207, -5507
0.144054, 3375, 48, 4355, 1382, 207, -5507
0.144188, 3375, 48, 4355, 1382, 207, -5507
0.144323, 3375, 48, 4355, 1382, 207, -5507
0.144457, 3375, 48, 4355, 1382, 207, -5507
0.144591, 3375, 48, 4355, 1382, 207, -5507
0.144726, 3375, 48, 4355, 1382, 207, -5507
0.144861, 3375, 48, 4355, 1382, 207, -5507
0.144996, -2489, -505, 2118, 2656, 2051, -6270
0.145130, -2489, -505, 2118, 2656, 2051, -6270
0.145265, -2489, -505, 2118, 2656, 2051, -6270
0.145400, -2489, -505, 2118, 2656, 2051, -6270
0.145534, -2489, -505, 2118, 2656, 2051, -6270
0.145669, -2489, -505, 2118, 2656, 2051, -6270
0.145803, -2489, -505, 2118, 2656, 2051, -6270
0.145938, -2826, 308, 411, 2821, 3094, -4120
0.146073, -2826, 308, 411, 2821, 3094, -4120
0.146207, -2826, 308, 411, 2821, 3094, -4120
0.146342, -2826, 308, 411, 2821, 3094, -4120
0.146476, -2826, 308, 411, 2821, 3094, -4120
0.146611, -2826, 308, 411, 2821, 3094, -4120
0.146746, -2826, 308, 411, 2821, 3094, -4120
0.146880, -2826, 308, 411, 2821, 3094, -4120
0.147015, 2295, 1296, 2540, 2589, 2978, -3477
0.147150, 2295, 1296, 2540, 2589, 2978, -3477
0.147284, 2295, 1296, 2540, 2589, 2978, -3477
0.147419, 2295, 1296, 2540, 2589, 2978, -3477
0.147553, 2295, 1296, 2540, 2589, 2978, -3477
0.147688, 2295, 1296, 2540, 2589, 2978, -3477
0.147822, 2295, 1296, 2540, 2589, 2978, -3477
0.147957, 3491, 1056, 5245, 3390, 3033, -5535
0.148092, 3491, 1056, 5245, 3390, 3033, -5535
0.148226, 3491, 1056, 5245, 3390, 3033, -5535
0.148361, 3491, 1056, 5245, 3390, 3033, -5535
0.148495, 3491, 1056, 5245, 3390, 3033, -5535
0.148631, 3491, 1056, 5245, 3390, 3033, -5535
0.148769, 3491, 1056, 5245, 3390, 3033, -5535
0.148904, 3491, 1056, 5245, 3390, 3033, -5535
0.149039, -39, -325, 2823, 4627, 3470, -6948
0.149174, -39, -325, 2823, 4627, 3470, -6948
0.149308, -39, -325, 2823, 4627, 3470, -6948
0.149443, -39, -325, 2823, 4627, 3470, -6948
0.149577, -39, -325, 2823, 4627, 3470, -6948
0.149712, -39, -325, 2823, 4627, 3470, -6948
0.149847, -39, -325, 2823, 4627, 3470, -6948
0.149982, -4357, -996, -2902, 3725, 3437, -5792
0.150116, -4357, -996, -2902, 3725, 3437, -5792
0.150251, -4357, -996, -2902, 3725, 3437, -5792
0.150386, -4357, -996, -2902, 3725, 3437, -5792
0.150520, -4357, -996, -2902, 3725, 3437, -5792
0.150655, -4357, -996, -2902, 3725, 3437, -5792
0.150789, -4357, -996, -2902, 3725, 3437, -5792
0.150924, -4357, -996, -2902, 3725, 3437, -5792
0.151059, -4867, 285, -3131, 739, 2339, -2868
0.151194, -4867, 285, -3131, 739, 2339, -2868
0.151328, -4867, 285, -3131, 739, 2339, -2868
0.151463, -4867, 285, -3131, 739, 2339, -2868
0.151598, -4867, 285, -3131, 739, 2339, -2868
0.151732, -4867, 285, -3131, 739, 2339, -2868
0.151867, -4867, 285, -3131, 739, 2339, -2868
0.152001, -2926, 589, 1578, -1242, 830, -437
0.152136, -2926, 589, 1578, -1242, 830, -437
0.152271, -2926, 589, 1578, -1242, 830, -437
0.152406, -2926, 589, 1578, -1242, 830, -437
0.152540, -2926, 589, 1578, -1242, 830, -437
0.152675, -2926, 589, 1578, -1242, 830, -437
0.152810, -2926, 589, 1578, -1242, 830, -437
0.152945, -2926, 589, 1578, -1242, 830, -437
0.153079, -1935, -98, 3225, -1277, -90, 1012
0.153214, -1935, -98, 3225, -1277, -90, 1012
0.153349, -1935, -98, 3225, -1277, -90, 1012
0.153483, -1935, -98, 3225, -1277, -90, 1012
0.153618, -1935, -98, 3225, -1277, -90, 1012
0.153752, -1935, -98, 3225, -1277, -90, 1012
0.153887, -1935, -98, 3225, -1277, -90, 1012
0.154022, -439, 114, 2280, -979, -627, 2001
0.154157, -439, 114, 2280, -979, -627, 2001
0.154291, -439, 114, 2280, -979, -627, 2001
0.154426, -439, 114, 2280, -979, -627, 2001
0.154560, -439, 114, 2280, -979, -627, 2001
0.154695, -439, 114, 2280, -979, -627, 2001
0.154830, -439, 114, 2280, -979, -627, 2001
0.154964, -439, 114, 2280, -979, -627, 2001
0.155099, 1328, 367, 2430, -1029, -790, 1995
0.155234, 1328, 367, 2430, -1029, -790, 1995
0.155369, 1328, 367, 2430, -1029, -790, 1995
0.155503, 1328, 367, 2430, -1029, -790, 1995
0.155638, 1328, 367, 2430, -1029, -790, 1995
0.155773, 1328, 367, 2430, -1029, -790, 1995
0.155907, 1328, 367, 2430, -1029, -790, 1995
0.156042, 1729, 224, 2899, -905, -713, 1029
0.156177, 1729, 224, 2899, -905, -713, 1029
0.156311, 1729, 224, 2899, -905, -713, 1029
0.156446, 1729, 224, 2899, -905, -713, 1029
0.156581, 1729, 224, 2899, -905, -713, 1029
0.156715, 1729, 224, 2899, -905, -713, 1029
0.156850, 1729, 224, 2899, -905, -713, 1029
0.156985, 1729, 224, 2899, -905, -713, 1029
0.157119, 801, 127, 2617, -331, -945, 16
0.157254, 801, 127, 2617, -331, -945, 16
0.157389, 801, 127, 2617, -331, -945, 16
0.157523, 801, 127, 2617, -331, -945, 16
0.157658, 801, 127, 2617, -331, -945, 16
0.157793, 801, 127, 2617, -331, -945, 16
0.157927, 801, 127, 2617, -331, -945, 16
0.158062, -103, 221, 2210, 307, -995, -335
0.158197, -103, 221, 2210, 307, -995, -335
0.158331, -103, 221, 2210, 307, -995, -335
0.158466, -103, 221, 2210, 307, -995, -335
0.158601, -103, 221, 2210, 307, -995, -335
0.158735, -103, 221, 2210, 307, -995, -335
0.158870, -103, 221, 2210, 307, -995, -335
0.159004, -103, 221, 2210, 307, -995, -335
0.159139, 74, 258, 2415, 737, -547, -242
0.159274, 74, 258, 2415, 737, -547, -242
0.159409, 74, 258, 2415, 737, -547, -242
0.159543, 74, 258, 2415, 737, -547, -242
0.159678, 74, 258, 2415, 737, -547, -242
0.159812, 74, 258, 2415, 737, -547, -242
0.159947, 74, 258, 2415, 737, -547, -242
0.160082, 74, 258, 2415, 737, -547, -242
0.160216, 1332, 310, 3131, 1248, 33, -472
0.160351, 1332, 310, 3131, 1248, 33, -472
0.160486, 1332, 310, 3131, 1248, 33, -472
0.160621, 1332, 310, 3131, 1248, 33, -472
0.160755, 1332, 310, 3131, 1248, 33, -472
0.160890, 1332, 310, 3131, 1248, 33, -472
0.161024, 1332, 310, 3131, 1248, 33, -472
0.161159, 2486, 392, 3354, 1982, 812, -1537
0.161300, 2486, 392, 3354, 1982, 812, -1537
0.161436, 2486, 392, 3354, 1982, 812, -1537
0.161570, 2486, 392, 3354, 1982, 812, -1537
0.161704, 2486, 392, 3354, 1982, 812, -1537
0.161839, 2486, 392, 3354, 1982, 812, -1537
0.161973, 2486, 392, 3354, 1982, 812, -1537
0.162108, 2486, 392, 3354, 1982, 812, -1537
0.162242, 1033, 226, 1892, 2377, 1844, -2908
0.162377, 1033, 226, 1892, 2377, 1844, -2908
0.162511, 1033, 226, 1892, 2377, 1844, -2908
0.162646, 1033, 226, 1892, 2377, 1844, -2908
0.162780, 1033, 226, 1892, 2377, 1844, -2908
0.162914, 1033, 226, 1892, 2377, 1844, -2908
0.163049, 1033, 226, 1892, 2377, 1844, -2908
0.163183, -2248, 62, -405, 1628, 2628, -2904
0.163318, -2248, 62, -405, 1628, 2628, -2904
0.163452, -2248, 62, -405, 1628, 2628, -2904
0.163587, -2248, 62, -405, 1628, 2628, -2904
0.163721, -2248, 62, -405, 1628, 2628, -2904
0.163856, -2248, 62, -405, 1628, 2628, -2904
0.163990, -2248, 62, -405, 1628, 2628, -2904
0.164125, -2248, 62, -405, 1628, 2628, -2904
0.164259, -2424, 252, -189, 215, 2606, -1391
0.164394, -2424, 252, -189, 215, 2606, -1391
0.164528, -2424, 252, -189, 215, 2606, -1391
0.164663, -2424, 252, -189, 215, 2606, -1391
0.164798, -2424, 252, -189, 215, 2606, -1391
0.164932, -2424, 252, -189, 215, 2606, -1391
0.165066, -2424, 252, -189, 215, 2606, -1391
0.165201, -527, 382, 1809, -597, 2060, -456
0.165335, -527, 382, 1809, -597, 2060, -456
0.165470, -527, 382, 1809, -597, 2060, -456
0.165604, -527, 382, 1809, -597, 2060, -456
0.165739, -527, 382, 1809, -597, 2060, -456
0.165873, -527, 382, 1809, -597, 2060, -456
0.166007, -527, 382, 1809, -597, 2060, -456
0.166142, -527, 382, 1809, -597, 2060, -456
0.166276, -1106, 263, 2195, -854, 1673, -255
0.166411, -1106, 263, 2195, -854, 1673, -255
0.166545, -1106, 263, 2195, -854, 1673, -255
0.166680, -1106, 263, 2195, -854, 1673, -255
0.166814, -1106, 263, 2195, -854, 1673, -255
0.166949, -1106, 263, 2195, -854, 1673, -255
0.167083, -1106, 263, 2195, -854, 1673, -255
0.167217, -2185, 198, 1827, -1065, 1356, 710
0.167352, -2185, 198, 1827, -1065, 1356, 710
0.167486, -2185, 198, 1827, -1065, 1356, 710
0.167621, -2185, 198, 1827, -1065, 1356, 710
0.167755, -2185, 198, 1827, -1065, 1356, 710
0.167890, -2185, 198, 1827, -1065, 1356, 710
0.168024, -2185, 198, 1827, -1065, 1356, 710
0.168159, -2185, 198, 1827, -1065, 1356, 710
0.168293, -1565, 196, 1940, -1218, 951, 2023
0.168428, -1565, 196, 1940, -1218, 951, 2023
0.168562, -1565, 196, 1940, -1218, 951, 2023
0.168697, -1565, 196, 1940, -1218, 951, 2023
0.168832, -1565, 196, 1940, -1218, 951, 2023
0.168966, -1565, 196, 1940, -1218, 951, 2023
0.169101, -1565, 196, 1940, -1218, 951, 2023
0.169235, -205, 155, 1982, -1345, 402, 2623
0.169370, -205, 155, 1982, -1345, 402, 2623
0.169505, -205, 155, 1982, -1345, 402, 2623
0.169639, -205, 155, 1982, -1345, 402, 2623
0.169774, -205, 155, 1982, -1345, 402, 2623
0.169908, -205, 155, 1982, -1345, 402, 2623
0.170043, -205, 155, 1982, -1345, 402, 2623
0.170177, -205, 155, 1982, -1345, 402, 2623
0.170312, 1502, 127, 1950, -1465, -476, 2254
0.170446, 1502, 127, 1950, -1465, -476, 2254
0.170581, 1502, 127, 1950, -1465, -476, 2254
0.170716, 1502, 127, 1950, -1465, -476, 2254
0.170850, 1502, 127, 1950, -1465, -476, 2254
0.170985, 1502, 127, 1950, -1465, -476, 2254
0.171120, 1502, 127, 1950, -1465, -476, 2254
0.171254, 3006, 176, 2194, -1497, -1132, 883
0.171389, 3006, 176, 2194, -1497, -1132, 883
0.171523, 3006, 176, 2194, -1497, -1132, 883
0.171658, 3006, 176, 2194, -1497, -1132, 883
0.171792, 3006, 176, 2194, -1497, -1132, 883
0.171927, 3006, 176, 2194, -1497, -1132, 883
0.172062, 3006, 176, 2194, -1497, -1132, 883
0.172196, 3006, 176, 2194, -1497, -1132, 883
0.172331, 3430, -125, 2921, -1204, -1017, -1138
0.172465, 3430, -125, 2921, -1204, -1017, -1138
0.172604, 3430, -125, 2921, -1204, -1017, -1138
0.172739, 3430, -125, 2921, -1204, -1017, -1138
0.172873, 3430, -125, 2921, -1204, -1017, -1138
0.173008, 3430, -125, 2921, -1204, -1017, -1138
0.173143, 3430, -125, 2921, -1204, -1017, -1138
0.173277, 3054, -454, 3444, -253, -331, -3231
0.173412, 3054, -454, 3444, -253, -331, -3231
0.173551, 3054, -454, 3444, -253, -331, -3231
0.173686, 3054, -454, 3444, -253, -331, -3231
0.173820, 3054, -454, 3444, -253, -331, -3231
0.173955, 3054, -454, 3444, -253, -331, -3231
0.174090, 3054, -454, 3444, -253, -331, -3231
0.174224, 3054, -454, 3444, -253, -331, -3231
0.174359, 1674, -234, 2780, 998, 696, -4906
0.174494, 1674, -234, 2780, 998, 696, -4906
0.174628, 1674, -234, 2780, 998, 696, -4906
0.174763, 1674, -234, 2780, 998, 696, -4906
0.174897, 1674, -234, 2780, 998, 696, -4906
0.175032, 1674, -234, 2780, 998, 696, -4906
0.175166, 1674, -234, 2780, 998, 696, -4906
0.175301, -859, 40, 925, 1529, 1846, -5383
0.175436, -859, 40, 925, 1529, 1846, -5383
0.175570, -859, 40, 925, 1529, 1846, -5383
0.175705, -859, 40, 925, 1529, 1846, -5383
0.175840, -859, 40, 925, 1529, 1846, -5383
0.175974, -859, 40, 925, 1529, 1846, -5383
0.176109, -859, 40, 925, 1529, 1846, -5383
0.176243, -859, 40, 925, 1529, 1846, -5383
0.176378, -1562, 410, -521, 773, 2540, -4552
0.176513, -1562, 410, -521, 773, 2540, -4552
0.176648, -1562, 410, -521, 773, 2540, -4552
0.176783, -1562, 410, -521, 773, 2540, -4552
0.176917, -1562, 410, -521, 773, 2540, -4552
0.177052, -1562, 410, -521, 773, 2540, -4552
0.177186, -1562, 410, -521, 773, 2540, -4552
0.177321, 549, 820, 860, -431, 2613, -3999
0.177456, 549, 820, 860, -431, 2613, -3999
0.177590, 549, 820, 860, -431, 2613, -3999
0.177725, 549, 820, 860, -431, 2613, -3999
0.177860, 549, 820, 860, -431, 2613, -3999
0.177994, 549, 820, 860, -431, 2613, -3999
0.178129, 549, 820, 860, -431, 2613, -3999
0.178263, 549, 820, 860, -431, 2613, -3999
0.178398, 1557, 688, 3268, -667, 2771, -4683
0.178533, 1557, 688, 3268, -667, 2771, -4683
0.178667, 1557, 688, 3268, -667, 2771, -4683
0.178802, 1557, 688, 3268, -667, 2771, -4683
0.178937, 1557, 688, 3268, -667, 2771, -4683
0.179071, 1557, 688, 3268, -667, 2771, -4683
0.179206, 1557, 688, 3268, -667, 2771, -4683
0.179340, 1557, 688, 3268, -667, 2771, -4683
0.179475, -25, 199, 2855, -133, 3272, -5246
0.179610, -25, 199, 2855, -133, 3272, -5246
0.179744, -25, 199, 2855, -133, 3272, -5246
0.179879, -25, 199, 2855, -133, 3272, -5246
0.180014, -25, 199, 2855, -133, 3272, -5246
0.180148, -25, 199, 2855, -133, 3272, -5246
0.180283, -25, 199, 2855, -133, 3272, -5246
0.180417, -631, -50, 1683, 74, 3369, -4873
0.180552, -631, -50, 1683, 74, 3369, -4873
0.180687, -631, -50, 1683, 74, 3369, -4873
0.180822, -631, -50, 1683, 74, 3369, -4873
0.180956, -631, -50, 1683, 74, 3369, -4873
0.181091, -631, -50, 1683, 74, 3369, -4873
0.181226, -631, -50, 1683, 74, 3369, -4873
0.181360, -631, -50, 1683, 74, 3369, -4873
0.181495, -729, 114, 2933, 306, 2921, -4582
0.181630, -729, 114, 2933, 306, 2921, -4582
0.181764, -729, 114, 2933, 306, 2921, -4582
0.181899, -729, 114, 2933, 306, 2921, -4582
0.182033, -729, 114, 2933, 306, 2921, -4582
0.182167, -729, 114, 2933, 306, 2921, -4582
0.182302, -729, 114, 2933, 306, 2921, -4582
0.182436, -3177, 377, 3900, 1275, 2477, -3803
0.182571, -3177, 377, 3900, 1275, 2477, -3803
0.182705, -3177, 377, 3900, 1275, 2477, -3803
0.182840, -3177, 377, 3900, 1275, 2477, -3803
0.182974, -3177, 377, 3900, 1275, 2477, -3803
0.183109, -3177, 377, 3900, 1275, 2477, -3803
0.183243, -3177, 377, 3900, 1275, 2477, -3803
0.183378, -3177, 377, 3900, 1275, 2477, -3803
0.183512, -4928, 400, 2040, 2071, 1776, -1441
0.183647, -4928, 400, 2040, 2071, 1776, -1441
0.183781, -4928, 400, 2040, 2071, 1776, -1441
0.183916, -4928, 400, 2040, 2071, 1776, -1441
0.184050, -4928, 400, 2040, 2071, 1776, -1441
0.184185, -4928, 400, 2040, 2071, 1776, -1441
0.184319, -4928, 400, 2040, 2071, 1776, -1441
0.184453, -4609, 275, -64, 1462, 632, 1428
0.184588, -4609, 275, -64, 1462, 632, 1428
0.184723, -4609, 275, -64, 1462, 632, 1428
0.184857, -4609, 275, -64, 1462, 632, 1428
0.184992, -4609, 275, -64, 1462, 632, 1428
0.185127, -4609, 275, -64, 1462, 632, 1428
0.185261, -4609, 275, -64, 1462, 632, 1428
0.185396, -4609, 275, -64, 1462, 632, 1428
0.185530, -3543, 270, 304, -184, -554, 3896
0.185665, -3543, 270, 304, -184, -554, 3896
0.185800, -3543, 270, 304, -184, -554, 3896
0.185938, -3543, 270, 304, -184, -554, 3896
0.186073, -3543, 270, 304, -184, -554, 3896
0.186208, -3543, 270, 304, -184, -554, 3896
0.186343, -3543, 270, 304, -184, -554, 3896
0.186477, -1192, 314, 1899, -1478, -1628, 5477
0.186612, -1192, 314, 1899, -1478, -1628, 5477
0.186747, -1192, 314, 1899, -1478, -1628, 5477
0.186881, -1192, 314, 1899, -1478, -1628, 5477
0.187016, -1192, 314, 1899, -1478, -1628, 5477
0.187151, -1192, 314, 1899, -1478, -1628, 5477
0.187285, -1192, 314, 1899, -1478, -1628, 5477
0.187420, -1192, 314, 1899, -1478, -1628, 5477
0.187554, 1160, 266, 2555, -1928, -2281, 5494
0.187689, 1160, 266, 2555, -1928, -2281, 5494
0.187824, 1160, 266, 2555, -1928, -2281, 5494
0.187958, 1160, 266, 2555, -1928, -2281, 5494
0.188093, 1160, 266, 2555, -1928, -2281, 5494
0.188228, 1160, 266, 2555, -1928, -2281, 5494
0.188362, 1160, 266, 2555, -1928, -2281, 5494
0.188497, 2410, 191, 2452, -1988, -2286, 4317
0.188632, 2410, 191, 2452, -1988, -2286, 4317
0.188767, 2410, 191, 2452, -1988, -2286, 4317
0.188901, 2410, 191, 2452, -1988, -2286, 4317
0.189036, 2410, 191, 2452, -1988, -2286, 4317
0.189171, 2410, 191, 2452, -1988, -2286, 4317
0.189305, 2410, 191, 2452, -1988, -2286, 4317
0.189440, 2410, 191, 2452, -1988, -2286, 4317
0.189575, 3366, 180, 2515, -1858, -1935, 2548
0.189709, 3366, 180, 2515, -1858, -1935, 2548
0.189844, 3366, 180, 2515, -1858, -1935, 2548
0.189978, 3366, 180, 2515, -1858, -1935, 2548
0.190113, 3366, 180, 2515, -1858, -1935, 2548
0.190247, 3366, 180, 2515, -1858, -1935, 2548
0.190382, 3366, 180, 2515, -1858, -1935, 2548
0.190517, 3944, 228, 3053, -1327, -1431, 258
0.190652, 3944, 228, 3053, -1327, -1431, 258
0.190786, 3944, 228, 3053, -1327, -1431, 258
0.190921, 3944, 228, 3053, -1327, -1431, 258
0.191056, 3944, 228, 3053, -1327, -1431, 258
0.191190, 3944, 228, 3053, -1327, -1431, 258
0.191325, 3944, 228, 3053, -1327, -1431, 258
0.191459, 3944, 228, 3053, -1327, -1431, 258
0.191594, 3484, 248, 3271, -292, -721, -2195
0.191729, 3484, 248, 3271, -292, -721, -2195
0.191863, 3484, 248, 3271, -292, -721, -2195
0.191998, 3484, 248, 3271, -292, -721, -2195
0.192133, 3484, 248, 3271, -292, -721, -2195
0.192267, 3484, 248, 3271, -292, -721, -2195
0.192402, 3484, 248, 3271, -292, -721, -2195
0.192536, 1906, 222, 2469, 753, 259, -4097
0.192672, 1906, 222, 2469, 753, 259, -4097
0.192806, 1906, 222, 2469, 753, 259, -4097
0.192941, 1906, 222, 2469, 753, 259, -4097
0.193075, 1906, 222, 2469, 753, 259, -4097
0.193210, 1906, 222, 2469, 753, 259, -4097
0.193344, 1906, 222, 2469, 753, 259, -4097
0.193479, 1906, 222, 2469, 753, 259, -4097
0.193614, -496, 152, 1774, 1359, 1394, -4754
0.193749, -496, 152, 1774, 1359, 1394, -4754
0.193883, -496, 152, 1774, 1359, 1394, -4754
0.194018, -496, 152, 1774, 1359, 1394, -4754
0.194153, -496, 152, 1774, 1359, 1394, -4754
0.194287, -496, 152, 1774, 1359, 1394, -4754
0.194422, -496, 152, 1774, 1359, 1394, -4754
0.194556, -2126, 119, 1353, 1522, 2299, -3966
0.194691, -2126, 119, 1353, 1522, 2299, -3966
0.194826, -2126, 119, 1353, 1522, 2299, -3966
0.194960, -2126, 119, 1353, 1522, 2299, -3966
0.195095, -2126, 119, 1353, 1522, 2299, -3966
0.195229, -2126, 119, 1353, 1522, 2299, -3966
0.195364, -2126, 119, 1353, 1522, 2299, -3966
0.195499, -2126, 119, 1353, 1522, 2299, -3966
0.195633, -2114, 295, 1115, 1167, 2637, -2594
0.195769, -2114, 295, 1115, 1167, 2637, -2594
0.195904, -2114, 295, 1115, 1167, 2637, -2594
0.196039, -2114, 295, 1115, 1167, 2637, -2594
0.196173, -2114, 295, 1115, 1167, 2637, -2594
0.196308, -2114, 295, 1115, 1167, 2637, -2594
0.196442, -2114, 295, 1115, 1167, 2637, -2594
0.196577, -2114, 295, 1115, 1167, 2637, -2594
0.196712, -1491, 408, 1883, 650, 2444, -1475
0.196847, -1491, 408, 1883, 650, 2444, -1475
0.196982, -1491, 408, 1883, 650, 2444, -1475
0.197116, -1491, 408, 1883, 650, 2444, -1475
0.197252, -1491, 408, 1883, 650, 2444, -1475
0.197388, -1491, 408, 1883, 650, 2444, -1475
0.197525, -1491, 408, 1883, 650, 2444, -1475
0.197660, -736, 341, 2332, 407, 2038, -768
0.197797, -736, 341, 2332, 407, 2038, -768
0.197932, -736, 341, 2332, 407, 2038, -768
0.198067, -736, 341, 2332, 407, 2038, -768
0.198208, -736, 341, 2332, 407, 2038, -768
0.198344, -736, 341, 2332, 407, 2038, -768
0.198478, -736, 341, 2332, 407, 2038, -768
0.198613, -508, 255, 1620, 70, 1525, -461
0.198748, -508, 255, 1620, 70, 1525, -461
0.198882, -508, 255, 1620, 70, 1525, -461
0.199017, -508, 255, 1620, 70, 1525, -461
0.199151, -508, 255, 1620, 70, 1525, -461
0.199286, -508, 255, 1620, 70, 1525, -461
0.199420, -508, 255, 1620, 70, 1525, -461
0.199555, -508, 255, 1620, 70, 1525, -461
0.199690, -601, 249, 1351, -490, 760, -221
0.199825, -601, 249, 1351, -490, 760, -221
0.199959, -601, 249, 1351, -490, 760, -221
0.200094, -601, 249, 1351, -490, 760, -221
0.200228, -601, 249, 1351, -490, 760, -221
0.200363, -601, 249, 1351, -490, 760, -221
0.200497, -601, 249, 1351, -490, 760, -221
0.200633, -332, 353, 2039, -750, -84, -6
0.200768, -332, 353, 2039, -750, -84, -6
0.200902, -332, 353, 2039, -750, -84, -6
0.201037, -332, 353, 2039, -750, -84, -6
0.201171, -332, 353, 2039, -750, -84, -6
0.201306, -332, 353, 2039, -750, -84, -6
0.201440, -332, 353, 2039, -750, -84, -6
0.201575, -332, 353, 2039, -750, -84, -6
0.201709, -896, 240, 2381, -579, -670, 139
0.201844, -896, 240, 2381, -579, -670, 139
0.201979, -896, 240, 2381, -579, -670, 139
0.202113, -896, 240, 2381, -579, -670, 139
0.202248, -896, 240, 2381, -579, -670, 139
0.202382, -896, 240, 2381, -579, -670, 139
0.202517, -896, 240, 2381, -579, -670, 139
0.202651, -896, 240, 2381, -579, -670, 139
0.202786, -2095, 68, 1906, -369, -1000, 888
0.202921, -2095, 68, 1906, -369, -1000, 888
0.203055, -2095, 68, 1906, -369, -1000, 888
0.203190, -2095, 68, 1906, -369, -1000, 888
0.203324, -2095, 68, 1906, -369, -1000, 888
0.203459, -2095, 68, 1906, -369, -1000, 888
0.203594, -2095, 68, 1906, -369, -1000, 888
0.203728, -1473, 171, 1654, -426, -1259, 2138
0.203863, -1473, 171, 1654, -426, -1259, 2138
0.203997, -1473, 171, 1654, -426, -1259, 2138
0.204132, -1473, 171, 1654, -426, -1259, 2138
0.204267, -1473, 171, 1654, -426, -1259, 2138
0.204401, -1473, 171, 1654, -426, -1259, 2138
0.204536, -1473, 171, 1654, -426, -1259, 2138
0.204671, -1473, 171, 1654, -426, -1259, 2138
0.204805, 991, 322, 2108, -663, -1445, 2487
0.204940, 991, 322, 2108, -663, -1445, 2487
0.205075, 991, 322, 2108, -663, -1445, 2487
0.205209, 991, 322, 2108, -663, -1445, 2487
0.205344, 991, 322, 2108, -663, -1445, 2487
0.205478, 991, 322, 2108, -663, -1445, 2487
0.205613, 991, 322, 2108, -663, -1445, 2487
0.205747, 2318, 244, 2469, -798, -1338, 1360
0.205882, 2318, 244, 2469, -798, -1338, 1360
0.206017, 2318, 244, 2469, -798, -1338, 1360
0.206151, 2318, 244, 2469, -798, -1338, 1360
0.206286, 2318, 244, 2469, -798, -1338, 1360
0.206420, 2318, 244, 2469, -798, -1338, 1360
0.206555, 2318, 244, 2469, -798, -1338, 1360
0.206690, 2318, 244, 2469, -798, -1338, 1360
0.206824, 1370, 122, 2234, -769, -813, -31
0.206959, 1370, 122, 2234, -769, -813, -31
0.207093, 1370, 122, 2234, -769, -813, -31
0.207228, 1370, 122, 2234, -769, -813, -31
0.207363, 1370, 122, 2234, -769, -813, -31
0.207497, 1370, 122, 2234, -769, -813, -31
0.207632, 1370, 122, 2234, -769, -813, -31
0.207766, 20, 122, 1970, -680, -72, -626
0.207901, 20, 122, 1970, -680, -72, -626
0.208036, 20, 122, 1970, -680, -72, -626
0.208170, 20, 122, 1970, -680, -72, -626
0.208305, 20, 122, 1970, -680, -72, -626
0.208439, 20, 122, 1970, -680, -72, -626
0.208574, 20, 122, 1970, -680, -72, -626
0.208709, 20, 122, 1970, -680, -72, -626
0.208843, -602, 21, 2055, -558, 515, -650
0.208978, -602, 21, 2055, -558, 515, -650
0.209113, -602, 21, 2055, -558, 515, -650
0.209247, -602, 21, 2055, -558, 515, -650
0.209382, -602, 21, 2055, -558, 515, -650
0.209516, -602, 21, 2055, -558, 515, -650
0.209651, -602, 21, 2055, -558, 515, -650
0.209786, -501, 42, 2259, -388, 750, -480
0.209920, -501, 42, 2259, -388, 750, -480
0.210055, -501, 42, 2259, -388, 750, -480
0.210189, -501, 42, 2259, -388, 750, -480
0.210324, -501, 42, 2259, -388, 750, -480
0.210459, -501, 42, 2259, -388, 750, -480
0.210593, -501, 42, 2259, -388, 750, -480
0.210728, -501, 42, 2259, -388, 750, -480
0.210862, 457, 271, 2547, -194, 716, -481
0.211004, 457, 271, 2547, -194, 716, -481
0.211139, 457, 271, 2547, -194, 716, -481
0.211274, 457, 271, 2547, -194, 716, -481
0.211408, 457, 271, 2547, -194, 716, -481
0.211543, 457, 271, 2547, -194, 716, -481
0.211677, 457, 271, 2547, -194, 716, -481
0.211812, 1689, 326, 2833, 39, 686, -1149
0.211947, 1689, 326, 2833, 39, 686, -1149
0.212081, 1689, 326, 2833, 39, 686, -1149
0.212216, 1689, 326, 2833, 39, 686, -1149
0.212351, 1689, 326, 2833, 39, 686, -1149
0.212485, 1689, 326, 2833, 39, 686, -1149
0.212620, 1689, 326, 2833, 39, 686, -1149
0.212755, 1689, 326, 2833, 39, 686, -1149
0.212889, 1787, 108, 2729, 369, 839, -2380
0.213024, 1787, 108, 2729, 369, 839, -2380
0.213159, 1787, 108, 2729, 369, 839, -2380
0.213293, 1787, 108, 2729, 369, 839, -2380
0.213428, 1787, 108, 2729, 369, 839, -2380
0.213563, 1787, 108, 2729, 369, 839, -2380
0.213697, 1787, 108, 2729, 369, 839, -2380
0.213832, 22, 33, 2118, 681, 1111, -3242
0.213967, 22, 33, 2118, 681, 1111, -3242
0.214102, 22, 33, 2118, 681, 1111, -3242
0.214236, 22, 33, 2118, 681, 1111, -3242
0.214371, 22, 33, 2118, 681, 1111, -3242
0.214505, 22, 33, 2118, 681, 1111, -3242
0.214640, 22, 33, 2118, 681, 1111, -3242
0.214774, 22, 33, 2118, 681, 1111, -3242
0.214909, -2217, 291, 1491, 778, 1272, -2823
0.215043, -2217, 291, 1491, 778, 1272, -2823
0.215178, -2217, 291, 1491, 778, 1272, -2823
0.215312, -2217, 291, 1491, 778, 1272, -2823
0.215446, -2217, 291, 1491, 778, 1272, -2823
0.215581, -2217, 291, 1491, 778, 1272, -2823
0.215715, -2217, 291, 1491, 778, 1272, -2823
0.215850, -3488, 358, 1134, 570, 1105, -1231
0.215984, -3488, 358, 1134, 570, 1105, -1231
0.216119, -3488, 358, 1134, 570, 1105, -1231
0.216253, -3488, 358, 1134, 570, 1105, -1231
0.216388, -3488, 358, 1134, 570, 1105, -1231
0.216522, -3488, 358, 1134, 570, 1105, -1231
0.216657, -3488, 358, 1134, 570, 1105, -1231
0.216791, -3488, 358, 1134, 570, 1105, -1231
0.216926, -4115, 249, 835, -27, 632, 1000
0.217060, -4115, 249, 835, -27, 632, 1000
0.217195, -4115, 249, 835, -27, 632, 1000
0.217329, -4115, 249, 835, -27, 632, 1000
0.217464, -4115, 249, 835, -27, 632, 1000
0.217598, -4115, 249, 835, -27, 632, 1000
0.217733, -4115, 249, 835, -27, 632, 1000
0.217867, -3541, 280, 991, -931, -81, 3468
0.218002, -3541, 280, 991, -931, -81, 3468
0.218136, -3541, 280, 991, -931, -81, 3468
0.218271, -3541, 280, 991, -931, -81, 3468
0.218405, -3541, 280, 991, -931, -81, 3468
0.218540, -3541, 280, 991, -931, -81, 3468
0.218674, -3541, 280, 991, -931, -81, 3468
0.218809, -3541, 280, 991, -931, -81, 3468
0.218943, -1123, 320, 1838, -1736, -906, 5164
0.219078, -1123, 320, 1838, -1736, -906, 5164
0.219212, -1123, 320, 1838, -1736, -906, 5164
0.219347, -1123, 320, 1838, -1736, -906, 5164
0.219481, -1123, 320, 1838, -1736, -906, 5164
0.219616, -1123, 320, 1838, -1736, -906, 5164
0.219751, -1123, 320, 1838, -1736, -906, 5164
0.219885, -1123, 320, 1838, -1736, -906, 5164
0.220020, 1277, 250, 2494, -2138, -1523, 5225
0.220155, 1277, 250, 2494, -2138, -1523, 5225
0.220289, 1277, 250, 2494, -2138, -1523, 5225
0.220424, 1277, 250, 2494, -2138, -1523, 5225
0.220559, 1277, 250, 2494, -2138, -1523, 5225
0.220694, 1277, 250, 2494, -2138, -1523, 5225
0.220828, 1277, 250, 2494, -2138, -1523, 5225
0.220963, 2840, 165, 2631, -2164, -1833, 3987
0.221097, 2840, 165, 2631, -2164, -1833, 3987
0.221232, 2840, 165, 2631, -2164, -1833, 3987
0.221367, 2840, 165, 2631, -2164, -1833, 3987
0.221501, 2840, 165, 2631, -2164, -1833, 3987
0.221636, 2840, 165, 2631, -2164, -1833, 3987
0.221770, 2840, 165, 2631, -2164, -1833, 3987
0.221905, 2840, 165, 2631, -2164, -1833, 3987
0.222039, 4239, 114, 2701, -1877, -1880, 1856
0.222174, 4239, 114, 2701, -1877, -1880, 1856
0.222309, 4239, 114, 2701, -1877, -1880, 1856
0.222443, 4239, 114, 2701, -1877, -1880, 1856
0.222578, 4239, 114, 2701, -1877, -1880, 1856
0.222712, 4239, 114, 2701, -1877, -1880, 1856
0.222847, 4239, 114, 2701, -1877, -1880, 1856
0.222982, 4920, 31, 2704, -1299, -1569, -1013
0.223116, 4920, 31, 2704, -1299, -1569, -1013
0.223251, 4920, 31, 2704, -1299, -1569, -1013
0.223386, 4920, 31, 2704, -1299, -1569, -1013
0.223524, 4920, 31, 2704, -1299, -1569, -1013
0.223659, 4920, 31, 2704, -1299, -1569, -1013
0.223794, 4920, 31, 2704, -1299, -1569, -1013
0.223928, 4920, 31, 2704, -1299, -1569, -1013
0.224063, 4596, 12, 2606, -486, -914, -4078
0.224198, 4596, 12, 2606, -486, -914, -4078
0.224332, 4596, 12, 2606, -486, -914, -4078
0.224467, 4596, 12, 2606, -486, -914, -4078
0.224605, 4596, 12, 2606, -486, -914, -4078
0.224740, 4596, 12, 2606, -486, -914, -4078
0.224874, 4596, 12, 2606, -486, -914, -4078
0.225009, 2917, 25, 2090, 330, 101, -6663
0.225144, 2917, 25, 2090, 330, 101, -6663
0.225279, 2917, 25, 2090, 330, 101, -6663
0.225413, 2917, 25, 2090, 330, 101, -6663
0.225548, 2917, 25, 2090, 330, 101, -6663
0.225682, 2917, 25, 2090, 330, 101, -6663
0.225817, 2917, 25, 2090, 330, 101, -6663
0.225952, 2917, 25, 2090, 330, 101, -6663
0.226086, -402, 28, 1483, 784, 1483, -7802
0.226221, -402, 28, 1483, 784, 1483, -7802
0.226356, -402, 28, 1483, 784, 1483, -7802
0.226490, -402, 28, 1483, 784, 1483, -7802
0.226625, -402, 28, 1483, 784, 1483, -7802
0.226759, -402, 28, 1483, 784, 1483, -7802
0.226894, -402, 28, 1483, 784, 1483, -7802
0.227029, -2849, 45, 2157, 1101, 2720, -6895
0.227163, -2849, 45, 2157, 1101, 2720, -6895
0.227298, -2849, 45, 2157, 1101, 2720, -6895
0.227433, -2849, 45, 2157, 1101, 2720, -6895
0.227567, -2849, 45, 2157, 1101, 2720, -6895
0.227702, -2849, 45, 2157, 1101, 2720, -6895
0.227836, -2849, 45, 2157, 1101, 2720, -6895
0.227971, -2849, 45, 2157, 1101, 2720, -6895
0.228106, -1951, 256, 3730, 1980, 3309, -5169
0.228240, -1951, 256, 3730, 1980, 3309, -5169
0.228375, -1951, 256, 3730, 1980, 3309, -5169
0.228509, -1951, 256, 3730, 1980, 3309, -5169
0.228645, -1951, 256, 3730, 1980, 3309, -5169
0.228779, -1951, 256, 3730, 1980, 3309, -5169
0.228914, -1951, 256, 3730, 1980, 3309, -5169
0.229048, -861, 522, 2234, 2739, 3385, -4345
0.229183, -861, 522, 2234, 2739, 3385, -4345
0.229318, -861, 522, 2234, 2739, 3385, -4345
0.229452, -861, 522, 2234, 2739, 3385, -4345
0.229587, -861, 522, 2234, 2739, 3385, -4345
0.229721, -861, 522, 2234, 2739, 3385, -4345
0.229856, -861, 522, 2234, 2739, 3385, -4345
0.229990, -861, 522, 2234, 2739, 3385, -4345
0.230125, -2657, 124, -1537, 1392, 3043, -3645
0.230260, -2657, 124, -1537, 1392, 3043, -3645
0.230394, -2657, 124, -1537, 1392, 3043, -3645
0.230529, -2657, 124, -1537, 1392, 3043, -3645
0.230664, -2657, 124, -1537, 1392, 3043, -3645
0.230798, -2657, 124, -1537, 1392, 3043, -3645
0.230933, -2657, 124, -1537, 1392, 3043, -3645
0.231067, -2588, -242, -510, -1112, 1875, -1920
0.231202, -2588, -242, -510, -1112, 1875, -1920
0.231337, -2588, -242, -510, -1112, 1875, -1920
0.231471, -2588, -242, -510, -1112, 1875, -1920
0.231606, -2588, -242, -510, -1112, 1875, -1920
0.231740, -2588, -242, -510, -1112, 1875, -1920
0.231875, -2588, -242, -510, -1112, 1875, -1920
0.232009, -2588, -242, -510, -1112, 1875, -1920
0.232144, 228, 70, 3055, -1938, 450, -1006
0.232279, 228, 70, 3055, -1938, 450, -1006
0.232413, 228, 70, 3055, -1938, 450, -1006
0.232548, 228, 70, 3055, -1938, 450, -1006
0.232683, 228, 70, 3055, -1938, 450, -1006
0.232817, 228, 70, 3055, -1938, 450, -1006
0.232952, 228, 70, 3055, -1938, 450, -1006
0.233086, 275, 353, 2838, -1520, -251, -1487
0.233221, 275, 353, 2838, -1520, -251, -1487
0.233356, 275, 353, 2838, -1520, -251, -1487
0.233490, 275, 353, 2838, -1520, -251, -1487
0.233625, 275, 353, 2838, -1520, -251, -1487
0.233760, 275, 353, 2838, -1520, -251, -1487
0.233894, 275, 353, 2838, -1520, -251, -1487
0.234029, 275, 353, 2838, -1520, -251, -1487
0.234163, -806, 407, 1409, -1445, -745, -1471
0.234303, -806, 407, 1409, -1445, -745, -1471
0.234448, -806, 407, 1409, -1445, -745, -1471
0.234589, -806, 407, 1409, -1445, -745, -1471
0.234731, -806, 407, 1409, -1445, -745, -1471
0.234870, -806, 407, 1409, -1445, -745, -1471
0.235014, -806, 407, 1409, -1445, -745, -1471
0.235153, -203, 360, 1887, -1585, -1092, -1023
0.235299, -203, 360, 1887, -1585, -1092, -1023
0.235441, -203, 360, 1887, -1585, -1092, -1023
0.235583, -203, 360, 1887, -1585, -1092, -1023
0.235724, -203, 360, 1887, -1585, -1092, -1023
0.235885, -203, 360, 1887, -1585, -1092, -1023
0.236027, -203, 360, 1887, -1585, -1092, -1023
0.236166, -125, 319, 2307, -1541, -963, -929
0.236311, -125, 319, 2307, -1541, -963, -929
0.236451, -125, 319, 2307, -1541, -963, -929
0.236590, -125, 319, 2307, -1541, -963, -929
0.236734, -125, 319, 2307, -1541, -963, -929
0.236871, -125, 319, 2307, -1541, -963, -929
0.237011, -125, 319, 2307, -1541, -963, -929
0.237150, -199, 308, 1956, -1434, -1052, -832
0.237294, -199, 308, 1956, -1434, -1052, -832
0.237435, -199, 308, 1956, -1434, -1052, -832
0.237575, -199, 308, 1956, -1434, -1052, -832
0.237711, -199, 308, 1956, -1434, -1052, -832
0.237848, -199, 308, 1956, -1434, -1052, -832
0.237987, -199, 308, 1956, -1434, -1052, -832
0.238125, -199, 308, 1956, -1434, -1052, -832
0.238262, 948, 340, 2086, -1323, -1121, -943
0.238400, 948, 340, 2086, -1323, -1121, -943
0.238541, 948, 340, 2086, -1323, -1121, -943
0.238680, 948, 340, 2086, -1323, -1121, -943
0.238819, 948, 340, 2086, -1323, -1121, -943
0.238960, 948, 340, 2086, -1323, -1121, -943
0.239100, 948, 340, 2086, -1323, -1121, -943
0.239239, 1415, 362, 2257, -1264, -546, -1672
0.239382, 1415, 362, 2257, -1264, -546, -1672
0.239522, 1415, 362, 2257, -1264, -546, -1672
0.239661, 1415, 362, 2257, -1264, -546, -1672
0.239802, 1415, 362, 2257, -1264, -546, -1672
0.239942, 1415, 362, 2257, -1264, -546, -1672
0.240081, 1415, 362, 2257, -1264, -546, -1672
0.240222, 376, 350, 1930, -1304, 251, -2336
0.240365, 376, 350, 1930, -1304, 251, -2336
0.240503, 376, 350, 1930, -1304, 251, -2336
0.240644, 376, 350, 1930, -1304, 251, -2336
0.240783, 376, 350, 1930, -1304, 251, -2336
0.240922, 376, 350, 1930, -1304, 251, -2336
0.241061, 376, 350, 1930, -1304, 251, -2336
0.241200, -625, 349, 1606, -1383, 908, -2327
0.241343, -625, 349, 1606, -1383, 908, -2327
0.241482, -625, 349, 1606, -1383, 908, -2327
0.241623, -625, 349, 1606, -1383, 908, -2327
0.241763, -625, 349, 1606, -1383, 908, -2327
0.241903, -625, 349, 1606, -1383, 908, -2327
0.242044, -625, 349, 1606, -1383, 908, -2327
0.242183, -625, 349, 1606, -1383, 908, -2327
0.242321, -1271, 270, 1764, -1521, 1401, -1822
0.242463, -1271, 270, 1764, -1521, 1401, -1822
0.242606, -1271, 270, 1764, -1521, 1401, -1822
0.242749, -1271, 270, 1764, -1521, 1401, -1822
0.242892, -1271, 270, 1764, -1521, 1401, -1822
0.243040, -1271, 270, 1764, -1521, 1401, -1822
0.243179, -1271, 270, 1764, -1521, 1401, -1822
0.243315, -1206, 238, 2164, -1573, 1483, -1083
0.243451, -1206, 238, 2164, -1573, 1483, -1083
0.243587, -1206, 238, 2164, -1573, 1483, -1083
0.243722, -1206, 238, 2164, -1573, 1483, -1083
0.243858, -1206, 238, 2164, -1573, 1483, -1083
0.243992, -1206, 238, 2164, -1573, 1483, -1083
0.244127, -1206, 238, 2164, -1573, 1483, -1083
0.244261, -236, 307, 2266, -1547, 1157, -643
0.244396, -236, 307, 2266, -1547, 1157, -643
0.244530, -236, 307, 2266, -1547, 1157, -643
0.244665, -236, 307, 2266, -1547, 1157, -643
0.244800, -236, 307, 2266, -1547, 1157, -643
0.244934, -236, 307, 2266, -1547, 1157, -643
0.245068, -236, 307, 2266, -1547, 1157, -643
0.245203, -236, 307, 2266, -1547, 1157, -643
0.245337, 427, 419, 2157, -1628, 772, -796
0.245472, 427, 419, 2157, -1628, 772, -796
0.245606, 427, 419, 2157, -1628, 772, -796
0.245741, 427, 419, 2157, -1628, 772, -796
0.245875, 427, 419, 2157, -1628, 772, -796
0.246014, 427, 419, 2157, -1628, 772, -796
0.246145, 427, 419, 2157, -1628, 772, -796
0.246281, 796, 421, 2200, -1730, 431, -1272
0.246415, 796, 421, 2200, -1730, 431, -1272
0.246550, 796, 421, 2200, -1730, 431, -1272
0.246684, 796, 421, 2200, -1730, 431, -1272
0.246819, 796, 421, 2200, -1730, 431, -1272
0.246953, 796, 421, 2200, -1730, 431, -1272
0.247087, 796, 421, 2200, -1730, 431, -1272
0.247222, 796, 421, 2200, -1730, 431, -1272
0.247356, -192, -45, 2464, -1668, 216, -1795
0.247491, -192, -45, 2464, -1668, 216, -1795
0.247625, -192, -45, 2464, -1668, 216, -1795
0.247760, -192, -45, 2464, -1668, 216, -1795
0.247894, -192, -45, 2464, -1668, 216, -1795
0.248028, -192, -45, 2464, -1668, 216, -1795
0.248163, -192, -45, 2464, -1668, 216, -1795
0.248325, -3637, -428, 2539, -1349, 145, -1186
0.248463, -3637, -428, 2539, -1349, 145, -1186
0.248604, -3637, -428, 2539, -1349, 145, -1186
0.248740, -3637, -428, 2539, -1349, 145, -1186
0.248874, -3637, -428, 2539, -1349, 145, -1186
0.249009, -3637, -428, 2539, -1349, 145, -1186
0.249143, -3637, -428, 2539, -1349, 145, -1186
0.249278, -3637, -428, 2539, -1349, 145, -1186
0.249412, -5347, -5, 2020, -1053, -158, 1378
0.249547, -5347, -5, 2020, -1053, -158, 1378
0.249676, -5347, -5, 2020, -1053, -158, 1378
0.249812, -5347, -5, 2020, -1053, -158, 1378
0.249949, -5347, -5, 2020, -1053, -158, 1378
0.250084, -5347, -5, 2020, -1053, -158, 1378
0.250218, -5347, -5, 2020, -1053, -158, 1378
0.250353, -2799, 423, 1705, -1276, -850, 3980
0.250487, -2799, 423, 1705, -1276, -850, 3980
0.250622, -2799, 423, 1705, -1276, -850, 3980
0.250756, -2799, 423, 1705, -1276, -850, 3980
0.250891, -2799, 423, 1705, -1276, -850, 3980
0.251025, -2799, 423, 1705, -1276, -850, 3980
0.251155, -2799, 423, 1705, -1276, -850, 3980
0.251290, -2799, 423, 1705, -1276, -850, 3980
0.251424, -71, 269, 2106, -1881, -1543, 4741
0.251559, -71, 269, 2106, -1881, -1543, 4741
0.251693, -71, 269, 2106, -1881, -1543, 4741
0.251828, -71, 269, 2106, -1881, -1543, 4741
0.251962, -71, 269, 2106, -1881, -1543, 4741
0.252097, -71, 269, 2106, -1881, -1543, 4741
0.252231, -71, 269, 2106, -1881, -1543, 4741
0.252366, 171, 135, 2324, -2390, -1884, 4469
0.252500, 171, 135, 2324, -2390, -1884, 4469
0.252635, 171, 135, 2324, -2390, -1884, 4469
0.252769, 171, 135, 2324, -2390, -1884, 4469
0.252904, 171, 135, 2324, -2390, -1884, 4469
0.253038, 171, 135, 2324, -2390, -1884, 4469
0.253173, 171, 135, 2324, -2390, -1884, 4469
0.253307, 171, 135, 2324, -2390, -1884, 4469
0.253442, -471, 241, 2103, -2682, -1871, 4463
0.253576, -471, 241, 2103, -2682, -1871, 4463
0.253711, -471, 241, 2103, -2682, -1871, 4463
0.253845, -471, 241, 2103, -2682, -1871, 4463
0.253979, -471, 241, 2103, -2682, -1871, 4463
0.254114, -471, 241, 2103, -2682, -1871, 4463
0.254248, -471, 241, 2103, -2682, -1871, 4463
0.254383, -290, 256, 2028, -2775, -1706, 4669
0.254517, -290, 256, 2028, -2775, -1706, 4669
0.254647, -290, 256, 2028, -2775, -1706, 4669
0.254783, -290, 256, 2028, -2775, -1706, 4669
0.254918, -290, 256, 2028, -2775, -1706, 4669
0.255052, -290, 256, 2028, -2775, -1706, 4669
0.255187, -290, 256, 2028, -2775, -1706, 4669
0.255321, -290, 256, 2028, -2775, -1706, 4669
0.255456, 397, 150, 2166, -2714, -1559, 4535
0.255590, 397, 150, 2166, -2714, -1559, 4535
0.255725, 397, 150, 2166, -2714, -1559, 4535
0.255856, 397, 150, 2166, -2714, -1559, 4535
0.255990, 397, 150, 2166, -2714, -1559, 4535
0.256125, 397, 150, 2166, -2714, -1559, 4535
0.256259, 397, 150, 2166, -2714, -1559, 4535
0.256393, 813, 107, 2248, -2631, -1445, 4069
0.256528, 813, 107, 2248, -2631, -1445, 4069
0.256663, 813, 107, 2248, -2631, -1445, 4069
0.256797, 813, 107, 2248, -2631, -1445, 4069
0.256932, 813, 107, 2248, -2631, -1445, 4069
0.257067, 813, 107, 2248, -2631, -1445, 4069
0.257201, 813, 107, 2248, -2631, -1445, 4069
0.257335, 813, 107, 2248, -2631, -1445, 4069
0.257470, 1208, 82, 2396, -2551, -1272, 3445
0.257604, 1208, 82, 2396, -2551, -1272, 3445
0.257739, 1208, 82, 2396, -2551, -1272, 3445
0.257873, 1208, 82, 2396, -2551, -1272, 3445
0.258008, 1208, 82, 2396, -2551, -1272, 3445
0.258142, 1208, 82, 2396, -2551, -1272, 3445
0.258277, 1208, 82, 2396, -2551, -1272, 3445
0.258411, 1917, 47, 3008, -2222, -938, 2504
0.258546, 1917, 47, 3008, -2222, -938, 2504
0.258680, 1917, 47, 3008, -2222, -938, 2504
0.258815, 1917, 47, 3008, -2222, -938, 2504
0.258949, 1917, 47, 3008, -2222, -938, 2504
0.259084, 1917, 47, 3008, -2222, -938, 2504
0.259218, 1917, 47, 3008, -2222, -938, 2504
0.259353, 1917, 47, 3008, -2222, -938, 2504
0.259487, 3372, 283, 4084, -1278, -479, 957
0.259622, 3372, 283, 4084, -1278, -479, 957
0.259756, 3372, 283, 4084, -1278, -479, 957
0.259891, 3372, 283, 4084, -1278, -479, 957
0.260025, 3372, 283, 4084, -1278, -479, 957
0.260160, 3372, 283, 4084, -1278, -479, 957
0.260294, 3372, 283, 4084, -1278, -479, 957
0.260429, 3372, 283, 4084, -1278, -479, 957
0.260582, 5203, 851, 4807, 334, 77, -1627
0.260720, 5203, 851, 4807, 334, 77, -1627
0.260854, 5203, 851, 4807, 334, 77, -1627
0.260989, 5203, 851, 4807, 334, 77, -1627
0.261123, 5203, 851, 4807, 334, 77, -1627
0.261258, 5203, 851, 4807, 334, 77, -1627
0.261392, 5203, 851, 4807, 334, 77, -1627
0.261526, 4210, 1208, 4880, 2266, 959, -4847
0.261661, 4210, 1208, 4880, 2266, 959, -4847
0.261795, 4210, 1208, 4880, 2266, 959, -4847
0.261930, 4210, 1208, 4880, 2266, 959, -4847
0.262064, 4210, 1208, 4880, 2266, 959, -4847
0.262199, 4210, 1208, 4880, 2266, 959, -4847
0.262333, 4210, 1208, 4880, 2266, 959, -4847
0.262467, 1410, 1877, 5124, 4533, 2055, -6768
0.262602, 1410, 1877, 5124, 4533, 2055, -6768
0.262736, 1410, 1877, 5124, 4533, 2055, -6768
0.262871, 1410, 1877, 5124, 4533, 2055, -6768
0.263005, 1410, 1877, 5124, 4533, 2055, -6768
0.263139, 1410, 1877, 5124, 4533, 2055, -6768
0.263274, 1410, 1877, 5124, 4533, 2055, -6768
0.263408, 1410, 1877, 5124, 4533, 2055, -6768
0.263543, -1279, 378, 2887, 6467, 2826, -6963
0.263677, -1279, 378, 2887, 6467, 2826, -6963
0.263812, -1279, 378, 2887, 6467, 2826, -6963
0.263946, -1279, 378, 2887, 6467, 2826, -6963
0.264080, -1279, 378, 2887, 6467, 2826, -6963
0.264215, -1279, 378, 2887, 6467, 2826, -6963
0.264349, -1279, 378, 2887, 6467, 2826, -6963
0.264484, -1279, 378, 2887, 6467, 2826, -6963
0.264619, -5879, -2385, -1466, 6386, 2869, -5187
0.264754, -5879, -2385, -1466, 6386, 2869, -5187
0.264888, -5879, -2385, -1466, 6386, 2869, -5187
0.265023, -5879, -2385, -1466, 6386, 2869, -5187
0.265157, -5879, -2385, -1466, 6386, 2869, -5187
0.265292, -5879, -2385, -1466, 6386, 2869, -5187
0.265426, -5879, -2385, -1466, 6386, 2869, -5187
0.265560, -7433, -875, -3354, 4070, 1609, -889
0.265695, -7433, -875, -3354, 4070, 1609, -889
0.265830, -7433, -875, -3354, 4070, 1609, -889
0.265964, -7433, -875, -3354, 4070, 1609, -889
0.266098, -7433, -875, -3354, 4070, 1609, -889
0.266233, -7433, -875, -3354, 4070, 1609, -889
0.266367, -7433, -875, -3354, 4070, 1609, -889
0.266502, -7433, -875, -3354, 4070, 1609, -889
0.266636, -4694, 872, -2269, 580, -106, 3050
0.266771, -4694, 872, -2269, 580, -106, 3050
0.266905, -4694, 872, -2269, 580, -106, 3050
0.267040, -4694, 872, -2269, 580, -106, 3050
0.267174, -4694, 872, -2269, 580, -106, 3050
0.267309, -4694, 872, -2269, 580, -106, 3050
0.267443, -4694, 872, -2269, 580, -106, 3050
0.267577, -2295, 280, 980, -2172, -1105, 4983
0.267712, -2295, 280, 980, -2172, -1105, 4983
0.267847, -2295, 280, 980, -2172, -1105, 4983
0.267981, -2295, 280, 980, -2172, -1105, 4983
0.268115, -2295, 280, 980, -2172, -1105, 4983
0.268250, -2295, 280, 980, -2172, -1105, 4983
0.268385, -2295, 280, 980, -2172, -1105, 4983
0.268519, -2295, 280, 980, -2172, -1105, 4983
0.268654, -275, 168, 2786, -2968, -1855, 5729
0.268788, -275, 168, 2786, -2968, -1855, 5729
0.268923, -275, 168, 2786, -2968, -1855, 5729
0.269058, -275, 168, 2786, -2968, -1855, 5729
0.269192, -275, 168, 2786, -2968, -1855, 5729
0.269326, -275, 168, 2786, -2968, -1855, 5729
0.269461, -275, 168, 2786, -2968, -1855, 5729
0.269596, 318, 226, 2172, -3079, -2174, 5658
0.269730, 318, 226, 2172, -3079, -2174, 5658
0.269865, 318, 226, 2172, -3079, -2174, 5658
0.269999, 318, 226, 2172, -3079, -2174, 5658
0.270134, 318, 226, 2172, -3079, -2174, 5658
0.270269, 318, 226, 2172, -3079, -2174, 5658
0.270403, 318, 226, 2172, -3079, -2174, 5658
0.270538, 318, 226, 2172, -3079, -2174, 5658
0.270672, -171, 140, 1925, -3306, -2452, 5498
0.270807, -171, 140, 1925, -3306, -2452, 5498
0.270942, -171, 140, 1925, -3306, -2452, 5498
0.271076, -171, 140, 1925, -3306, -2452, 5498
0.271211, -171, 140, 1925, -3306, -2452, 5498
0.271345, -171, 140, 1925, -3306, -2452, 5498
0.271480, -171, 140, 1925, -3306, -2452, 5498
0.271615, -62, 95, 1998, -3224, -3331, 5418
0.271750, -62, 95, 1998, -3224, -3331, 5418
0.271884, -62, 95, 1998, -3224, -3331, 5418
0.272019, -62, 95, 1998, -3224, -3331, 5418
0.272154, -62, 95, 1998, -3224, -3331, 5418
0.272288, -62, 95, 1998, -3224, -3331, 5418
0.272423, -62, 95, 1998, -3224, -3331, 5418
0.272558, -62, 95, 1998, -3224, -3331, 5418
0.272699, 168, 112, 2042, -2912, -3992, 5195
0.272836, 168, 112, 2042, -2912, -3992, 5195
0.272971, 168, 112, 2042, -2912, -3992, 5195
0.273105, 168, 112, 2042, -2912, -3992, 5195
0.273240, 168, 112, 2042, -2912, -3992, 5195
0.273375, 168, 112, 2042, -2912, -3992, 5195
0.273509, 168, 112, 2042, -2912, -3992, 5195
0.273644, 313, 137, 2136, -2653, -4113, 5007
0.273779, 313, 137, 2136, -2653, -4113, 5007
0.273913, 313, 137, 2136, -2653, -4113, 5007
0.274048, 313, 137, 2136, -2653, -4113, 5007
0.274183, 313, 137, 2136, -2653, -4113, 5007
0.274317, 313, 137, 2136, -2653, -4113, 5007
0.274452, 313, 137, 2136, -2653, -4113, 5007
0.274587, 313, 137, 2136, -2653, -4113, 5007
0.274721, 422, 166, 2273, -2486, -3679, 4887
0.274856, 422, 166, 2273, -2486, -3679, 4887
0.274991, 422, 166, 2273, -2486, -3679, 4887
0.275125, 422, 166, 2273, -2486, -3679, 4887
0.275260, 422, 166, 2273, -2486, -3679, 4887
0.275395, 422, 166, 2273, -2486, -3679, 4887
0.275529, 422, 166, 2273, -2486, -3679, 4887
0.275664, 284, 188, 2307, -2390, -2580, 4752
0.275799, 284, 188, 2307, -2390, -2580, 4752
0.275933, 284, 188, 2307, -2390, -2580, 4752
0.276068, 284, 188, 2307, -2390, -2580, 4752
0.276203, 284, 188, 2307, -2390, -2580, 4752
0.276337, 284, 188, 2307, -2390, -2580, 4752
0.276472, 284, 188, 2307, -2390, -2580, 4752
0.276608, 284, 188, 2307, -2390, -2580, 4752
0.276742, -100, 231, 2141, -2386, -1233, 4682
0.276877, -100, 231, 2141, -2386, -1233, 4682
0.277007, -100, 231, 2141, -2386, -1233, 4682
0.277143, -100, 231, 2141, -2386, -1233, 4682
0.277280, -100, 231, 2141, -2386, -1233, 4682
0.277416, -100, 231, 2141, -2386, -1233, 4682
0.277551, -100, 231, 2141, -2386, -1233, 4682
0.277685, -389, 267, 1967, -2527, -118, 4753
0.277820, -389, 267, 1967, -2527, -118, 4753
0.277955, -389, 267, 1967, -2527, -118, 4753
0.278089, -389, 267, 1967, -2527, -118, 4753
0.278224, -389, 267, 1967, -2527, -118, 4753
0.278359, -389, 267, 1967, -2527, -118, 4753
0.278494, -389, 267, 1967, -2527, -118, 4753
0.278629, -389, 267, 1967, -2527, -118, 4753
0.278764, -305, 246, 1981, -2773, 562, 4855
0.278899, -305, 246, 1981, -2773, 562, 4855
0.279033, -305, 246, 1981, -2773, 562, 4855
0.279168, -305, 246, 1981, -2773, 562, 4855
0.279303, -305, 246, 1981, -2773, 562, 4855
0.279437, -305, 246, 1981, -2773, 562, 4855
0.279572, -305, 246, 1981, -2773, 562, 4855
0.279706, -36, 202, 2107, -2986, 787, 4793
0.279841, -36, 202, 2107, -2986, 787, 4793
0.279976, -36, 202, 2107, -2986, 787, 4793
0.280111, -36, 202, 2107, -2986, 787, 4793
0.280245, -36, 202, 2107, -2986, 787, 4793
0.280380, -36, 202, 2107, -2986, 787, 4793
0.280515, -36, 202, 2107, -2986, 787, 4793
0.280650, -36, 202, 2107, -2986, 787, 4793
0.280785, 468, 127, 2248, -3109, 676, 4514
0.280920, 468, 127, 2248, -3109, 676, 4514
0.281054, 468, 127, 2248, -3109, 676, 4514
0.281189, 468, 127, 2248, -3109, 676, 4514
0.281324, 468, 127, 2248, -3109, 676, 4514
0.281458, 468, 127, 2248, -3109, 676, 4514
0.281593, 468, 127, 2248, -3109, 676, 4514
0.281727, 2464, 19, 2625, -3054, 366, 3688
0.281862, 2464, 19, 2625, -3054, 366, 3688
0.281997, 2464, 19, 2625, -3054, 366, 3688
0.282131, 2464, 19, 2625, -3054, 366, 3688
0.282266, 2464, 19, 2625, -3054, 366, 3688
0.282401, 2464, 19, 2625, -3054, 366, 3688
0.282536, 2464, 19, 2625, -3054, 366, 3688
0.282670, 2464, 19, 2625, -3054, 366, 3688
0.282805, 6035, -249, 3465, -2608, 33, 1269
0.282940, 6035, -249, 3465, -2608, 33, 1269
0.283074, 6035, -249, 3465, -2608, 33, 1269
0.283209, 6035, -249, 3465, -2608, 33, 1269
0.283344, 6035, -249, 3465, -2608, 33, 1269
0.283478, 6035, -249, 3465, -2608, 33, 1269
0.283613, 6035, -249, 3465, -2608, 33, 1269
0.283748, 6035, -249, 3465, -2608, 33, 1269
0.283882, 7262, -558, 4416, -1500, 111, -3054
0.284017, 7262, -558, 4416, -1500, 111, -3054
0.284152, 7262, -558, 4416, -1500, 111, -3054
0.284286, 7262, -558, 4416, -1500, 111, -3054
0.284421, 7262, -558, 4416, -1500, 111, -3054
0.284556, 7262, -558, 4416, -1500, 111, -3054
0.284691, 7262, -558, 4416, -1500, 111, -3054
0.284825, 3935, -52, 5004, 490, 879, -7061
0.284960, 3935, -52, 5004, 490, 879, -7061
0.285102, 3935, -52, 5004, 490, 879, -7061
0.285237, 3935, -52, 5004, 490, 879, -7061
0.285372, 3935, -52, 5004, 490, 879, -7061
0.285507, 3935, -52, 5004, 490, 879, -7061
0.285641, 3935, -52, 5004, 490, 879, -7061
0.285776, 3935, -52, 5004, 490, 879, -7061
0.285911, 95, 693, 4308, 2966, 2000, -8524
0.286046, 95, 693, 4308, 2966, 2000, -8524
0.286180, 95, 693, 4308, 2966, 2000, -8524
0.286315, 95, 693, 4308, 2966, 2000, -8524
0.286449, 95, 693, 4308, 2966, 2000, -8524
0.286584, 95, 693, 4308, 2966, 2000, -8524
0.286719, 95, 693, 4308, 2966, 2000, -8524
0.286853, -1393, 576, 1590, 4550, 2821, -8267
0.286988, -1393, 576, 1590, 4550, 2821, -8267
0.287123, -1393, 576, 1590, 4550, 2821, -8267
0.287257, -1393, 576, 1590, 4550, 2821, -8267
0.287392, -1393, 576, 1590, 4550, 2821, -8267
0.287526, -1393, 576, 1590, 4550, 2821, -8267
0.287661, -1393, 576, 1590, 4550, 2821, -8267
0.287796, -1393, 576, 1590, 4550, 2821, -8267
0.287930, -3408, 296, -1092, 4141, 2960, -7163
0.288065, -3408, 296, -1092, 4141, 2960, -7163
0.288199, -3408, 296, -1092, 4141, 2960, -7163
0.288334, -3408, 296, -1092, 4141, 2960, -7163
0.288469, -3408, 296, -1092, 4141, 2960, -7163
0.288604, -3408, 296, -1092, 4141, 2960, -7163
0.288739, -3408, 296, -1092, 4141, 2960, -7163
0.288874, -6041, 396, -1239, 2291, 2509, -4305
0.289008, -6041, 396, -1239, 2291, 2509, -4305
0.289143, -6041, 396, -1239, 2291, 2509, -4305
0.289278, -6041, 396, -1239, 2291, 2509, -4305
0.289412, -6041, 396, -1239, 2291, 2509, -4305
0.289547, -6041, 396, -1239, 2291, 2509, -4305
0.289681, -6041, 396, -1239, 2291, 2509, -4305
0.289816, -6041, 396, -1239, 2291, 2509, -4305
0.289950, -5920, 466, 116, 365, 1800, -290
0.290085, -5920, 466, 116, 365, 1800, -290
0.290220, -5920, 466, 116, 365, 1800, -290
0.290355, -5920, 466, 116, 365, 1800, -290
0.290489, -5920, 466, 116, 365, 1800, -290
0.290624, -5920, 466, 116, 365, 1800, -290
0.290758, -5920, 466, 116, 365, 1800, -290
0.290893, -3861, 246, 864, -1100, 1017, 3014
0.291028, -3861, 246, 864, -1100, 1017, 3014
0.291162, -3861, 246, 864, -1100, 1017, 3014
0.291297, -3861, 246, 864, -1100, 1017, 3014
0.291432, -3861, 246, 864, -1100, 1017, 3014
0.291566, -3861, 246, 864, -1100, 1017, 3014
0.291701, -3861, 246, 864, -1100, 1017, 3014
0.291835, -3861, 246, 864, -1100, 1017, 3014
0.291970, -1533, 194, 1464, -2221, 75, 4875
0.292105, -1533, 194, 1464, -2221, 75, 4875
0.292239, -1533, 194, 1464, -2221, 75, 4875
0.292374, -1533, 194, 1464, -2221, 75, 4875
0.292509, -1533, 194, 1464, -2221, 75, 4875
0.292644, -1533, 194, 1464, -2221, 75, 4875
0.292779, -1533, 194, 1464, -2221, 75, 4875
0.292913, -43, 303, 2251, -2959, -858, 5440
0.293048, -43, 303, 2251, -2959, -858, 5440
0.293183, -43, 303, 2251, -2959, -858, 5440
0.293317, -43, 303, 2251, -2959, -858, 5440
0.293452, -43, 303, 2251, -2959, -858, 5440
0.293587, -43, 303, 2251, -2959, -858, 5440
0.293722, -43, 303, 2251, -2959, -858, 5440
0.293857, -43, 303, 2251, -2959, -858, 5440
0.293992, -36, 215, 2269, -3287, -1638, 5396
0.294126, -36, 215, 2269, -3287, -1638, 5396
0.294261, -36, 215, 2269, -3287, -1638, 5396
0.294395, -36, 215, 2269, -3287, -1638, 5396
0.294530, -36, 215, 2269, -3287, -1638, 5396
0.294665, -36, 215, 2269, -3287, -1638, 5396
0.294799, -36, 215, 2269, -3287, -1638, 5396
0.294934, -89, 120, 1996, -3290, -2535, 5296
0.295069, -89, 120, 1996, -3290, -2535, 5296
0.295203, -89, 120, 1996, -3290, -2535, 5296
0.295338, -89, 120, 1996, -3290, -2535, 5296
0.295472, -89, 120, 1996, -3290, -2535, 5296
0.295607, -89, 120, 1996, -3290, -2535, 5296
0.295742, -89, 120, 1996, -3290, -2535, 5296
0.295876, -89, 120, 1996, -3290, -2535, 5296
0.296011, 542, 109, 2198, -3074, -3331, 5019
0.296146, 542, 109, 2198, -3074, -3331, 5019
0.296280, 542, 109, 2198, -3074, -3331, 5019
0.296415, 542, 109, 2198, -3074, -3331, 5019
0.296549, 542, 109, 2198, -3074, -3331, 5019
0.296685, 542, 109, 2198, -3074, -3331, 5019
0.296819, 542, 109, 2198, -3074, -3331, 5019
0.296954, 2097, 117, 2764, -2704, -3659, 4242
0.297089, 2097, 117, 2764, -2704, -3659, 4242
0.297223, 2097, 117, 2764, -2704, -3659, 4242
0.297363, 2097, 117, 2764, -2704, -3659, 4242
0.297499, 2097, 117, 2764, -2704, -3659, 4242
0.297633, 2097, 117, 2764, -2704, -3659, 4242
0.297768, 2097, 117, 2764, -2704, -3659, 4242
0.297903, 2097, 117, 2764, -2704, -3659, 4242
0.298038, 5227, 153, 3580, -2025, -3534, 2264
0.298172, 5227, 153, 3580, -2025, -3534, 2264
0.298307, 5227, 153, 3580, -2025, -3534, 2264
0.298442, 5227, 153, 3580, -2025, -3534, 2264
0.298576, 5227, 153, 3580, -2025, -3534, 2264
0.298711, 5227, 153, 3580, -2025, -3534, 2264
0.298846, 5227, 153, 3580, -2025, -3534, 2264
0.298980, 7366, 23, 4172, -914, -2626, -1597
0.299115, 7366, 23, 4172, -914, -2626, -1597
0.299250, 7366, 23, 4172, -914, -2626, -1597
0.299384, 7366, 23, 4172, -914, -2626, -1597
0.299519, 7366, 23, 4172, -914, -2626, -1597
0.299654, 7366, 23, 4172, -914, -2626, -1597
0.299788, 7366, 23, 4172, -914, -2626, -1597
0.299923, 7366, 23, 4172, -914, -2626, -1597
0.300057, 5123, 4, 4290, 584, -683, -5829
0.300192, 5123, 4, 4290, 584, -683, -5829
0.300327, 5123, 4, 4290, 584, -683, -5829
0.300462, 5123, 4, 4290, 584, -683, -5829
0.300596, 5123, 4, 4290, 584, -683, -5829
0.300737, 5123, 4, 4290, 584, -683, -5829
0.300872, 5123, 4, 4290, 584, -683, -5829
0.301006, 2735, 973, 4773, 2603, 1492, -8304
0.301141, 2735, 973, 4773, 2603, 1492, -8304
0.301276, 2735, 973, 4773, 2603, 1492, -8304
0.301410, 2735, 973, 4773, 2603, 1492, -8304
0.301545, 2735, 973, 4773, 2603, 1492, -8304
0.301680, 2735, 973, 4773, 2603, 1492, -8304
0.301814, 2735, 973, 4773, 2603, 1492, -8304
0.301949, 2735, 973, 4773, 2603, 1492, -8304
0.302084, 1271, 959, 4941, 5153, 3333, -9654
0.302219, 1271, 959, 4941, 5153, 3333, -9654
0.302353, 1271, 959, 4941, 5153, 3333, -9654
0.302488, 1271, 959, 4941, 5153, 3333, -9654
0.302623, 1271, 959, 4941, 5153, 3333, -9654
0.302757, 1271, 959, 4941, 5153, 3333, -9654
0.302892, 1271, 959, 4941, 5153, 3333, -9654
0.303027, -2686, -670, 1372, 6687, 4653, -9734
0.303161, -2686, -670, 1372, 6687, 4653, -9734
0.303296, -2686, -670, 1372, 6687, 4653, -9734
0.303431, -2686, -670, 1372, 6687, 4653, -9734
0.303565, -2686, -670, 1372, 6687, 4653, -9734
0.303700, -2686, -670, 1372, 6687, 4653, -9734
0.303835, -2686, -670, 1372, 6687, 4653, -9734
0.303969, -2686, -670, 1372, 6687, 4653, -9734
0.304104, -5595, -700, -3120, 5333, 4498, -7363
0.304239, -5595, -700, -3120, 5333, 4498, -7363
0.304373, -5595, -700, -3120, 5333, 4498, -7363
0.304508, -5595, -700, -3120, 5333, 4498, -7363
0.304644, -5595, -700, -3120, 5333, 4498, -7363
0.304778, -5595, -700, -3120, 5333, 4498, -7363
0.304913, -5595, -700, -3120, 5333, 4498, -7363
0.305047, -6520, 326, -2167, 2267, 3269, -3661
0.305182, -6520, 326, -2167, 2267, 3269, -3661
0.305317, -6520, 326, -2167, 2267, 3269, -3661
0.305452, -6520, 326, -2167, 2267, 3269, -3661
0.305586, -6520, 326, -2167, 2267, 3269, -3661
0.305721, -6520, 326, -2167, 2267, 3269, -3661
0.305856, -6520, 326, -2167, 2267, 3269, -3661
0.305990, -6520, 326, -2167, 2267, 3269, -3661
0.306125, -6258, 463, 558, -127, 2222, 286
0.306260, -6258, 463, 558, -127, 2222, 286
0.306394, -6258, 463, 558, -127, 2222, 286
0.306529, -6258, 463, 558, -127, 2222, 286
0.306664, -6258, 463, 558, -127, 2222, 286
0.306798, -6258, 463, 558, -127, 2222, 286
0.306933, -6258, 463, 558, -127, 2222, 286
0.307068, -3642, 229, 1082, -1513, 973, 3536
0.307203, -3642, 229, 1082, -1513, 973, 3536
0.307337, -3642, 229, 1082, -1513, 973, 3536
0.307472, -3642, 229, 1082, -1513, 973, 3536
0.307607, -3642, 229, 1082, -1513, 973, 3536
0.307741, -3642, 229, 1082, -1513, 973, 3536
0.307876, -3642, 229, 1082, -1513, 973, 3536
0.308011, -3642, 229, 1082, -1513, 973, 3536
0.308145, -862, 185, 1689, -2447, -557, 5044
0.308280, -862, 185, 1689, -2447, -557, 5044
0.308415, -862, 185, 1689, -2447, -557, 5044
0.308549, -862, 185, 1689, -2447, -557, 5044
0.308684, -862, 185, 1689, -2447, -557, 5044
0.308819, -862, 185, 1689, -2447, -557, 5044
0.308954, -862, 185, 1689, -2447, -557, 5044
0.309088, -862, 185, 1689, -2447, -557, 5044
0.309223, 30, 254, 2373, -3070, -1642, 5328
0.309358, 30, 254, 2373, -3070, -1642, 5328
0.309493, 30, 254, 2373, -3070, -1642, 5328
0.309636, 30, 254, 2373, -3070, -1642, 5328
0.309771, 30, 254, 2373, -3070, -1642, 5328
0.309906, 30, 254, 2373, -3070, -1642, 5328
0.310040, 30, 254, 2373, -3070, -1642, 5328
0.310175, -36, 160, 2222, -3273, -2685, 5313
0.310310, -36, 160, 2222, -3273, -2685, 5313
0.310444, -36, 160, 2222, -3273, -2685, 5313
0.310579, -36, 160, 2222, -3273, -2685, 5313
0.310713, -36, 160, 2222, -3273, -2685, 5313
0.310848, -36, 160, 2222, -3273, -2685, 5313
0.310983, -36, 160, 2222, -3273, -2685, 5313
0.311117, -36, 160, 2222, -3273, -2685, 5313
0.311252, 375, 54, 2132, -3004, -3884, 5124
0.311387, 375, 54, 2132, -3004, -3884, 5124
0.311521, 375, 54, 2132, -3004, -3884, 5124
0.311656, 375, 54, 2132, -3004, -3884, 5124
0.311791, 375, 54, 2132, -3004, -3884, 5124
0.311925, 375, 54, 2132, -3004, -3884, 5124
0.312060, 375, 54, 2132, -3004, -3884, 5124
0.312194, 1816, 118, 2953, -2381, -4540, 4497
0.312329, 1816, 118, 2953, -2381, -4540, 4497
0.312464, 1816, 118, 2953, -2381, -4540, 4497
0.312601, 1816, 118, 2953, -2381, -4540, 4497
0.312736, 1816, 118, 2953, -2381, -4540, 4497
0.312871, 1816, 118, 2953, -2381, -4540, 4497
0.313005, 1816, 118, 2953, -2381, -4540, 4497
0.313140, 1816, 118, 2953, -2381, -4540, 4497
0.313275, 5543, 449, 4930, -1086, -4490, 2719
0.313409, 5543, 449, 4930, -1086, -4490, 2719
0.313544, 5543, 449, 4930, -1086, -4490, 2719
0.313679, 5543, 449, 4930, -1086, -4490, 2719
0.313813, 5543, 449, 4930, -1086, -4490, 2719
0.313948, 5543, 449, 4930, -1086, -4490, 2719
0.314082, 5543, 449, 4930, -1086, -4490, 2719
0.314217, 9695, 558, 7518, 1527, -3530, -1571
0.314352, 9695, 558, 7518, 1527, -3530, -1571
0.314486, 9695, 558, 7518, 1527, -3530, -1571
0.314621, 9695, 558, 7518, 1527, -3530, -1571
0.314756, 9695, 558, 7518, 1527, -3530, -1571
0.314890, 9695, 558, 7518, 1527, -3530, -1571
0.315025, 9695, 558, 7518, 1527, -3530, -1571
0.315159, 9695, 558, 7518, 1527, -3530, -1571
0.315294, 7817, -251, 7227, 5332, -1095, -7408
0.315429, 7817, -251, 7227, 5332, -1095, -7408
0.315563, 7817, -251, 7227, 5332, -1095, -7408
0.315698, 7817, -251, 7227, 5332, -1095, -7408
0.315833, 7817, -251, 7227, 5332, -1095, -7408
0.315967, 7817, -251, 7227, 5332, -1095, -7408
0.316102, 7817, -251, 7227, 5332, -1095, -7408
0.316237, -562, -907, 266, 7514, 1861, -10430
0.316371, -562, -907, 266, 7514, 1861, -10430
0.316506, -562, -907, 266, 7514, 1861, -10430
0.316641, -562, -907, 266, 7514, 1861, -10430
0.316775, -562, -907, 266, 7514, 1861, -10430
0.316909, -562, -907, 266, 7514, 1861, -10430
0.317043, -562, -907, 266, 7514, 1861, -10430
0.317177, -562, -907, 266, 7514, 1861, -10430
0.317311, -6353, -121, -5488, 5392, 3433, -8602
0.317445, -6353, -121, -5488, 5392, 3433, -8602
0.317580, -6353, -121, -5488, 5392, 3433, -8602
0.317714, -6353, -121, -5488, 5392, 3433, -8602
0.317849, -6353, -121, -5488, 5392, 3433, -8602
0.317983, -6353, -121, -5488, 5392, 3433, -8602
0.318118, -6353, -121, -5488, 5392, 3433, -8602
0.318252, -4955, 970, -1470, 1998, 3564, -5015
0.318387, -4955, 970, -1470, 1998, 3564, -5015
0.318521, -4955, 970, -1470, 1998, 3564, -5015
0.318655, -4955, 970, -1470, 1998, 3564, -5015
0.318790, -4955, 970, -1470, 1998, 3564, -5015
0.318924, -4955, 970, -1470, 1998, 3564, -5015
0.319059, -4955, 970, -1470, 1998, 3564, -5015
0.319193, -4955, 970, -1470, 1998, 3564, -5015
0.319328, -2520, 648, 3429, 944, 3544, -2735
0.319462, -2520, 648, 3429, 944, 3544, -2735
0.319597, -2520, 648, 3429, 944, 3544, -2735
0.319731, -2520, 648, 3429, 944, 3544, -2735
0.319866, -2520, 648, 3429, 944, 3544, -2735
0.320000, -2520, 648, 3429, 944, 3544, -2735
0.320134, -2520, 648, 3429, 944, 3544, -2735
0.320269, -2711, -172, 2196, 951, 3386, -1254
0.320398, -2711, -172, 2196, 951, 3386, -1254
0.320533, -2711, -172, 2196, 951, 3386, -1254
0.320668, -2711, -172, 2196, 951, 3386, -1254
0.320802, -2711, -172, 2196, 951, 3386, -1254
0.320937, -2711, -172, 2196, 951, 3386, -1254
0.321071, -2711, -172, 2196, 951, 3386, -1254
0.321206, -2711, -172, 2196, 951, 3386, -1254
0.321341, -2974, 138, 375, 41, 2612, 580
0.321475, -2974, 138, 375, 41, 2612, 580
0.321614, -2974, 138, 375, 41, 2612, 580
0.321749, -2974, 138, 375, 41, 2612, 580
0.321884, -2974, 138, 375, 41, 2612, 580
0.322018, -2974, 138, 375, 41, 2612, 580
0.322153, -2974, 138, 375, 41, 2612, 580
0.322287, -2113, 598, 1234, -1396, 1631, 2306
0.322422, -2113, 598, 1234, -1396, 1631, 2306
0.322556, -2113, 598, 1234, -1396, 1631, 2306
0.322690, -2113, 598, 1234, -1396, 1631, 2306
0.322825, -2113, 598, 1234, -1396, 1631, 2306
0.322959, -2113, 598, 1234, -1396, 1631, 2306
0.323094, -2113, 598, 1234, -1396, 1631, 2306
0.323228, -2113, 598, 1234, -1396, 1631, 2306
0.323362, -499, 339, 2385, -2095, 76, 3096
0.323497, -499, 339, 2385, -2095, 76, 3096
0.323631, -499, 339, 2385, -2095, 76, 3096
0.323766, -499, 339, 2385, -2095, 76, 3096
0.323900, -499, 339, 2385, -2095, 76, 3096
0.324035, -499, 339, 2385, -2095, 76, 3096
0.324169, -499, 339, 2385, -2095, 76, 3096
0.324304, 1208, 270, 2687, -1806, -2091, 2746
0.324438, 1208, 270, 2687, -1806, -2091, 2746
0.324573, 1208, 270, 2687, -1806, -2091, 2746
0.324708, 1208, 270, 2687, -1806, -2091, 2746
0.324842, 1208, 270, 2687, -1806, -2091, 2746
0.324977, 1208, 270, 2687, -1806, -2091, 2746
0.325111, 1208, 270, 2687, -1806, -2091, 2746
0.325246, 1208, 270, 2687, -1806, -2091, 2746
0.325380, 2428, 507, 3023, -1117, -3533, 1608
0.325515, 2428, 507, 3023, -1117, -3533, 1608
0.325649, 2428, 507, 3023, -1117, -3533, 1608
0.325784, 2428, 507, 3023, -1117, -3533, 1608
0.325918, 2428, 507, 3023, -1117, -3533, 1608
0.326053, 2428, 507, 3023, -1117, -3533, 1608
0.326187, 2428, 507, 3023, -1117, -3533, 1608
0.326322, 2428, 507, 3023, -1117, -3533, 1608
0.326456, 2328, 186, 2524, -542, -3722, 139
0.326591, 2328, 186, 2524, -542, -3722, 139
0.326725, 2328, 186, 2524, -542, -3722, 139
0.326860, 2328, 186, 2524, -542, -3722, 139
0.326994, 2328, 186, 2524, -542, -3722, 139
0.327129, 2328, 186, 2524, -542, -3722, 139
0.327263, 2328, 186, 2524, -542, -3722, 139
0.327398, 13, -325, 1187, -370, -2996, -798
0.327533, 13, -325, 1187, -370, -2996, -798
0.327667, 13, -325, 1187, -370, -2996, -798
0.327802, 13, -325, 1187, -370, -2996, -798
0.327936, 13, -325, 1187, -370, -2996, -798
0.328071, 13, -325, 1187, -370, -2996, -798
0.328205, 13, -325, 1187, -370, -2996, -798
0.328340, 13, -325, 1187, -370, -2996, -798
0.328474, -2420, -149, 961, -502, -1760, -158
0.328610, -2420, -149, 961, -502, -1760, -158
0.328744, -2420, -149, 961, -502, -1760, -158
0.328879, -2420, -149, 961, -502, -1760, -158
0.329014, -2420, -149, 961, -502, -1760, -158
0.329148, -2420, -149, 961, -502, -1760, -158
0.329283, -2420, -149, 961, -502, -1760, -158
0.329418, -1705, 187, 1685, -681, -582, 1357
0.329553, -1705, 187, 1685, -681, -582, 1357
0.329687, -1705, 187, 1685, -681, -582, 1357
0.329822, -1705, 187, 1685, -681, -582, 1357
0.329956, -1705, 187, 1685, -681, -582, 1357
0.330091, -1705, 187, 1685, -681, -582, 1357
0.330226, -1705, 187, 1685, -681, -582, 1357
0.330360, -1705, 187, 1685, -681, -582, 1357
0.330495, 996, 232, 2263, -833, 188, 1776
0.330630, 996, 232, 2263, -833, 188, 1776
0.330764, 996, 232, 2263, -833, 188, 1776
0.330899, 996, 232, 2263, -833, 188, 1776
0.331034, 996, 232, 2263, -833, 188, 1776
0.331168, 996, 232, 2263, -833, 188, 1776
0.331303, 996, 232, 2263, -833, 188, 1776
0.331438, 2291, 154, 2633, -862, 754, 671
0.331573, 2291, 154, 2633, -862, 754, 671
0.331707, 2291, 154, 2633, -862, 754, 671
0.331842, 2291, 154, 2633, -862, 754, 671
0.331976, 2291, 154, 2633, -862, 754, 671
0.332111, 2291, 154, 2633, -862, 754, 671
0.332246, 2291, 154, 2633, -862, 754, 671
0.332380, 2291, 154, 2633, -862, 754, 671
0.332515, 923, 77, 2645, -717, 1442, -625
0.332650, 923, 77, 2645, -717, 1442, -625
0.332785, 923, 77, 2645, -717, 1442, -625
0.332920, 923, 77, 2645, -717, 1442, -625
0.333054, 923, 77, 2645, -717, 1442, -625
0.333189, 923, 77, 2645, -717, 1442, -625
0.333324, 923, 77, 2645, -717, 1442, -625
0.333458, -957, 141, 2176, -474, 1911, -824
0.333593, -957, 141, 2176, -474, 1911, -824
0.333728, -957, 141, 2176, -474, 1911, -824
0.333863, -957, 141, 2176, -474, 1911, -824
0.333997, -957, 141, 2176, -474, 1911, -824
0.334135, -957, 141, 2176, -474, 1911, -824
0.334271, -957, 141, 2176, -474, 1911, -824
0.334405, -957, 141, 2176, -474, 1911, -824
0.334540, -42, 126, 1990, -254, 1616, -447
0.334675, -42, 126, 1990, -254, 1616, -447
0.334810, -42, 126, 1990, -254, 1616, -447
0.334944, -42, 126, 1990, -254, 1616, -447
0.335079, -42, 126, 1990, -254, 1616, -447
0.335213, -42, 126, 1990, -254, 1616, -447
0.335348, -42, 126, 1990, -254, 1616, -447
0.335483, 1956, -71, 2740, 18, 864, -1132
0.335618, 1956, -71, 2740, 18, 864, -1132
0.335752, 1956, -71, 2740, 18, 864, -1132
0.335887, 1956, -71, 2740, 18, 864, -1132
0.336021, 1956, -71, 2740, 18, 864, -1132
0.336156, 1956, -71, 2740, 18, 864, -1132
0.336291, 1956, -71, 2740, 18, 864, -1132
0.336425, 1956, -71, 2740, 18, 864, -1132
0.336560, 882, -98, 2837, 476, 400, -2452
0.336695, 882, -98, 2837, 476, 400, -2452
0.336830, 882, -98, 2837, 476, 400, -2452
0.336964, 882, -98, 2837, 476, 400, -2452
0.337099, 882, -98, 2837, 476, 400, -2452
0.337234, 882, -98, 2837, 476, 400, -2452
0.337368, 882, -98, 2837, 476, 400, -2452
0.337503, -3277, 170, 674, 461, 446, -2181
0.337638, -3277, 170, 674, 461, 446, -2181
0.337772, -3277, 170, 674, 461, 446, -2181
0.337907, -3277, 170, 674, 461, 446, -2181
0.338041, -3277, 170, 674, 461, 446, -2181
0.338176, -3277, 170, 674, 461, 446, -2181
0.338311, -3277, 170, 674, 461, 446, -2181
0.338445, -3277, 170, 674, 461, 446, -2181
0.338580, -5792, 434, -701, -653, 402, 520
0.338715, -5792, 434, -701, -653, 402, 520
0.338849, -5792, 434, -701, -653, 402, 520
0.338984, -5792, 434, -701, -653, 402, 520
0.339119, -5792, 434, -701, -653, 402, 520
0.339253, -5792, 434, -701, -653, 402, 520
0.339388, -5792, 434, -701, -653, 402, 520
0.339522, -3565, 437, 1083, -1915, -257, 3684
0.339657, -3565, 437, 1083, -1915, -257, 3684
0.339792, -3565, 437, 1083, -1915, -257, 3684
0.339926, -3565, 437, 1083, -1915, -257, 3684
0.340061, -3565, 437, 1083, -1915, -257, 3684
0.340195, -3565, 437, 1083, -1915, -257, 3684
0.340330, -3565, 437, 1083, -1915, -257, 3684
0.340465, -3565, 437, 1083, -1915, -257, 3684
0.340602, -409, 275, 2574, -2475, -1083, 5069
0.340740, -409, 275, 2574, -2475, -1083, 5069
0.340875, -409, 275, 2574, -2475, -1083, 5069
0.341010, -409, 275, 2574, -2475, -1083, 5069
0.341144, -409, 275, 2574, -2475, -1083, 5069
0.341279, -409, 275, 2574, -2475, -1083, 5069
0.341413, -409, 275, 2574, -2475, -1083, 5069
0.341548, 609, 142, 2292, -2763, -1649, 5012
0.341683, 609, 142, 2292, -2763, -1649, 5012
0.341818, 609, 142, 2292, -2763, -1649, 5012
0.341952, 609, 142, 2292, -2763, -1649, 5012
0.342087, 609, 142, 2292, -2763, -1649, 5012
0.342221, 609, 142, 2292, -2763, -1649, 5012
0.342356, 609, 142, 2292, -2763, -1649, 5012
0.342490, 609, 142, 2292, -2763, -1649, 5012
0.342625, 1097, 98, 2176, -2999, -1900, 4594
0.342760, 1097, 98, 2176, -2999, -1900, 4594
0.342895, 1097, 98, 2176, -2999, -1900, 4594
0.343029, 1097, 98, 2176, -2999, -1900, 4594
0.343164, 1097, 98, 2176, -2999, -1900, 4594
0.343298, 1097, 98, 2176, -2999, -1900, 4594
0.343433, 1097, 98, 2176, -2999, -1900, 4594
0.343568, 2069, 112, 2478, -2949, -1726, 3718
0.343703, 2069, 112, 2478, -2949, -1726, 3718
0.343837, 2069, 112, 2478, -2949, -1726, 3718
0.343972, 2069, 112, 2478, -2949, -1726, 3718
0.344106, 2069, 112, 2478, -2949, -1726, 3718
0.344241, 2069, 112, 2478, -2949, -1726, 3718
0.344376, 2069, 112, 2478, -2949, -1726, 3718
0.344510, 2069, 112, 2478, -2949, -1726, 3718
0.344645, 3727, 95, 2634, -2530, -1497, 2012
0.344780, 3727, 95, 2634, -2530, -1497, 2012
0.344915, 3727, 95, 2634, -2530, -1497, 2012
0.345049, 3727, 95, 2634, -2530, -1497, 2012
0.345184, 3727, 95, 2634, -2530, -1497, 2012
0.345318, 3727, 95, 2634, -2530, -1497, 2012
0.345453, 3727, 95, 2634, -2530, -1497, 2012
0.345588, 6669, 156, 2834, -1867, -1384, -974
0.345723, 6669, 156, 2834, -1867, -1384, -974
0.345857, 6669, 156, 2834, -1867, -1384, -974
0.345992, 6669, 156, 2834, -1867, -1384, -974
0.346127, 6669, 156, 2834, -1867, -1384, -974
0.346261, 6669, 156, 2834, -1867, -1384, -974
0.346396, 6669, 156, 2834, -1867, -1384, -974
0.346534, 6669, 156, 2834, -1867, -1384, -974
0.346669, 8642, 75, 4040, -839, -741, -5672
0.346804, 8642, 75, 4040, -839, -741, -5672
0.346938, 8642, 75, 4040, -839, -741, -5672
0.347073, 8642, 75, 4040, -839, -741, -5672
0.347208, 8642, 75, 4040, -839, -741, -5672
0.347342, 8642, 75, 4040, -839, -741, -5672
0.347477, 8642, 75, 4040, -839, -741, -5672
0.347611, 6872, -106, 6064, 1440, 899, -10735
0.347746, 6872, -106, 6064, 1440, 899, -10735
0.347881, 6872, -106, 6064, 1440, 899, -10735
0.348015, 6872, -106, 6064, 1440, 899, -10735
0.348150, 6872, -106, 6064, 1440, 899, -10735
0.348285, 6872, -106, 6064, 1440, 899, -10735
0.348419, 6872, -106, 6064, 1440, 899, -10735
0.348554, 6872, -106, 6064, 1440, 899, -10735
0.348689, 2782, -73, 4221, 4484, 3153, -14033
0.348824, 2782, -73, 4221, 4484, 3153, -14033
0.348958, 2782, -73, 4221, 4484, 3153, -14033
0.349093, 2782, -73, 4221, 4484, 3153, -14033
0.349228, 2782, -73, 4221, 4484, 3153, -14033
0.349362, 2782, -73, 4221, 4484, 3153, -14033
0.349497, 2782, -73, 4221, 4484, 3153, -14033
0.349631, 2782, -73, 4221, 4484, 3153, -14033
0.349766, -3201, -331, -1504, 5328, 5026, -14617
0.349901, -3201, -331, -1504, 5328, 5026, -14617
0.350036, -3201, -331, -1504, 5328, 5026, -14617
0.350170, -3201, -331, -1504, 5328, 5026, -14617
0.350305, -3201, -331, -1504, 5328, 5026, -14617
0.350439, -3201, -331, -1504, 5328, 5026, -14617
0.350574, -3201, -331, -1504, 5328, 5026, -14617
0.350709, -9602, -489, -2807, 3436, 5551, -11358
0.350843, -9602, -489, -2807, 3436, 5551, -11358
0.350978, -9602, -489, -2807, 3436, 5551, -11358
0.351113, -9602, -489, -2807, 3436, 5551, -11358
0.351247, -9602, -489, -2807, 3436, 5551, -11358
0.351382, -9602, -489, -2807, 3436, 5551, -11358
0.351516, -9602, -489, -2807, 3436, 5551, -11358
0.351651, -9602, -489, -2807, 3436, 5551, -11358
0.351786, -9918, 220, 525, 1617, 4681, -4995
0.351921, -9918, 220, 525, 1617, 4681, -4995
0.352055, -9918, 220, 525, 1617, 4681, -4995
0.352190, -9918, 220, 525, 1617, 4681, -4995
0.352324, -9918, 220, 525, 1617, 4681, -4995
0.352459, -9918, 220, 525, 1617, 4681, -4995
0.352594, -9918, 220, 525, 1617, 4681, -4995
0.352729, -3611, 822, 2330, 754, 3104, -37
0.352864, -3611, 822, 2330, 754, 3104, -37
0.352998, -3611, 822, 2330, 754, 3104, -37
0.353133, -3611, 822, 2330, 754, 3104, -37
0.353267, -3611, 822, 2330, 754, 3104, -37
0.353402, -3611, 822, 2330, 754, 3104, -37
0.353536, -3611, 822, 2330, 754, 3104, -37
0.353671, -3611, 822, 2330, 754, 3104, -37
0.353806, 1435, 459, 2316, -90, 1378, 799
0.353940, 1435, 459, 2316, -90, 1378, 799
0.354075, 1435, 459, 2316, -90, 1378, 799
0.354210, 1435, 459, 2316, -90, 1378, 799
0.354344, 1435, 459, 2316, -90, 1378, 799
0.354479, 1435, 459, 2316, -90, 1378, 799
0.354614, 1435, 459, 2316, -90, 1378, 799
0.354748, 1879, 56, 2693, -847, 144, -318
0.354883, 1879, 56, 2693, -847, 144, -318
0.355018, 1879, 56, 2693, -847, 144, -318
0.355153, 1879, 56, 2693, -847, 144, -318
0.355287, 1879, 56, 2693, -847, 144, -318
0.355422, 1879, 56, 2693, -847, 144, -318
0.355556, 1879, 56, 2693, -847, 144, -318
0.355691, 1879, 56, 2693, -847, 144, -318
0.355825, 1833, 289, 3760, -733, -547, -1280
0.355960, 1833, 289, 3760, -733, -547, -1280
0.356095, 1833, 289, 3760, -733, -547, -1280
0.356232, 1833, 289, 3760, -733, -547, -1280
0.356366, 1833, 289, 3760, -733, -547, -1280
0.356501, 1833, 289, 3760, -733, -547, -1280
0.356636, 1833, 289, 3760, -733, -547, -1280
0.356770, 2450, 486, 4969, 855, -1260, -2688
0.356905, 2450, 486, 4969, 855, -1260, -2688
0.357040, 2450, 486, 4969, 855, -1260, -2688
0.357175, 2450, 486, 4969, 855, -1260, -2688
0.357309, 2450, 486, 4969, 855, -1260, -2688
0.357444, 2450, 486, 4969, 855, -1260, -2688
0.357579, 2450, 486, 4969, 855, -1260, -2688
0.357713, 2450, 486, 4969, 855, -1260, -2688
0.357848, 676, 176, 3909, 3211, -1717, -4233
0.357983, 676, 176, 3909, 3211, -1717, -4233
0.358117, 676, 176, 3909, 3211, -1717, -4233
0.358252, 676, 176, 3909, 3211, -1717, -4233
0.358386, 676, 176, 3909, 3211, -1717, -4233
0.358521, 676, 176, 3909, 3211, -1717, -4233
0.358656, 676, 176, 3909, 3211, -1717, -4233
0.358796, -3021, -262, 73, 3998, -1732, -3892
0.358933, -3021, -262, 73, 3998, -1732, -3892
0.359067, -3021, -262, 73, 3998, -1732, -3892
0.359202, -3021, -262, 73, 3998, -1732, -3892
0.359337, -3021, -262, 73, 3998, -1732, -3892
0.359471, -3021, -262, 73, 3998, -1732, -3892
0.359606, -3021, -262, 73, 3998, -1732, -3892
0.359741, -3021, -262, 73, 3998, -1732, -3892
0.359875, -3753, -5, -877, 2713, -1855, -1567
0.360010, -3753, -5, -877, 2713, -1855, -1567
0.360144, -3753, -5, -877, 2713, -1855, -1567
0.360279, -3753, -5, -877, 2713, -1855, -1567
0.360414, -3753, -5, -877, 2713, -1855, -1567
0.360548, -3753, -5, -877, 2713, -1855, -1567
0.360683, -3753, -5, -877, 2713, -1855, -1567
0.360818, -1492, 590, 1651, 1525, -1703, 321
0.360953, -1492, 590, 1651, 1525, -1703, 321
0.361087, -1492, 590, 1651, 1525, -1703, 321
0.361222, -1492, 590, 1651, 1525, -1703, 321
0.361356, -1492, 590, 1651, 1525, -1703, 321
0.361491, -1492, 590, 1651, 1525, -1703, 321
0.361625, -1492, 590, 1651, 1525, -1703, 321
0.361760, -1492, 590, 1651, 1525, -1703, 321
0.361895, -1648, 415, 1873, 946, -669, 1083
0.362030, -1648, 415, 1873, 946, -669, 1083
0.362164, -1648, 415, 1873, 946, -669, 1083
