Time, ax, ay, az, gx, gy, gz
0.000015, -600, 435, 1805, 1221, -485, 1796
0.000182, -600, 435, 1805, 1221, -485, 1796
0.000321, -600, 435, 1805, 1221, -485, 1796
0.000458, 737, 330, 1803, 820, -1493, 1854
0.000598, 737, 330, 1803, 820, -1493, 1854
0.000740, 737, 330, 1803, 820, -1493, 1854
0.000879, 737, 330, 1803, 820, -1493, 1854
0.001018, 737, 330, 1803, 820, -1493, 1854
0.001157, 737, 330, 1803, 820, -1493, 1854
0.001294, 737, 330, 1803, 820, -1493, 1854
0.001431, 871, 297, 2046, 615, -2175, 1304
0.001568, 871, 297, 2046, 615, -2175, 1304
0.001705, 871, 297, 2046, 615, -2175, 1304
0.001842, 871, 297, 2046, 615, -2175, 1304
0.001979, 871, 297, 2046, 615, -2175, 1304
0.002116, 871, 297, 2046, 615, -2175, 1304
0.002253, 871, 297, 2046, 615, -2175, 1304
0.002390, 441, 268, 2195, 696, -2349, 929
0.002527, 441, 268, 2195, 696, -2349, 929
0.002664, 441, 268, 2195, 696, -2349, 929
0.002802, 441, 268, 2195, 696, -2349, 929
0.002939, 441, 268, 2195, 696, -2349, 929
0.003077, 441, 268, 2195, 696, -2349, 929
0.003214, 441, 268, 2195, 696, -2349, 929
0.003351, 441, 268, 2195, 696, -2349, 929
0.003487, 564, 263, 2004, 860, -2170, 804
0.003624, 564, 263, 2004, 860, -2170, 804
0.003761, 564, 263, 2004, 860, -2170, 804
0.003898, 564, 263, 2004, 860, -2170, 804
0.004035, 564, 263, 2004, 860, -2170, 804
0.004172, 564, 263, 2004, 860, -2170, 804
0.004310, 564, 263, 2004, 860, -2170, 804
0.004456, 1200, 296, 1743, 881, -1849, 488
0.004600, 1200, 296, 1743, 881, -1849, 488
0.004738, 1200, 296, 1743, 881, -1849, 488
0.004876, 1200, 296, 1743, 881, -1849, 488
0.005013, 1200, 296, 1743, 881, -1849, 488
0.005149, 1200, 296, 1743, 881, -1849, 488
0.005286, 1200, 296, 1743, 881, -1849, 488
0.005423, 1200, 296, 1743, 881, -1849, 488
0.005560, 1532, 305, 1774, 796, -1405, -206
0.005697, 1532, 305, 1774, 796, -1405, -206
0.005834, 1532, 305, 1774, 796, -1405, -206
0.005971, 1532, 305, 1774, 796, -1405, -206
0.006108, 1532, 305, 1774, 796, -1405, -206
0.006246, 1532, 305, 1774, 796, -1405, -206
0.006382, 1532, 305, 1774, 796, -1405, -206
0.006519, 1082, 309, 1932, 784, -725, -908
0.006656, 1082, 309, 1932, 784, -725, -908
0.006793, 1082, 309, 1932, 784, -725, -908
0.006930, 1082, 309, 1932, 784, -725, -908
0.007067, 1082, 309, 1932, 784, -725, -908
0.007203, 1082, 309, 1932, 784, -725, -908
0.007340, 1082, 309, 1932, 784, -725, -908
0.007477, 573, 278, 1989, 850, 64, -1247
0.007614, 573, 278, 1989, 850, 64, -1247
0.007751, 573, 278, 1989, 850, 64, -1247
0.007888, 573, 278, 1989, 850, 64, -1247
0.008025, 573, 278, 1989, 850, 64, -1247
0.008162, 573, 278, 1989, 850, 64, -1247
0.008293, 573, 278, 1989, 850, 64, -1247
0.008433, 573, 278, 1989, 850, 64, -1247
0.008570, 536, 188, 2041, 931, 620, -1401
0.008707, 536, 188, 2041, 931, 620, -1401
0.008844, 536, 188, 2041, 931, 620, -1401
0.008981, 536, 188, 2041, 931, 620, -1401
0.009117, 536, 188, 2041, 931, 620, -1401
0.009254, 536, 188, 2041, 931, 620, -1401
0.009391, 536, 188, 2041, 931, 620, -1401
0.009527, 798, 124, 2091, 1021, 819, -1629
0.009664, 798, 124, 2091, 1021, 819, -1629
0.009801, 798, 124, 2091, 1021, 819, -1629
0.009938, 798, 124, 2091, 1021, 819, -1629
0.010074, 798, 124, 2091, 1021, 819, -1629
0.010211, 798, 124, 2091, 1021, 819, -1629
0.010347, 798, 124, 2091, 1021, 819, -1629
0.010484, 798, 124, 2091, 1021, 819, -1629
0.010621, 1387, 187, 2128, 1120, 802, -2124
0.010758, 1387, 187, 2128, 1120, 802, -2124
0.010889, 1387, 187, 2128, 1120, 802, -2124
0.011026, 1387, 187, 2128, 1120, 802, -2124
0.011163, 1387, 187, 2128, 1120, 802, -2124
0.011300, 1387, 187, 2128, 1120, 802, -2124
0.011436, 1387, 187, 2128, 1120, 802, -2124
0.011573, 1372, 257, 2141, 1268, 792, -2959
0.011710, 1372, 257, 2141, 1268, 792, -2959
0.011847, 1372, 257, 2141, 1268, 792, -2959
0.011984, 1372, 257, 2141, 1268, 792, -2959
0.012120, 1372, 257, 2141, 1268, 792, -2959
0.012257, 1372, 257, 2141, 1268, 792, -2959
0.012394, 1372, 257, 2141, 1268, 792, -2959
0.012530, 41, 184, 2116, 1467, 936, -3472
0.012667, 41, 184, 2116, 1467, 936, -3472
0.012804, 41, 184, 2116, 1467, 936, -3472
0.012941, 41, 184, 2116, 1467, 936, -3472
0.013077, 41, 184, 2116, 1467, 936, -3472
0.013255, 41, 184, 2116, 1467, 936, -3472
0.013404, 41, 184, 2116, 1467, 936, -3472
0.013541, -999, 112, 2228, 1706, 1084, -3073
0.013678, -999, 112, 2228, 1706, 1084, -3073
0.013815, -999, 112, 2228, 1706, 1084, -3073
0.013952, -999, 112, 2228, 1706, 1084, -3073
0.014090, -999, 112, 2228, 1706, 1084, -3073
0.014226, -999, 112, 2228, 1706, 1084, -3073
0.014363, -999, 112, 2228, 1706, 1084, -3073
0.014500, -999, 112, 2228, 1706, 1084, -3073
0.014636, -952, 136, 2463, 2013, 988, -2258
0.014773, -952, 136, 2463, 2013, 988, -2258
0.014910, -952, 136, 2463, 2013, 988, -2258
0.015047, -952, 136, 2463, 2013, 988, -2258
0.015183, -952, 136, 2463, 2013, 988, -2258
0.015320, -952, 136, 2463, 2013, 988, -2258
0.015457, -952, 136, 2463, 2013, 988, -2258
0.015593, -829, 198, 2509, 2316, 699, -1579
0.015730, -829, 198, 2509, 2316, 699, -1579
0.015867, -829, 198, 2509, 2316, 699, -1579
0.016004, -829, 198, 2509, 2316, 699, -1579
0.016141, -829, 198, 2509, 2316, 699, -1579
0.016277, -829, 198, 2509, 2316, 699, -1579
0.016414, -829, 198, 2509, 2316, 699, -1579
0.016551, -829, 198, 2509, 2316, 699, -1579
0.016687, -1048, 287, 2392, 2489, 403, -932
0.016824, -1048, 287, 2392, 2489, 403, -932
0.016961, -1048, 287, 2392, 2489, 403, -932
0.017098, -1048, 287, 2392, 2489, 403, -932
0.017234, -1048, 287, 2392, 2489, 403, -932
0.017371, -1048, 287, 2392, 2489, 403, -932
0.017508, -1048, 287, 2392, 2489, 403, -932
0.017644, -1098, 374, 2298, 2546, 92, -154
0.017781, -1098, 374, 2298, 2546, 92, -154
0.017918, -1098, 374, 2298, 2546, 92, -154
0.018055, -1098, 374, 2298, 2546, 92, -154
0.018192, -1098, 374, 2298, 2546, 92, -154
0.018329, -1098, 374, 2298, 2546, 92, -154
0.018466, -1098, 374, 2298, 2546, 92, -154
0.018602, -1098, 374, 2298, 2546, 92, -154
0.018739, -667, 419, 2093, 2500, -317, 545
0.018876, -667, 419, 2093, 2500, -317, 545
0.019013, -667, 419, 2093, 2500, -317, 545
0.019149, -667, 419, 2093, 2500, -317, 545
0.019286, -667, 419, 2093, 2500, -317, 545
0.019423, -667, 419, 2093, 2500, -317, 545
0.019559, -667, 419, 2093, 2500, -317, 545
0.019696, -449, 341, 1678, 2233, -729, 958
0.019833, -449, 341, 1678, 2233, -729, 958
0.019970, -449, 341, 1678, 2233, -729, 958
0.020106, -449, 341, 1678, 2233, -729, 958
0.020243, -449, 341, 1678, 2233, -729, 958
0.020380, -449, 341, 1678, 2233, -729, 958
0.020516, -449, 341, 1678, 2233, -729, 958
0.020653, -920, 234, 1462, 1748, -1021, 1371
0.020790, -920, 234, 1462, 1748, -1021, 1371
0.020926, -920, 234, 1462, 1748, -1021, 1371
0.021063, -920, 234, 1462, 1748, -1021, 1371
0.021200, -920, 234, 1462, 1748, -1021, 1371
0.021337, -920, 234, 1462, 1748, -1021, 1371
0.021473, -920, 234, 1462, 1748, -1021, 1371
0.021610, -920, 234, 1462, 1748, -1021, 1371
0.021746, -1888, 230, 1537, 1283, -1232, 2230
0.021883, -1888, 230, 1537, 1283, -1232, 2230
0.022020, -1888, 230, 1537, 1283, -1232, 2230
0.022157, -1888, 230, 1537, 1283, -1232, 2230
0.022294, -1888, 230, 1537, 1283, -1232, 2230
0.022430, -1888, 230, 1537, 1283, -1232, 2230
0.022567, -1888, 230, 1537, 1283, -1232, 2230
0.022704, -2415, 292, 1462, 836, -1490, 3708
0.022841, -2415, 292, 1462, 836, -1490, 3708
0.022977, -2415, 292, 1462, 836, -1490, 3708
0.023114, -2415, 292, 1462, 836, -1490, 3708
0.023251, -2415, 292, 1462, 836, -1490, 3708
0.023387, -2415, 292, 1462, 836, -1490, 3708
0.023524, -2415, 292, 1462, 836, -1490, 3708
0.023661, -2415, 292, 1462, 836, -1490, 3708
0.023797, -693, 443, 1686, 309, -1981, 5073
0.023934, -693, 443, 1686, 309, -1981, 5073
0.024071, -693, 443, 1686, 309, -1981, 5073
0.024208, -693, 443, 1686, 309, -1981, 5073
0.024345, -693, 443, 1686, 309, -1981, 5073
0.024481, -693, 443, 1686, 309, -1981, 5073
0.024618, -693, 443, 1686, 309, -1981, 5073
0.024755, 2000, 589, 2161, -56, -2643, 4929
0.024892, 2000, 589, 2161, -56, -2643, 4929
0.025028, 2000, 589, 2161, -56, -2643, 4929
0.025165, 2000, 589, 2161, -56, -2643, 4929
0.025302, 2000, 589, 2161, -56, -2643, 4929
0.025439, 2000, 589, 2161, -56, -2643, 4929
0.025575, 2000, 589, 2161, -56, -2643, 4929
0.025712, 2487, 450, 2182, -210, -2883, 3441
0.025858, 2487, 450, 2182, -210, -2883, 3441
0.025997, 2487, 450, 2182, -210, -2883, 3441
0.026134, 2487, 450, 2182, -210, -2883, 3441
0.026270, 2487, 450, 2182, -210, -2883, 3441
0.026407, 2487, 450, 2182, -210, -2883, 3441
0.026544, 2487, 450, 2182, -210, -2883, 3441
0.026681, 2487, 450, 2182, -210, -2883, 3441
0.026817, 1762, 82, 2124, -217, -2422, 2116
0.026954, 1762, 82, 2124, -217, -2422, 2116
0.027091, 1762, 82, 2124, -217, -2422, 2116
0.027228, 1762, 82, 2124, -217, -2422, 2116
0.027364, 1762, 82, 2124, -217, -2422, 2116
0.027501, 1762, 82, 2124, -217, -2422, 2116
0.027637, 1762, 82, 2124, -217, -2422, 2116
0.027774, 2165, -50, 2297, 53, -1749, 1152
0.027911, 2165, -50, 2297, 53, -1749, 1152
0.028048, 2165, -50, 2297, 53, -1749, 1152
0.028185, 2165, -50, 2297, 53, -1749, 1152
0.028321, 2165, -50, 2297, 53, -1749, 1152
0.028458, 2165, -50, 2297, 53, -1749, 1152
0.028595, 2165, -50, 2297, 53, -1749, 1152
0.028731, 2165, -50, 2297, 53, -1749, 1152
0.028868, 2045, 77, 2354, 575, -1072, -84
0.029005, 2045, 77, 2354, 575, -1072, -84
0.029142, 2045, 77, 2354, 575, -1072, -84
0.029279, 2045, 77, 2354, 575, -1072, -84
0.029415, 2045, 77, 2354, 575, -1072, -84
0.029552, 2045, 77, 2354, 575, -1072, -84
0.029689, 2045, 77, 2354, 575, -1072, -84
0.029825, -139, 115, 1990, 1057, -115, -813
0.029962, -139, 115, 1990, 1057, -115, -813
0.030100, -139, 115, 1990, 1057, -115, -813
0.030236, -139, 115, 1990, 1057, -115, -813
0.030373, -139, 115, 1990, 1057, -115, -813
0.030510, -139, 115, 1990, 1057, -115, -813
0.030647, -139, 115, 1990, 1057, -115, -813
0.030783, -1516, 83, 1480, 1173, 781, -92
0.030920, -1516, 83, 1480, 1173, 781, -92
0.031057, -1516, 83, 1480, 1173, 781, -92
0.031194, -1516, 83, 1480, 1173, 781, -92
0.031330, -1516, 83, 1480, 1173, 781, -92
0.031467, -1516, 83, 1480, 1173, 781, -92
0.031604, -1516, 83, 1480, 1173, 781, -92
0.031740, -1516, 83, 1480, 1173, 781, -92
0.031877, 154, 86, 1448, 921, 862, 839
0.032014, 154, 86, 1448, 921, 862, 839
0.032151, 154, 86, 1448, 921, 862, 839
0.032287, 154, 86, 1448, 921, 862, 839
0.032424, 154, 86, 1448, 921, 862, 839
0.032561, 154, 86, 1448, 921, 862, 839
0.032698, 154, 86, 1448, 921, 862, 839
0.032834, 2037, 116, 1906, 613, 367, 344
0.032971, 2037, 116, 1906, 613, 367, 344
0.033108, 2037, 116, 1906, 613, 367, 344
0.033245, 2037, 116, 1906, 613, 367, 344
0.033381, 2037, 116, 1906, 613, 367, 344
0.033518, 2037, 116, 1906, 613, 367, 344
0.033655, 2037, 116, 1906, 613, 367, 344
0.033791, 2037, 116, 1906, 613, 367, 344
0.033928, 987, 174, 2213, 525, 246, -822
0.034065, 987, 174, 2213, 525, 246, -822
0.034202, 987, 174, 2213, 525, 246, -822
0.034339, 987, 174, 2213, 525, 246, -822
0.034475, 987, 174, 2213, 525, 246, -822
0.034612, 987, 174, 2213, 525, 246, -822
0.034749, 987, 174, 2213, 525, 246, -822
0.034885, -1200, 217, 2098, 620, 559, -874
0.035022, -1200, 217, 2098, 620, 559, -874
0.035159, -1200, 217, 2098, 620, 559, -874
0.035296, -1200, 217, 2098, 620, 559, -874
0.035432, -1200, 217, 2098, 620, 559, -874
0.035569, -1200, 217, 2098, 620, 559, -874
0.035706, -1200, 217, 2098, 620, 559, -874
0.035843, -1558, 221, 1965, 714, 554, 169
0.035980, -1558, 221, 1965, 714, 554, 169
0.036116, -1558, 221, 1965, 714, 554, 169
0.036253, -1558, 221, 1965, 714, 554, 169
0.036390, -1558, 221, 1965, 714, 554, 169
0.036526, -1558, 221, 1965, 714, 554, 169
0.036663, -1558, 221, 1965, 714, 554, 169
0.036800, -1558, 221, 1965, 714, 554, 169
0.036937, -518, 246, 2100, 721, -13, 1025
0.037074, -518, 246, 2100, 721, -13, 1025
0.037210, -518, 246, 2100, 721, -13, 1025
0.037347, -518, 246, 2100, 721, -13, 1025
0.037484, -518, 246, 2100, 721, -13, 1025
0.037621, -518, 246, 2100, 721, -13, 1025
0.037757, -518, 246, 2100, 721, -13, 1025
0.037894, 248, 350, 2356, 711, -667, 1195
0.038031, 248, 350, 2356, 711, -667, 1195
0.038167, 248, 350, 2356, 711, -667, 1195
0.038303, 248, 350, 2356, 711, -667, 1195
0.038440, 248, 350, 2356, 711, -667, 1195
0.038576, 248, 350, 2356, 711, -667, 1195
0.038712, 248, 350, 2356, 711, -667, 1195
0.038848, 248, 350, 2356, 711, -667, 1195
0.038984, 204, 429, 2338, 764, -993, 1062
0.039124, 204, 429, 2338, 764, -993, 1062
0.039262, 204, 429, 2338, 764, -993, 1062
0.039398, 204, 429, 2338, 764, -993, 1062
0.039535, 204, 429, 2338, 764, -993, 1062
0.039671, 204, 429, 2338, 764, -993, 1062
0.039808, 204, 429, 2338, 764, -993, 1062
0.039944, -507, 386, 1988, 776, -1004, 1175
0.040081, -507, 386, 1988, 776, -1004, 1175
0.040217, -507, 386, 1988, 776, -1004, 1175
0.040354, -507, 386, 1988, 776, -1004, 1175
0.040490, -507, 386, 1988, 776, -1004, 1175
0.040627, -507, 386, 1988, 776, -1004, 1175
0.040763, -507, 386, 1988, 776, -1004, 1175
0.040900, -507, 386, 1988, 776, -1004, 1175
0.041036, -622, 227, 1618, 596, -1009, 1718
0.041173, -622, 227, 1618, 596, -1009, 1718
0.041309, -622, 227, 1618, 596, -1009, 1718
0.041446, -622, 227, 1618, 596, -1009, 1718
0.041582, -622, 227, 1618, 596, -1009, 1718
0.041719, -622, 227, 1618, 596, -1009, 1718
0.041855, -622, 227, 1618, 596, -1009, 1718
0.041992, 327, 139, 1449, 226, -1204, 2059
0.042132, 327, 139, 1449, 226, -1204, 2059
0.042271, 327, 139, 1449, 226, -1204, 2059
0.042408, 327, 139, 1449, 226, -1204, 2059
0.042545, 327, 139, 1449, 226, -1204, 2059
0.042681, 327, 139, 1449, 226, -1204, 2059
0.042818, 327, 139, 1449, 226, -1204, 2059
0.042950, 595, 227, 1423, -200, -1319, 1859
0.043087, 595, 227, 1423, -200, -1319, 1859
0.043224, 595, 227, 1423, -200, -1319, 1859
0.043360, 595, 227, 1423, -200, -1319, 1859
0.043497, 595, 227, 1423, -200, -1319, 1859
0.043634, 595, 227, 1423, -200, -1319, 1859
0.043771, 595, 227, 1423, -200, -1319, 1859
0.043908, 595, 227, 1423, -200, -1319, 1859
0.044044, 251, 253, 1319, -667, -1154, 1682
0.044181, 251, 253, 1319, -667, -1154, 1682
0.044318, 251, 253, 1319, -667, -1154, 1682
0.044455, 251, 253, 1319, -667, -1154, 1682
0.044591, 251, 253, 1319, -667, -1154, 1682
0.044728, 251, 253, 1319, -667, -1154, 1682
0.044865, 251, 253, 1319, -667, -1154, 1682
0.045002, 89, 323, 1302, -1154, -880, 1685
0.045139, 89, 323, 1302, -1154, -880, 1685
0.045275, 89, 323, 1302, -1154, -880, 1685
0.045412, 89, 323, 1302, -1154, -880, 1685
0.045549, 89, 323, 1302, -1154, -880, 1685
0.045686, 89, 323, 1302, -1154, -880, 1685
0.045823, 89, 323, 1302, -1154, -880, 1685
0.045959, 89, 323, 1302, -1154, -880, 1685
0.046097, -358, 500, 1549, -1529, -677, 1836
0.046234, -358, 500, 1549, -1529, -677, 1836
0.046371, -358, 500, 1549, -1529, -677, 1836
0.046507, -358, 500, 1549, -1529, -677, 1836
0.046644, -358, 500, 1549, -1529, -677, 1836
0.046781, -358, 500, 1549, -1529, -677, 1836
0.046918, -358, 500, 1549, -1529, -677, 1836
0.047055, -480, 534, 1842, -1773, -587, 2250
0.047192, -480, 534, 1842, -1773, -587, 2250
0.047328, -480, 534, 1842, -1773, -587, 2250
0.047465, -480, 534, 1842, -1773, -587, 2250
0.047602, -480, 534, 1842, -1773, -587, 2250
0.047739, -480, 534, 1842, -1773, -587, 2250
0.047875, -480, 534, 1842, -1773, -587, 2250
0.048012, 588, 418, 1966, -1956, -629, 2522
0.048149, 588, 418, 1966, -1956, -629, 2522
0.048286, 588, 418, 1966, -1956, -629, 2522
0.048423, 588, 418, 1966, -1956, -629, 2522
0.048560, 588, 418, 1966, -1956, -629, 2522
0.048696, 588, 418, 1966, -1956, -629, 2522
0.048833, 588, 418, 1966, -1956, -629, 2522
0.048970, 588, 418, 1966, -1956, -629, 2522
0.049107, 2511, 98, 2671, -1952, -815, 1855
0.049244, 2511, 98, 2671, -1952, -815, 1855
0.049380, 2511, 98, 2671, -1952, -815, 1855
0.049517, 2511, 98, 2671, -1952, -815, 1855
0.049654, 2511, 98, 2671, -1952, -815, 1855
0.049791, 2511, 98, 2671, -1952, -815, 1855
0.049927, 2511, 98, 2671, -1952, -815, 1855
0.050064, 3005, 0, 3546, -1294, -854, 88
0.050202, 3005, 0, 3546, -1294, -854, 88
0.050338, 3005, 0, 3546, -1294, -854, 88
0.050475, 3005, 0, 3546, -1294, -854, 88
0.050612, 3005, 0, 3546, -1294, -854, 88
0.050749, 3005, 0, 3546, -1294, -854, 88
0.050885, 3005, 0, 3546, -1294, -854, 88
0.051022, 3005, 0, 3546, -1294, -854, 88
0.051159, 466, 276, 2751, -347, -331, -1319
0.051296, 466, 276, 2751, -347, -331, -1319
0.051433, 466, 276, 2751, -347, -331, -1319
0.051570, 466, 276, 2751, -347, -331, -1319
0.051707, 466, 276, 2751, -347, -331, -1319
0.051843, 466, 276, 2751, -347, -331, -1319
0.051993, 466, 276, 2751, -347, -331, -1319
0.052138, -2094, 270, 1669, 19, 466, -837
0.052278, -2094, 270, 1669, 19, 466, -837
0.052415, -2094, 270, 1669, 19, 466, -837
0.052552, -2094, 270, 1669, 19, 466, -837
0.052689, -2094, 270, 1669, 19, 466, -837
0.052826, -2094, 270, 1669, 19, 466, -837
0.052963, -2094, 270, 1669, 19, 466, -837
0.053099, -1533, 146, 1894, 19, 639, 708
0.053236, -1533, 146, 1894, 19, 639, 708
0.053374, -1533, 146, 1894, 19, 639, 708
0.053510, -1533, 146, 1894, 19, 639, 708
0.053646, -1533, 146, 1894, 19, 639, 708
0.053780, -1533, 146, 1894, 19, 639, 708
0.053915, -1533, 146, 1894, 19, 639, 708
0.054050, -1533, 146, 1894, 19, 639, 708
0.054184, 567, 141, 2501, 94, 110, 1376
0.054319, 567, 141, 2501, 94, 110, 1376
0.054453, 567, 141, 2501, 94, 110, 1376
0.054588, 567, 141, 2501, 94, 110, 1376
0.054722, 567, 141, 2501, 94, 110, 1376
0.054857, 567, 141, 2501, 94, 110, 1376
0.054991, 567, 141, 2501, 94, 110, 1376
0.055125, 1566, 166, 2737, 296, -246, 779
0.055260, 1566, 166, 2737, 296, -246, 779
0.055395, 1566, 166, 2737, 296, -246, 779
0.055529, 1566, 166, 2737, 296, -246, 779
0.055664, 1566, 166, 2737, 296, -246, 779
0.055798, 1566, 166, 2737, 296, -246, 779
0.055933, 1566, 166, 2737, 296, -246, 779
0.056067, 1566, 166, 2737, 296, -246, 779
0.056202, 1086, 264, 2367, 508, -102, -105
0.056336, 1086, 264, 2367, 508, -102, -105
0.056471, 1086, 264, 2367, 508, -102, -105
0.056605, 1086, 264, 2367, 508, -102, -105
0.056740, 1086, 264, 2367, 508, -102, -105
0.056875, 1086, 264, 2367, 508, -102, -105
0.057009, 1086, 264, 2367, 508, -102, -105
0.057144, 108, 235, 2134, 654, 126, -489
0.057278, 108, 235, 2134, 654, 126, -489
0.057413, 108, 235, 2134, 654, 126, -489
0.057548, 108, 235, 2134, 654, 126, -489
0.057682, 108, 235, 2134, 654, 126, -489
0.057817, 108, 235, 2134, 654, 126, -489
0.057952, 108, 235, 2134, 654, 126, -489
0.058086, 108, 235, 2134, 654, 126, -489
0.058221, -610, 193, 2303, 921, 151, -291
0.058356, -610, 193, 2303, 921, 151, -291
0.058490, -610, 193, 2303, 921, 151, -291
0.058625, -610, 193, 2303, 921, 151, -291
0.058759, -610, 193, 2303, 921, 151, -291
0.058894, -610, 193, 2303, 921, 151, -291
0.059029, -610, 193, 2303, 921, 151, -291
0.059163, -1027, 258, 2255, 1219, 72, 308
0.059298, -1027, 258, 2255, 1219, 72, 308
0.059432, -1027, 258, 2255, 1219, 72, 308
0.059567, -1027, 258, 2255, 1219, 72, 308
0.059701, -1027, 258, 2255, 1219, 72, 308
0.059836, -1027, 258, 2255, 1219, 72, 308
0.059971, -1027, 258, 2255, 1219, 72, 308
0.060105, -1027, 258, 2255, 1219, 72, 308
0.060240, -540, 263, 1937, 1262, -81, 1026
0.060374, -540, 263, 1937, 1262, -81, 1026
0.060509, -540, 263, 1937, 1262, -81, 1026
0.060644, -540, 263, 1937, 1262, -81, 1026
0.060778, -540, 263, 1937, 1262, -81, 1026
0.060913, -540, 263, 1937, 1262, -81, 1026
0.061047, -540, 263, 1937, 1262, -81, 1026
0.061182, 1010, 284, 1654, 993, -434, 1135
0.061317, 1010, 284, 1654, 993, -434, 1135
0.061451, 1010, 284, 1654, 993, -434, 1135
0.061586, 1010, 284, 1654, 993, -434, 1135
0.061721, 1010, 284, 1654, 993, -434, 1135
0.061855, 1010, 284, 1654, 993, -434, 1135
0.061991, 1010, 284, 1654, 993, -434, 1135
0.062125, 1010, 284, 1654, 993, -434, 1135
0.062260, 1647, 364, 1686, 632, -746, 320
0.062395, 1647, 364, 1686, 632, -746, 320
0.062530, 1647, 364, 1686, 632, -746, 320
0.062664, 1647, 364, 1686, 632, -746, 320
0.062799, 1647, 364, 1686, 632, -746, 320
0.062933, 1647, 364, 1686, 632, -746, 320
0.063068, 1647, 364, 1686, 632, -746, 320
0.063202, 1647, 364, 1686, 632, -746, 320
0.063337, 597, 310, 1929, 454, -630, -469
0.063472, 597, 310, 1929, 454, -630, -469
0.063606, 597, 310, 1929, 454, -630, -469
0.063741, 597, 310, 1929, 454, -630, -469
0.063875, 597, 310, 1929, 454, -630, -469
0.064010, 597, 310, 1929, 454, -630, -469
0.064145, 597, 310, 1929, 454, -630, -469
0.064279, -416, 172, 2155, 521, -208, -436
0.064414, -416, 172, 2155, 521, -208, -436
0.064548, -416, 172, 2155, 521, -208, -436
0.064683, -416, 172, 2155, 521, -208, -436
0.064817, -416, 172, 2155, 521, -208, -436
0.064952, -416, 172, 2155, 521, -208, -436
0.065087, -416, 172, 2155, 521, -208, -436
0.065233, -416, 172, 2155, 521, -208, -436
0.065369, -188, 127, 2437, 762, 71, 24
0.065504, -188, 127, 2437, 762, 71, 24
0.065639, -188, 127, 2437, 762, 71, 24
0.065773, -188, 127, 2437, 762, 71, 24
0.065908, -188, 127, 2437, 762, 71, 24
0.066043, -188, 127, 2437, 762, 71, 24
0.066178, -188, 127, 2437, 762, 71, 24
0.066312, 632, 195, 2881, 1171, 76, 112
0.066447, 632, 195, 2881, 1171, 76, 112
0.066582, 632, 195, 2881, 1171, 76, 112
0.066716, 632, 195, 2881, 1171, 76, 112
0.066851, 632, 195, 2881, 1171, 76, 112
0.066985, 632, 195, 2881, 1171, 76, 112
0.067120, 632, 195, 2881, 1171, 76, 112
0.067255, 632, 195, 2881, 1171, 76, 112
0.067389, -49, 288, 3262, 1833, 148, -117
0.067524, -49, 288, 3262, 1833, 148, -117
0.067659, -49, 288, 3262, 1833, 148, -117
0.067793, -49, 288, 3262, 1833, 148, -117
0.067928, -49, 288, 3262, 1833, 148, -117
0.068062, -49, 288, 3262, 1833, 148, -117
0.068197, -49, 288, 3262, 1833, 148, -117
0.068332, -1765, 385, 3172, 2631, 384, 401
0.068467, -1765, 385, 3172, 2631, 384, 401
0.068601, -1765, 385, 3172, 2631, 384, 401
0.068736, -1765, 385, 3172, 2631, 384, 401
0.068870, -1765, 385, 3172, 2631, 384, 401
0.069005, -1765, 385, 3172, 2631, 384, 401
0.069140, -1765, 385, 3172, 2631, 384, 401
0.069274, -1765, 385, 3172, 2631, 384, 401
0.069409, -1374, 508, 2605, 3159, 283, 1645
0.069544, -1374, 508, 2605, 3159, 283, 1645
0.069678, -1374, 508, 2605, 3159, 283, 1645
0.069813, -1374, 508, 2605, 3159, 283, 1645
0.069947, -1374, 508, 2605, 3159, 283, 1645
0.070082, -1374, 508, 2605, 3159, 283, 1645
0.070217, -1374, 508, 2605, 3159, 283, 1645
0.070352, 981, 439, 1675, 3046, -417, 2047
0.070486, 981, 439, 1675, 3046, -417, 2047
0.070621, 981, 439, 1675, 3046, -417, 2047
0.070756, 981, 439, 1675, 3046, -417, 2047
0.070890, 981, 439, 1675, 3046, -417, 2047
0.071025, 981, 439, 1675, 3046, -417, 2047
0.071160, 981, 439, 1675, 3046, -417, 2047
0.071294, 981, 439, 1675, 3046, -417, 2047
0.071429, 2267, 226, 854, 2233, -1176, 980
0.071564, 2267, 226, 854, 2233, -1176, 980
0.071698, 2267, 226, 854, 2233, -1176, 980
0.071833, 2267, 226, 854, 2233, -1176, 980
0.071968, 2267, 226, 854, 2233, -1176, 980
0.072102, 2267, 226, 854, 2233, -1176, 980
0.072237, 2267, 226, 854, 2233, -1176, 980
0.072371, 1499, 139, 976, 1306, -1354, -381
0.072506, 1499, 139, 976, 1306, -1354, -381
0.072641, 1499, 139, 976, 1306, -1354, -381
0.072776, 1499, 139, 976, 1306, -1354, -381
0.072910, 1499, 139, 976, 1306, -1354, -381
0.073045, 1499, 139, 976, 1306, -1354, -381
0.073179, 1499, 139, 976, 1306, -1354, -381
0.073314, 1499, 139, 976, 1306, -1354, -381
0.073449, 949, 117, 1372, 834, -1040, -1042
0.073584, 949, 117, 1372, 834, -1040, -1042
0.073718, 949, 117, 1372, 834, -1040, -1042
0.073853, 949, 117, 1372, 834, -1040, -1042
0.073988, 949, 117, 1372, 834, -1040, -1042
0.074123, 949, 117, 1372, 834, -1040, -1042
0.074257, 949, 117, 1372, 834, -1040, -1042
0.074392, 1767, 186, 1303, 583, -640, -1645
0.074527, 1767, 186, 1303, 583, -640, -1645
0.074661, 1767, 186, 1303, 583, -640, -1645
0.074796, 1767, 186, 1303, 583, -640, -1645
0.074931, 1767, 186, 1303, 583, -640, -1645
0.075065, 1767, 186, 1303, 583, -640, -1645
0.075200, 1767, 186, 1303, 583, -640, -1645
0.075335, 1767, 186, 1303, 583, -640, -1645
0.075470, 1827, 304, 1478, 360, -170, -2722
0.075606, 1827, 304, 1478, 360, -170, -2722
0.075741, 1827, 304, 1478, 360, -170, -2722
0.075875, 1827, 304, 1478, 360, -170, -2722
0.076010, 1827, 304, 1478, 360, -170, -2722
0.076145, 1827, 304, 1478, 360, -170, -2722
0.076279, 1827, 304, 1478, 360, -170, -2722
0.076414, 552, 254, 1901, 378, 451, -3430
0.076548, 552, 254, 1901, 378, 451, -3430
0.076683, 552, 254, 1901, 378, 451, -3430
0.076818, 552, 254, 1901, 378, 451, -3430
0.076953, 552, 254, 1901, 378, 451, -3430
0.077087, 552, 254, 1901, 378, 451, -3430
0.077222, 552, 254, 1901, 378, 451, -3430
0.077357, 552, 254, 1901, 378, 451, -3430
0.077491, -619, 168, 1946, 597, 1104, -3250
0.077626, -619, 168, 1946, 597, 1104, -3250
0.077761, -619, 168, 1946, 597, 1104, -3250
0.077895, -619, 168, 1946, 597, 1104, -3250
0.078031, -619, 168, 1946, 597, 1104, -3250
0.078172, -619, 168, 1946, 597, 1104, -3250
0.078307, -619, 168, 1946, 597, 1104, -3250
0.078442, -1522, 149, 1690, 714, 1578, -2383
0.078576, -1522, 149, 1690, 714, 1578, -2383
0.078711, -1522, 149, 1690, 714, 1578, -2383
0.078846, -1522, 149, 1690, 714, 1578, -2383
0.078980, -1522, 149, 1690, 714, 1578, -2383
0.079115, -1522, 149, 1690, 714, 1578, -2383
0.079249, -1522, 149, 1690, 714, 1578, -2383
0.079384, -1522, 149, 1690, 714, 1578, -2383
0.079518, -789, 157, 1428, 490, 1546, -1205
0.079653, -789, 157, 1428, 490, 1546, -1205
0.079788, -789, 157, 1428, 490, 1546, -1205
0.079922, -789, 157, 1428, 490, 1546, -1205
0.080057, -789, 157, 1428, 490, 1546, -1205
0.080191, -789, 157, 1428, 490, 1546, -1205
0.080326, -789, 157, 1428, 490, 1546, -1205
0.080460, 1035, 338, 1451, 25, 1002, -952
0.080595, 1035, 338, 1451, 25, 1002, -952
0.080730, 1035, 338, 1451, 25, 1002, -952
0.080865, 1035, 338, 1451, 25, 1002, -952
0.080999, 1035, 338, 1451, 25, 1002, -952
0.081134, 1035, 338, 1451, 25, 1002, -952
0.081268, 1035, 338, 1451, 25, 1002, -952
0.081403, 1035, 338, 1451, 25, 1002, -952
0.081537, -402, 375, 1920, -348, 576, -1413
0.081672, -402, 375, 1920, -348, 576, -1413
0.081807, -402, 375, 1920, -348, 576, -1413
0.081942, -402, 375, 1920, -348, 576, -1413
0.082077, -402, 375, 1920, -348, 576, -1413
0.082211, -402, 375, 1920, -348, 576, -1413
0.082346, -402, 375, 1920, -348, 576, -1413
0.082480, -2305, 66, 2500, -343, 448, -488
0.082615, -2305, 66, 2500, -343, 448, -488
0.082750, -2305, 66, 2500, -343, 448, -488
0.082884, -2305, 66, 2500, -343, 448, -488
0.083019, -2305, 66, 2500, -343, 448, -488
0.083153, -2305, 66, 2500, -343, 448, -488
0.083288, -2305, 66, 2500, -343, 448, -488
0.083423, -2305, 66, 2500, -343, 448, -488
0.083557, -280, 94, 2626, -24, -60, 807
0.083692, -280, 94, 2626, -24, -60, 807
0.083827, -280, 94, 2626, -24, -60, 807
0.083961, -280, 94, 2626, -24, -60, 807
0.084096, -280, 94, 2626, -24, -60, 807
0.084231, -280, 94, 2626, -24, -60, 807
0.084365, -280, 94, 2626, -24, -60, 807
0.084500, 754, 325, 2304, 183, -872, 566
0.084634, 754, 325, 2304, 183, -872, 566
0.084769, 754, 325, 2304, 183, -872, 566
0.084904, 754, 325, 2304, 183, -872, 566
0.085038, 754, 325, 2304, 183, -872, 566
0.085173, 754, 325, 2304, 183, -872, 566
0.085307, 754, 325, 2304, 183, -872, 566
0.085442, 754, 325, 2304, 183, -872, 566
0.085576, -1368, 215, 2005, 160, -1200, 481
0.085711, -1368, 215, 2005, 160, -1200, 481
0.085846, -1368, 215, 2005, 160, -1200, 481
0.085980, -1368, 215, 2005, 160, -1200, 481
0.086124, -1368, 215, 2005, 160, -1200, 481
0.086258, -1368, 215, 2005, 160, -1200, 481
0.086393, -1368, 215, 2005, 160, -1200, 481
0.086527, -2467, 183, 1583, -20, -1194, 1817
0.086662, -2467, 183, 1583, -20, -1194, 1817
0.086797, -2467, 183, 1583, -20, -1194, 1817
0.086931, -2467, 183, 1583, -20, -1194, 1817
0.087066, -2467, 183, 1583, -20, -1194, 1817
0.087201, -2467, 183, 1583, -20, -1194, 1817
0.087335, -2467, 183, 1583, -20, -1194, 1817
0.087470, -2467, 183, 1583, -20, -1194, 1817
0.087604, -1710, 309, 1108, -554, -1480, 3380
0.087739, -1710, 309, 1108, -554, -1480, 3380
0.087874, -1710, 309, 1108, -554, -1480, 3380
0.088008, -1710, 309, 1108, -554, -1480, 3380
0.088143, -1710, 309, 1108, -554, -1480, 3380
0.088277, -1710, 309, 1108, -554, -1480, 3380
0.088412, -1710, 309, 1108, -554, -1480, 3380
0.088547, -1710, 309, 1108, -554, -1480, 3380
0.088681, -1025, 378, 1586, -1280, -1985, 4315
0.088816, -1025, 378, 1586, -1280, -1985, 4315
0.088950, -1025, 378, 1586, -1280, -1985, 4315
0.089085, -1025, 378, 1586, -1280, -1985, 4315
0.089220, -1025, 378, 1586, -1280, -1985, 4315
0.089354, -1025, 378, 1586, -1280, -1985, 4315
0.089489, -1025, 378, 1586, -1280, -1985, 4315
0.089623, -1123, 498, 2517, -1607, -2292, 5016
0.089758, -1123, 498, 2517, -1607, -2292, 5016
0.089893, -1123, 498, 2517, -1607, -2292, 5016
0.090028, -1123, 498, 2517, -1607, -2292, 5016
0.090162, -1123, 498, 2517, -1607, -2292, 5016
0.090296, -1123, 498, 2517, -1607, -2292, 5016
0.090430, -1123, 498, 2517, -1607, -2292, 5016
0.090564, -1123, 498, 2517, -1607, -2292, 5016
0.090703, -370, 494, 2559, -1615, -2424, 5743
0.090839, -370, 494, 2559, -1615, -2424, 5743
0.090973, -370, 494, 2559, -1615, -2424, 5743
0.091107, -370, 494, 2559, -1615, -2424, 5743
0.091241, -370, 494, 2559, -1615, -2424, 5743
0.091375, -370, 494, 2559, -1615, -2424, 5743
0.091509, -370, 494, 2559, -1615, -2424, 5743
0.091643, 1629, 393, 2620, -1578, -2631, 5639
0.091777, 1629, 393, 2620, -1578, -2631, 5639
0.091911, 1629, 393, 2620, -1578, -2631, 5639
0.092045, 1629, 393, 2620, -1578, -2631, 5639
0.092178, 1629, 393, 2620, -1578, -2631, 5639
0.092312, 1629, 393, 2620, -1578, -2631, 5639
0.092446, 1629, 393, 2620, -1578, -2631, 5639
0.092580, 1629, 393, 2620, -1578, -2631, 5639
0.092714, 2955, 443, 3035, -1226, -2854, 4299
0.092848, 2955, 443, 3035, -1226, -2854, 4299
0.092982, 2955, 443, 3035, -1226, -2854, 4299
0.093116, 2955, 443, 3035, -1226, -2854, 4299
0.093250, 2955, 443, 3035, -1226, -2854, 4299
0.093384, 2955, 443, 3035, -1226, -2854, 4299
0.093518, 2955, 443, 3035, -1226, -2854, 4299
0.093652, 3338, 370, 2706, -668, -2715, 2364
0.093786, 3338, 370, 2706, -668, -2715, 2364
0.093919, 3338, 370, 2706, -668, -2715, 2364
0.094051, 3338, 370, 2706, -668, -2715, 2364
0.094186, 3338, 370, 2706, -668, -2715, 2364
0.094321, 3338, 370, 2706, -668, -2715, 2364
0.094456, 3338, 370, 2706, -668, -2715, 2364
0.094585, 3338, 370, 2706, -668, -2715, 2364
0.094720, 2705, 141, 2128, -263, -1946, 413
0.094855, 2705, 141, 2128, -263, -1946, 413
0.094989, 2705, 141, 2128, -263, -1946, 413
0.095124, 2705, 141, 2128, -263, -1946, 413
0.095258, 2705, 141, 2128, -263, -1946, 413
0.095393, 2705, 141, 2128, -263, -1946, 413
0.095528, 2705, 141, 2128, -263, -1946, 413
0.095662, 1014, 96, 2211, 132, -856, -818
0.095797, 1014, 96, 2211, 132, -856, -818
0.095932, 1014, 96, 2211, 132, -856, -818
0.096067, 1014, 96, 2211, 132, -856, -818
0.096201, 1014, 96, 2211, 132, -856, -818
0.096336, 1014, 96, 2211, 132, -856, -818
0.096470, 1014, 96, 2211, 132, -856, -818
0.096605, 1014, 96, 2211, 132, -856, -818
0.096740, -481, 213, 2674, 778, 71, -880
0.096878, -481, 213, 2674, 778, 71, -880
0.097014, -481, 213, 2674, 778, 71, -880
0.097149, -481, 213, 2674, 778, 71, -880
0.097285, -481, 213, 2674, 778, 71, -880
0.097420, -481, 213, 2674, 778, 71, -880
0.097560, -481, 213, 2674, 778, 71, -880
0.097701, -885, 369, 2743, 1505, 708, -217
0.097840, -885, 369, 2743, 1505, 708, -217
0.097981, -885, 369, 2743, 1505, 708, -217
0.098125, -885, 369, 2743, 1505, 708, -217
0.098261, -885, 369, 2743, 1505, 708, -217
0.098399, -885, 369, 2743, 1505, 708, -217
0.098534, -885, 369, 2743, 1505, 708, -217
0.098664, -885, 369, 2743, 1505, 708, -217
0.098801, -65, 433, 2266, 1826, 951, 375
0.098937, -65, 433, 2266, 1826, 951, 375
0.099071, -65, 433, 2266, 1826, 951, 375
0.099206, -65, 433, 2266, 1826, 951, 375
0.099341, -65, 433, 2266, 1826, 951, 375
0.099475, -65, 433, 2266, 1826, 951, 375
0.099610, -65, 433, 2266, 1826, 951, 375
0.099745, 1022, 365, 1716, 1598, 666, 232
0.099880, 1022, 365, 1716, 1598, 666, 232
0.100015, 1022, 365, 1716, 1598, 666, 232
0.100149, 1022, 365, 1716, 1598, 666, 232
0.100284, 1022, 365, 1716, 1598, 666, 232
0.100419, 1022, 365, 1716, 1598, 666, 232
0.100553, 1022, 365, 1716, 1598, 666, 232
0.100688, 1022, 365, 1716, 1598, 666, 232
0.100818, 965, 315, 1368, 1111, 157, -464
0.100949, 965, 315, 1368, 1111, 157, -464
0.101084, 965, 315, 1368, 1111, 157, -464
0.101219, 965, 315, 1368, 1111, 157, -464
0.101353, 965, 315, 1368, 1111, 157, -464
0.101488, 965, 315, 1368, 1111, 157, -464
0.101622, 965, 315, 1368, 1111, 157, -464
0.101757, 380, 273, 1426, 638, -151, -911
0.101892, 380, 273, 1426, 638, -151, -911
0.102027, 380, 273, 1426, 638, -151, -911
0.102162, 380, 273, 1426, 638, -151, -911
0.102296, 380, 273, 1426, 638, -151, -911
0.102431, 380, 273, 1426, 638, -151, -911
0.102566, 380, 273, 1426, 638, -151, -911
0.102700, 380, 273, 1426, 638, -151, -911
0.102835, 251, 238, 1713, 354, -253, -1004
0.102970, 251, 238, 1713, 354, -253, -1004
0.103105, 251, 238, 1713, 354, -253, -1004
0.103239, 251, 238, 1713, 354, -253, -1004
0.103395, 251, 238, 1713, 354, -253, -1004
0.103532, 251, 238, 1713, 354, -253, -1004
0.103667, 251, 238, 1713, 354, -253, -1004
0.103802, 31, 255, 1875, 260, -279, -1006
0.103936, 31, 255, 1875, 260, -279, -1006
0.104071, 31, 255, 1875, 260, -279, -1006
0.104206, 31, 255, 1875, 260, -279, -1006
0.104340, 31, 255, 1875, 260, -279, -1006
0.104475, 31, 255, 1875, 260, -279, -1006
0.104610, 31, 255, 1875, 260, -279, -1006
0.104745, 31, 255, 1875, 260, -279, -1006
0.104879, -389, 215, 2039, 280, -265, -786
0.105014, -389, 215, 2039, 280, -265, -786
0.105149, -389, 215, 2039, 280, -265, -786
0.105284, -389, 215, 2039, 280, -265, -786
0.105418, -389, 215, 2039, 280, -265, -786
0.105553, -389, 215, 2039, 280, -265, -786
0.105688, -389, 215, 2039, 280, -265, -786
0.105822, -554, 184, 2229, 413, -254, -307
0.105957, -554, 184, 2229, 413, -254, -307
0.106093, -554, 184, 2229, 413, -254, -307
0.106227, -554, 184, 2229, 413, -254, -307
0.106362, -554, 184, 2229, 413, -254, -307
0.106496, -554, 184, 2229, 413, -254, -307
0.106631, -554, 184, 2229, 413, -254, -307
0.106766, -554, 184, 2229, 413, -254, -307
0.106900, -320, 255, 2271, 601, -292, 175
0.107035, -320, 255, 2271, 601, -292, 175
0.107170, -320, 255, 2271, 601, -292, 175
0.107305, -320, 255, 2271, 601, -292, 175
0.107439, -320, 255, 2271, 601, -292, 175
0.107574, -320, 255, 2271, 601, -292, 175
0.107708, -320, 255, 2271, 601, -292, 175
0.107843, -302, 324, 2168, 709, -332, 499
0.107978, -302, 324, 2168, 709, -332, 499
0.108112, -302, 324, 2168, 709, -332, 499
0.108247, -302, 324, 2168, 709, -332, 499
0.108381, -302, 324, 2168, 709, -332, 499
0.108516, -302, 324, 2168, 709, -332, 499
0.108650, -302, 324, 2168, 709, -332, 499
0.108785, -302, 324, 2168, 709, -332, 499
0.108919, -591, 288, 2186, 713, -335, 898
0.109054, -591, 288, 2186, 713, -335, 898
0.109189, -591, 288, 2186, 713, -335, 898
0.109323, -591, 288, 2186, 713, -335, 898
0.109458, -591, 288, 2186, 713, -335, 898
0.109592, -591, 288, 2186, 713, -335, 898
0.109727, -591, 288, 2186, 713, -335, 898
0.109862, -453, 234, 2279, 724, -418, 1406
0.109997, -453, 234, 2279, 724, -418, 1406
0.110134, -453, 234, 2279, 724, -418, 1406
0.110270, -453, 234, 2279, 724, -418, 1406
0.110405, -453, 234, 2279, 724, -418, 1406
0.110539, -453, 234, 2279, 724, -418, 1406
0.110674, -453, 234, 2279, 724, -418, 1406
0.110808, -453, 234, 2279, 724, -418, 1406
0.110943, -198, 329, 2091, 709, -611, 1726
0.111078, -198, 329, 2091, 709, -611, 1726
0.111213, -198, 329, 2091, 709, -611, 1726
0.111348, -198, 329, 2091, 709, -611, 1726
0.111483, -198, 329, 2091, 709, -611, 1726
0.111617, -198, 329, 2091, 709, -611, 1726
0.111752, -198, 329, 2091, 709, -611, 1726
0.111887, 166, 410, 1774, 498, -838, 1844
0.112022, 166, 410, 1774, 498, -838, 1844
0.112156, 166, 410, 1774, 498, -838, 1844
0.112291, 166, 410, 1774, 498, -838, 1844
0.112426, 166, 410, 1774, 498, -838, 1844
0.112560, 166, 410, 1774, 498, -838, 1844
0.112695, 166, 410, 1774, 498, -838, 1844
0.112829, 166, 410, 1774, 498, -838, 1844
0.112964, 967, 377, 1693, 137, -1078, 1610
0.113099, 967, 377, 1693, 137, -1078, 1610
0.113233, 967, 377, 1693, 137, -1078, 1610
0.113368, 967, 377, 1693, 137, -1078, 1610
0.113503, 967, 377, 1693, 137, -1078, 1610
0.113637, 967, 377, 1693, 137, -1078, 1610
0.113772, 967, 377, 1693, 137, -1078, 1610
0.113907, 1329, 361, 1690, -183, -1197, 934
0.114042, 1329, 361, 1690, -183, -1197, 934
0.114177, 1329, 361, 1690, -183, -1197, 934
0.114311, 1329, 361, 1690, -183, -1197, 934
0.114446, 1329, 361, 1690, -183, -1197, 934
0.114581, 1329, 361, 1690, -183, -1197, 934
0.114715, 1329, 361, 1690, -183, -1197, 934
0.114850, 1329, 361, 1690, -183, -1197, 934
0.114984, 1225, 338, 1690, -436, -1038, 190
0.115119, 1225, 338, 1690, -436, -1038, 190
0.115254, 1225, 338, 1690, -436, -1038, 190
0.115388, 1225, 338, 1690, -436, -1038, 190
0.115523, 1225, 338, 1690, -436, -1038, 190
0.115658, 1225, 338, 1690, -436, -1038, 190
0.115792, 1225, 338, 1690, -436, -1038, 190
0.115927, 1350, 289, 1902, -567, -672, -497
0.116062, 1350, 289, 1902, -567, -672, -497
0.116196, 1350, 289, 1902, -567, -672, -497
0.116344, 1350, 289, 1902, -567, -672, -497
0.116480, 1350, 289, 1902, -567, -672, -497
0.116615, 1350, 289, 1902, -567, -672, -497
0.116749, 1350, 289, 1902, -567, -672, -497
0.116884, 1350, 289, 1902, -567, -672, -497
0.117019, 1210, 266, 2169, -484, -217, -1206
0.117153, 1210, 266, 2169, -484, -217, -1206
0.117288, 1210, 266, 2169, -484, -217, -1206
0.117422, 1210, 266, 2169, -484, -217, -1206
0.117557, 1210, 266, 2169, -484, -217, -1206
0.117692, 1210, 266, 2169, -484, -217, -1206
0.117822, 1210, 266, 2169, -484, -217, -1206
0.117957, 366, 274, 2252, -259, 314, -1651
0.118092, 366, 274, 2252, -259, 314, -1651
0.118227, 366, 274, 2252, -259, 314, -1651
0.118361, 366, 274, 2252, -259, 314, -1651
0.118496, 366, 274, 2252, -259, 314, -1651
0.118630, 366, 274, 2252, -259, 314, -1651
0.118764, 366, 274, 2252, -259, 314, -1651
0.118899, 366, 274, 2252, -259, 314, -1651
0.119033, -715, 288, 2262, -4, 842, -1467
0.119168, -715, 288, 2262, -4, 842, -1467
0.119302, -715, 288, 2262, -4, 842, -1467
0.119437, -715, 288, 2262, -4, 842, -1467
0.119571, -715, 288, 2262, -4, 842, -1467
0.119706, -715, 288, 2262, -4, 842, -1467
0.119840, -715, 288, 2262, -4, 842, -1467
0.119974, -1433, 290, 2275, 221, 1128, -643
0.120109, -1433, 290, 2275, 221, 1128, -643
0.120244, -1433, 290, 2275, 221, 1128, -643
0.120379, -1433, 290, 2275, 221, 1128, -643
0.120514, -1433, 290, 2275, 221, 1128, -643
0.120649, -1433, 290, 2275, 221, 1128, -643
0.120783, -1433, 290, 2275, 221, 1128, -643
0.120918, -1433, 290, 2275, 221, 1128, -643
0.121052, -1301, 317, 1930, 262, 996, 471
0.121187, -1301, 317, 1930, 262, 996, 471
0.121322, -1301, 317, 1930, 262, 996, 471
0.121457, -1301, 317, 1930, 262, 996, 471
0.121592, -1301, 317, 1930, 262, 996, 471
0.121726, -1301, 317, 1930, 262, 996, 471
0.121861, -1301, 317, 1930, 262, 996, 471
0.121991, -1301, 317, 1930, 262, 996, 471
0.122126, -48, 297, 1366, -125, 478, 1200
0.122261, -48, 297, 1366, -125, 478, 1200
0.122395, -48, 297, 1366, -125, 478, 1200
0.122530, -48, 297, 1366, -125, 478, 1200
0.122665, -48, 297, 1366, -125, 478, 1200
0.122799, -48, 297, 1366, -125, 478, 1200
0.122934, -48, 297, 1366, -125, 478, 1200
0.123069, 1199, 123, 1528, -736, -186, 993
0.123204, 1199, 123, 1528, -736, -186, 993
0.123338, 1199, 123, 1528, -736, -186, 993
0.123473, 1199, 123, 1528, -736, -186, 993
0.123607, 1199, 123, 1528, -736, -186, 993
0.123742, 1199, 123, 1528, -736, -186, 993
0.123877, 1199, 123, 1528, -736, -186, 993
0.124011, 1199, 123, 1528, -736, -186, 993
0.124146, 1023, 16, 2341, -927, -595, 280
0.124281, 1023, 16, 2341, -927, -595, 280
0.124415, 1023, 16, 2341, -927, -595, 280
0.124550, 1023, 16, 2341, -927, -595, 280
0.124685, 1023, 16, 2341, -927, -595, 280
0.124819, 1023, 16, 2341, -927, -595, 280
0.124954, 1023, 16, 2341, -927, -595, 280
0.125089, -36, 122, 2900, -481, -525, -25
0.125224, -36, 122, 2900, -481, -525, -25
0.125358, -36, 122, 2900, -481, -525, -25
0.125493, -36, 122, 2900, -481, -525, -25
0.125627, -36, 122, 2900, -481, -525, -25
0.125762, -36, 122, 2900, -481, -525, -25
0.125897, -36, 122, 2900, -481, -525, -25
0.126032, -36, 122, 2900, -481, -525, -25
0.126167, -571, 153, 2741, 219, -251, 315
0.126302, -571, 153, 2741, 219, -251, 315
0.126436, -571, 153, 2741, 219, -251, 315
0.126571, -571, 153, 2741, 219, -251, 315
0.126705, -571, 153, 2741, 219, -251, 315
0.126840, -571, 153, 2741, 219, -251, 315
0.126974, -571, 153, 2741, 219, -251, 315
0.127109, 221, 55, 1933, 578, -270, 682
0.127244, 221, 55, 1933, 578, -270, 682
0.127378, 221, 55, 1933, 578, -270, 682
0.127513, 221, 55, 1933, 578, -270, 682
0.127647, 221, 55, 1933, 578, -270, 682
0.127782, 221, 55, 1933, 578, -270, 682
0.127916, 221, 55, 1933, 578, -270, 682
0.128051, 221, 55, 1933, 578, -270, 682
0.128186, 1255, 93, 1294, 366, -560, 340
0.128320, 1255, 93, 1294, 366, -560, 340
0.128455, 1255, 93, 1294, 366, -560, 340
0.128589, 1255, 93, 1294, 366, -560, 340
0.128724, 1255, 93, 1294, 366, -560, 340
0.128858, 1255, 93, 1294, 366, -560, 340
0.128993, 1255, 93, 1294, 366, -560, 340
0.129127, 876, 174, 1317, -68, -591, -370
0.129271, 876, 174, 1317, -68, -591, -370
0.129407, 876, 174, 1317, -68, -591, -370
0.129542, 876, 174, 1317, -68, -591, -370
0.129677, 876, 174, 1317, -68, -591, -370
0.129811, 876, 174, 1317, -68, -591, -370
0.129946, 876, 174, 1317, -68, -591, -370
0.130081, 876, 174, 1317, -68, -591, -370
0.130215, 25, 168, 1583, -394, -179, -572
0.130350, 25, 168, 1583, -394, -179, -572
0.130485, 25, 168, 1583, -394, -179, -572
0.130619, 25, 168, 1583, -394, -179, -572
0.130754, 25, 168, 1583, -394, -179, -572
0.130888, 25, 168, 1583, -394, -179, -572
0.131023, 25, 168, 1583, -394, -179, -572
0.131158, -17, 203, 1824, -569, 298, -361
0.131292, -17, 203, 1824, -569, 298, -361
0.131427, -17, 203, 1824, -569, 298, -361
0.131562, -17, 203, 1824, -569, 298, -361
0.131696, -17, 203, 1824, -569, 298, -361
0.131831, -17, 203, 1824, -569, 298, -361
0.131965, -17, 203, 1824, -569, 298, -361
0.132100, -17, 203, 1824, -569, 298, -361
0.132234, 208, 278, 2123, -624, 500, -260
0.132369, 208, 278, 2123, -624, 500, -260
0.132504, 208, 278, 2123, -624, 500, -260
0.132638, 208, 278, 2123, -624, 500, -260
0.132773, 208, 278, 2123, -624, 500, -260
0.132907, 208, 278, 2123, -624, 500, -260
0.133042, 208, 278, 2123, -624, 500, -260
0.133176, 145, 316, 2332, -541, 476, -291
0.133311, 145, 316, 2332, -541, 476, -291
0.133446, 145, 316, 2332, -541, 476, -291
0.133580, 145, 316, 2332, -541, 476, -291
0.133715, 145, 316, 2332, -541, 476, -291
0.133850, 145, 316, 2332, -541, 476, -291
0.133989, 145, 316, 2332, -541, 476, -291
0.134124, 145, 316, 2332, -541, 476, -291
0.134259, -246, 315, 2197, -423, 421, -215
0.134393, -246, 315, 2197, -423, 421, -215
0.134528, -246, 315, 2197, -423, 421, -215
0.134663, -246, 315, 2197, -423, 421, -215
0.134797, -246, 315, 2197, -423, 421, -215
0.134932, -246, 315, 2197, -423, 421, -215
0.135066, -246, 315, 2197, -423, 421, -215
0.135201, -803, 314, 1964, -450, 355, 167
0.135336, -803, 314, 1964, -450, 355, 167
0.135470, -803, 314, 1964, -450, 355, 167
0.135605, -803, 314, 1964, -450, 355, 167
0.135739, -803, 314, 1964, -450, 355, 167
0.135874, -803, 314, 1964, -450, 355, 167
0.136008, -803, 314, 1964, -450, 355, 167
0.136143, -803, 314, 1964, -450, 355, 167
0.136278, -821, 330, 1957, -603, 150, 829
0.136412, -821, 330, 1957, -603, 150, 829
0.136547, -821, 330, 1957, -603, 150, 829
0.136681, -821, 330, 1957, -603, 150, 829
0.136816, -821, 330, 1957, -603, 150, 829
0.136951, -821, 330, 1957, -603, 150, 829
0.137085, -821, 330, 1957, -603, 150, 829
0.137220, 331, 329, 2181, -751, -231, 1242
0.137354, 331, 329, 2181, -751, -231, 1242
0.137489, 331, 329, 2181, -751, -231, 1242
0.137624, 331, 329, 2181, -751, -231, 1242
0.137758, 331, 329, 2181, -751, -231, 1242
0.137893, 331, 329, 2181, -751, -231, 1242
0.138028, 331, 329, 2181, -751, -231, 1242
0.138162, 331, 329, 2181, -751, -231, 1242
0.138296, 1472, 351, 2330, -812, -564, 798
0.138430, 1472, 351, 2330, -812, -564, 798
0.138564, 1472, 351, 2330, -812, -564, 798
0.138698, 1472, 351, 2330, -812, -564, 798
0.138832, 1472, 351, 2330, -812, -564, 798
0.138966, 1472, 351, 2330, -812, -564, 798
0.139100, 1472, 351, 2330, -812, -564, 798
0.139234, 846, 360, 2142, -839, -537, -47
0.139368, 846, 360, 2142, -839, -537, -47
0.139502, 846, 360, 2142, -839, -537, -47
0.139636, 846, 360, 2142, -839, -537, -47
0.139770, 846, 360, 2142, -839, -537, -47
0.139903, 846, 360, 2142, -839, -537, -47
0.140037, 846, 360, 2142, -839, -537, -47
0.140171, 846, 360, 2142, -839, -537, -47
0.140305, -452, 245, 1982, -885, -202, -188
0.140439, -452, 245, 1982, -885, -202, -188
0.140573, -452, 245, 1982, -885, -202, -188
0.140707, -452, 245, 1982, -885, -202, -188
0.140841, -452, 245, 1982, -885, -202, -188
0.140975, -452, 245, 1982, -885, -202, -188
0.141109, -452, 245, 1982, -885, -202, -188
0.141243, -452, 245, 1982, -885, -202, -188
0.141377, 79, 138, 2305, -806, -2, 228
0.141511, 79, 138, 2305, -806, -2, 228
0.141645, 79, 138, 2305, -806, -2, 228
0.141779, 79, 138, 2305, -806, -2, 228
0.141912, 79, 138, 2305, -806, -2, 228
0.142048, 79, 138, 2305, -806, -2, 228
0.142182, 79, 138, 2305, -806, -2, 228
0.142317, 2028, 252, 2738, -471, -52, -94
0.142456, 2028, 252, 2738, -471, -52, -94
0.142592, 2028, 252, 2738, -471, -52, -94
0.142726, 2028, 252, 2738, -471, -52, -94
0.142861, 2028, 252, 2738, -471, -52, -94
0.142995, 2028, 252, 2738, -471, -52, -94
0.143130, 2028, 252, 2738, -471, -52, -94
0.143264, 2028, 252, 2738, -471, -52, -94
0.143399, 2767, 406, 2614, -42, 79, -1529
0.143533, 2767, 406, 2614, -42, 79, -1529
0.143668, 2767, 406, 2614, -42, 79, -1529
0.143803, 2767, 406, 2614, -42, 79, -1529
0.143937, 2767, 406, 2614, -42, 79, -1529
0.144072, 2767, 406, 2614, -42, 79, -1529
0.144206, 2767, 406, 2614, -42, 79, -1529
0.144341, 1610, 347, 2211, 267, 645, -2989
0.144475, 1610, 347, 2211, 267, 645, -2989
0.144610, 1610, 347, 2211, 267, 645, -2989
0.144745, 1610, 347, 2211, 267, 645, -2989
0.144879, 1610, 347, 2211, 267, 645, -2989
0.145014, 1610, 347, 2211, 267, 645, -2989
0.145148, 1610, 347, 2211, 267, 645, -2989
0.145283, 1610, 347, 2211, 267, 645, -2989
0.145417, 93, 291, 2210, 580, 1340, -3487
0.145552, 93, 291, 2210, 580, 1340, -3487
0.145687, 93, 291, 2210, 580, 1340, -3487
0.145821, 93, 291, 2210, 580, 1340, -3487
0.145956, 93, 291, 2210, 580, 1340, -3487
0.146091, 93, 291, 2210, 580, 1340, -3487
0.146226, 93, 291, 2210, 580, 1340, -3487
0.146360, -592, 333, 2531, 1064, 1767, -3136
0.146495, -592, 333, 2531, 1064, 1767, -3136
0.146630, -592, 333, 2531, 1064, 1767, -3136
0.146764, -592, 333, 2531, 1064, 1767, -3136
0.146899, -592, 333, 2531, 1064, 1767, -3136
0.147034, -592, 333, 2531, 1064, 1767, -3136
0.147168, -592, 333, 2531, 1064, 1767, -3136
0.147303, -592, 333, 2531, 1064, 1767, -3136
0.147437, -567, 216, 2468, 1517, 1886, -2557
0.147572, -567, 216, 2468, 1517, 1886, -2557
0.147707, -567, 216, 2468, 1517, 1886, -2557
0.147842, -567, 216, 2468, 1517, 1886, -2557
0.147976, -567, 216, 2468, 1517, 1886, -2557
0.148111, -567, 216, 2468, 1517, 1886, -2557
0.148246, -567, 216, 2468, 1517, 1886, -2557
0.148380, -785, 91, 2097, 1652, 1847, -2015
0.148515, -785, 91, 2097, 1652, 1847, -2015
0.148650, -785, 91, 2097, 1652, 1847, -2015
0.148784, -785, 91, 2097, 1652, 1847, -2015
0.148919, -785, 91, 2097, 1652, 1847, -2015
0.149053, -785, 91, 2097, 1652, 1847, -2015
0.149188, -785, 91, 2097, 1652, 1847, -2015
0.149323, -785, 91, 2097, 1652, 1847, -2015
0.149457, -1982, 206, 2123, 1600, 1679, -1154
0.149592, -1982, 206, 2123, 1600, 1679, -1154
0.149727, -1982, 206, 2123, 1600, 1679, -1154
0.149861, -1982, 206, 2123, 1600, 1679, -1154
0.149996, -1982, 206, 2123, 1600, 1679, -1154
0.150130, -1982, 206, 2123, 1600, 1679, -1154
0.150264, -1982, 206, 2123, 1600, 1679, -1154
0.150398, -3124, 347, 2144, 1565, 1300, 530
0.150532, -3124, 347, 2144, 1565, 1300, 530
0.150666, -3124, 347, 2144, 1565, 1300, 530
0.150800, -3124, 347, 2144, 1565, 1300, 530
0.150934, -3124, 347, 2144, 1565, 1300, 530
0.151068, -3124, 347, 2144, 1565, 1300, 530
0.151202, -3124, 347, 2144, 1565, 1300, 530
0.151336, -3124, 347, 2144, 1565, 1300, 530
0.151470, -2092, 387, 1838, 1325, 575, 2508
0.151604, -2092, 387, 1838, 1325, 575, 2508
0.151737, -2092, 387, 1838, 1325, 575, 2508
0.151872, -2092, 387, 1838, 1325, 575, 2508
0.152005, -2092, 387, 1838, 1325, 575, 2508
0.152139, -2092, 387, 1838, 1325, 575, 2508
0.152273, -2092, 387, 1838, 1325, 575, 2508
0.152407, 304, 402, 1760, 783, -486, 3346
0.152541, 304, 402, 1760, 783, -486, 3346
0.152675, 304, 402, 1760, 783, -486, 3346
0.152809, 304, 402, 1760, 783, -486, 3346
0.152943, 304, 402, 1760, 783, -486, 3346
0.153077, 304, 402, 1760, 783, -486, 3346
0.153211, 304, 402, 1760, 783, -486, 3346
0.153345, 304, 402, 1760, 783, -486, 3346
0.153479, 1178, 383, 1596, 155, -1436, 2858
0.153613, 1178, 383, 1596, 155, -1436, 2858
0.153747, 1178, 383, 1596, 155, -1436, 2858
0.153881, 1178, 383, 1596, 155, -1436, 2858
0.154011, 1178, 383, 1596, 155, -1436, 2858
0.154146, 1178, 383, 1596, 155, -1436, 2858
0.154281, 1178, 383, 1596, 155, -1436, 2858
0.154416, 1178, 383, 1596, 155, -1436, 2858
0.154550, 1422, 142, 1415, -456, -1821, 2115
0.154685, 1422, 142, 1415, -456, -1821, 2115
0.154820, 1422, 142, 1415, -456, -1821, 2115
0.154960, 1422, 142, 1415, -456, -1821, 2115
0.155095, 1422, 142, 1415, -456, -1821, 2115
0.155230, 1422, 142, 1415, -456, -1821, 2115
0.155365, 1422, 142, 1415, -456, -1821, 2115
0.155499, 2688, -58, 2118, -679, -1709, 1092
0.155634, 2688, -58, 2118, -679, -1709, 1092
0.155769, 2688, -58, 2118, -679, -1709, 1092
0.155903, 2688, -58, 2118, -679, -1709, 1092
0.156038, 2688, -58, 2118, -679, -1709, 1092
0.156173, 2688, -58, 2118, -679, -1709, 1092
0.156307, 2688, -58, 2118, -679, -1709, 1092
0.156442, 2688, -58, 2118, -679, -1709, 1092
0.156576, 2748, 186, 2812, -181, -1224, -542
0.156711, 2748, 186, 2812, -181, -1224, -542
0.156846, 2748, 186, 2812, -181, -1224, -542
0.156980, 2748, 186, 2812, -181, -1224, -542
0.157115, 2748, 186, 2812, -181, -1224, -542
0.157249, 2748, 186, 2812, -181, -1224, -542
0.157384, 2748, 186, 2812, -181, -1224, -542
0.157519, 784, 440, 2779, 657, -241, -1718
0.157653, 784, 440, 2779, 657, -241, -1718
0.157788, 784, 440, 2779, 657, -241, -1718
0.157923, 784, 440, 2779, 657, -241, -1718
0.158058, 784, 440, 2779, 657, -241, -1718
0.158192, 784, 440, 2779, 657, -241, -1718
0.158327, 784, 440, 2779, 657, -241, -1718
0.158461, 784, 440, 2779, 657, -241, -1718
0.158596, -805, 454, 2735, 1487, 935, -1573
0.158731, -805, 454, 2735, 1487, 935, -1573
0.158865, -805, 454, 2735, 1487, 935, -1573
0.159000, -805, 454, 2735, 1487, 935, -1573
0.159135, -805, 454, 2735, 1487, 935, -1573
0.159269, -805, 454, 2735, 1487, 935, -1573
0.159404, -805, 454, 2735, 1487, 935, -1573
0.159538, -643, 398, 2510, 2132, 1594, -766
0.159673, -643, 398, 2510, 2132, 1594, -766
0.159808, -643, 398, 2510, 2132, 1594, -766
0.159942, -643, 398, 2510, 2132, 1594, -766
0.160077, -643, 398, 2510, 2132, 1594, -766
0.160211, -643, 398, 2510, 2132, 1594, -766
0.160346, -643, 398, 2510, 2132, 1594, -766
0.160480, -643, 398, 2510, 2132, 1594, -766
0.160615, 72, 152, 1795, 2235, 1632, -340
0.160750, 72, 152, 1795, 2235, 1632, -340
0.160884, 72, 152, 1795, 2235, 1632, -340
0.161019, 72, 152, 1795, 2235, 1632, -340
0.161153, 72, 152, 1795, 2235, 1632, -340
0.161288, 72, 152, 1795, 2235, 1632, -340
0.161422, 72, 152, 1795, 2235, 1632, -340
0.161556, -162, -42, 1153, 1716, 1483, -270
0.161691, -162, -42, 1153, 1716, 1483, -270
0.161825, -162, -42, 1153, 1716, 1483, -270
0.161960, -162, -42, 1153, 1716, 1483, -270
0.162095, -162, -42, 1153, 1716, 1483, -270
0.162229, -162, -42, 1153, 1716, 1483, -270
0.162364, -162, -42, 1153, 1716, 1483, -270
0.162498, -162, -42, 1153, 1716, 1483, -270
0.162633, -814, 144, 1150, 933, 1224, 64
0.162768, -814, 144, 1150, 933, 1224, 64
0.162902, -814, 144, 1150, 933, 1224, 64
0.163037, -814, 144, 1150, 933, 1224, 64
0.163171, -814, 144, 1150, 933, 1224, 64
0.163305, -814, 144, 1150, 933, 1224, 64
0.163440, -814, 144, 1150, 933, 1224, 64
0.163574, -765, 319, 1612, 342, 691, 664
0.163709, -765, 319, 1612, 342, 691, 664
0.163843, -765, 319, 1612, 342, 691, 664
0.163978, -765, 319, 1612, 342, 691, 664
0.164112, -765, 319, 1612, 342, 691, 664
0.164247, -765, 319, 1612, 342, 691, 664
0.164381, -765, 319, 1612, 342, 691, 664
0.164516, -765, 319, 1612, 342, 691, 664
0.164650, -45, 321, 2042, 66, 6, 1033
0.164785, -45, 321, 2042, 66, 6, 1033
0.164920, -45, 321, 2042, 66, 6, 1033
0.165054, -45, 321, 2042, 66, 6, 1033
0.165189, -45, 321, 2042, 66, 6, 1033
0.165324, -45, 321, 2042, 66, 6, 1033
0.165458, -45, 321, 2042, 66, 6, 1033
0.165593, 802, 304, 2151, -33, -588, 898
0.165727, 802, 304, 2151, -33, -588, 898
0.165862, 802, 304, 2151, -33, -588, 898
0.165997, 802, 304, 2151, -33, -588, 898
0.166131, 802, 304, 2151, -33, -588, 898
0.166266, 802, 304, 2151, -33, -588, 898
0.166400, 802, 304, 2151, -33, -588, 898
0.166535, 802, 304, 2151, -33, -588, 898
0.166669, 1506, 211, 1752, -152, -991, 282
0.166804, 1506, 211, 1752, -152, -991, 282
0.166939, 1506, 211, 1752, -152, -991, 282
0.167074, 1506, 211, 1752, -152, -991, 282
0.167208, 1506, 211, 1752, -152, -991, 282
0.167343, 1506, 211, 1752, -152, -991, 282
0.167477, 1506, 211, 1752, -152, -991, 282
0.167612, 1299, 121, 1325, -412, -1040, -602
0.167746, 1299, 121, 1325, -412, -1040, -602
0.167889, 1299, 121, 1325, -412, -1040, -602
0.168024, 1299, 121, 1325, -412, -1040, -602
0.168159, 1299, 121, 1325, -412, -1040, -602
0.168293, 1299, 121, 1325, -412, -1040, -602
0.168427, 1299, 121, 1325, -412, -1040, -602
0.168562, 1299, 121, 1325, -412, -1040, -602
0.168696, -35, 134, 1407, -650, -585, -1010
0.168831, -35, 134, 1407, -650, -585, -1010
0.168965, -35, 134, 1407, -650, -585, -1010
0.169100, -35, 134, 1407, -650, -585, -1010
0.169234, -35, 134, 1407, -650, -585, -1010
0.169369, -35, 134, 1407, -650, -585, -1010
0.169503, -35, 134, 1407, -650, -585, -1010
0.169637, -35, 134, 1407, -650, -585, -1010
0.169772, -975, 191, 1679, -766, 101, -472
0.169906, -975, 191, 1679, -766, 101, -472
0.170041, -975, 191, 1679, -766, 101, -472
0.170176, -975, 191, 1679, -766, 101, -472
0.170310, -975, 191, 1679, -766, 101, -472
0.170445, -975, 191, 1679, -766, 101, -472
0.170579, -975, 191, 1679, -766, 101, -472
0.170714, -651, 257, 1970, -832, 580, 381
0.170849, -651, 257, 1970, -832, 580, 381
0.170983, -651, 257, 1970, -832, 580, 381
0.171118, -651, 257, 1970, -832, 580, 381
0.171252, -651, 257, 1970, -832, 580, 381
0.171387, -651, 257, 1970, -832, 580, 381
0.171521, -651, 257, 1970, -832, 580, 381
0.171656, -651, 257, 1970, -832, 580, 381
0.171790, -11, 379, 2372, -796, 712, 837
0.171925, -11, 379, 2372, -796, 712, 837
0.172059, -11, 379, 2372, -796, 712, 837
0.172194, -11, 379, 2372, -796, 712, 837
0.172328, -11, 379, 2372, -796, 712, 837
0.172463, -11, 379, 2372, -796, 712, 837
0.172597, -11, 379, 2372, -796, 712, 837
0.172732, 83, 497, 2677, -587, 634, 950
0.172867, 83, 497, 2677, -587, 634, 950
0.173001, 83, 497, 2677, -587, 634, 950
0.173136, 83, 497, 2677, -587, 634, 950
0.173270, 83, 497, 2677, -587, 634, 950
0.173405, 83, 497, 2677, -587, 634, 950
0.173539, 83, 497, 2677, -587, 634, 950
0.173674, 83, 497, 2677, -587, 634, 950
0.173808, 135, 455, 2540, -297, 473, 1026
0.173943, 135, 455, 2540, -297, 473, 1026
0.174078, 135, 455, 2540, -297, 473, 1026
0.174213, 135, 455, 2540, -297, 473, 1026
0.174347, 135, 455, 2540, -297, 473, 1026
0.174482, 135, 455, 2540, -297, 473, 1026
0.174616, 135, 455, 2540, -297, 473, 1026
0.174751, 526, 283, 1946, -213, 209, 959
0.174885, 526, 283, 1946, -213, 209, 959
0.175020, 526, 283, 1946, -213, 209, 959
0.175154, 526, 283, 1946, -213, 209, 959
0.175289, 526, 283, 1946, -213, 209, 959
0.175424, 526, 283, 1946, -213, 209, 959
0.175558, 526, 283, 1946, -213, 209, 959
0.175693, 526, 283, 1946, -213, 209, 959
0.175827, 478, 205, 1544, -458, -123, 673
0.175962, 478, 205, 1544, -458, -123, 673
0.176097, 478, 205, 1544, -458, -123, 673
0.176231, 478, 205, 1544, -458, -123, 673
0.176366, 478, 205, 1544, -458, -123, 673
0.176500, 478, 205, 1544, -458, -123, 673
0.176635, 478, 205, 1544, -458, -123, 673
0.176769, -134, 261, 1693, -742, -349, 572
0.176904, -134, 261, 1693, -742, -349, 572
0.177039, -134, 261, 1693, -742, -349, 572
0.177173, -134, 261, 1693, -742, -349, 572
0.177308, -134, 261, 1693, -742, -349, 572
0.177442, -134, 261, 1693, -742, -349, 572
0.177577, -134, 261, 1693, -742, -349, 572
0.177711, -134, 261, 1693, -742, -349, 572
0.177846, -343, 326, 1964, -854, -381, 844
0.177981, -343, 326, 1964, -854, -381, 844
0.178120, -343, 326, 1964, -854, -381, 844
0.178255, -343, 326, 1964, -854, -381, 844
0.178390, -343, 326, 1964, -854, -381, 844
0.178525, -343, 326, 1964, -854, -381, 844
0.178659, -343, 326, 1964, -854, -381, 844
0.178794, 195, 353, 2140, -876, -311, 1097
0.178929, 195, 353, 2140, -876, -311, 1097
0.179063, 195, 353, 2140, -876, -311, 1097
0.179198, 195, 353, 2140, -876, -311, 1097
0.179332, 195, 353, 2140, -876, -311, 1097
0.179467, 195, 353, 2140, -876, -311, 1097
0.179602, 195, 353, 2140, -876, -311, 1097
0.179736, 195, 353, 2140, -876, -311, 1097
0.179871, 954, 350, 2288, -837, -271, 919
0.180006, 954, 350, 2288, -837, -271, 919
0.180140, 954, 350, 2288, -837, -271, 919
0.180275, 954, 350, 2288, -837, -271, 919
0.180409, 954, 350, 2288, -837, -271, 919
0.180544, 954, 350, 2288, -837, -271, 919
0.180678, 954, 350, 2288, -837, -271, 919
0.180813, 1064, 381, 2232, -716, -183, 365
0.180952, 1064, 381, 2232, -716, -183, 365
0.181087, 1064, 381, 2232, -716, -183, 365
0.181222, 1064, 381, 2232, -716, -183, 365
0.181356, 1064, 381, 2232, -716, -183, 365
0.181491, 1064, 381, 2232, -716, -183, 365
0.181625, 1064, 381, 2232, -716, -183, 365
0.181760, 1064, 381, 2232, -716, -183, 365
0.181895, 553, 337, 2022, -612, 96, -77
0.182030, 553, 337, 2022, -612, 96, -77
0.182165, 553, 337, 2022, -612, 96, -77
0.182299, 553, 337, 2022, -612, 96, -77
0.182434, 553, 337, 2022, -612, 96, -77
0.182568, 553, 337, 2022, -612, 96, -77
0.182703, 553, 337, 2022, -612, 96, -77
0.182837, 433, 225, 1989, -565, 415, -220
0.182972, 433, 225, 1989, -565, 415, -220
0.183107, 433, 225, 1989, -565, 415, -220
0.183241, 433, 225, 1989, -565, 415, -220
0.183376, 433, 225, 1989, -565, 415, -220
0.183510, 433, 225, 1989, -565, 415, -220
0.183645, 433, 225, 1989, -565, 415, -220
0.183780, 433, 225, 1989, -565, 415, -220
0.183914, 637, 222, 1993, -518, 576, -387
0.184049, 637, 222, 1993, -518, 576, -387
0.184183, 637, 222, 1993, -518, 576, -387
0.184318, 637, 222, 1993, -518, 576, -387
0.184453, 637, 222, 1993, -518, 576, -387
0.184587, 637, 222, 1993, -518, 576, -387
0.184722, 637, 222, 1993, -518, 576, -387
0.184856, 708, 170, 1869, -524, 658, -678
0.184991, 708, 170, 1869, -524, 658, -678
0.185126, 708, 170, 1869, -524, 658, -678
0.185260, 708, 170, 1869, -524, 658, -678
0.185395, 708, 170, 1869, -524, 658, -678
0.185529, 708, 170, 1869, -524, 658, -678
0.185664, 708, 170, 1869, -524, 658, -678
0.185798, 708, 170, 1869, -524, 658, -678
0.185933, 502, 122, 1849, -579, 773, -967
0.186068, 502, 122, 1849, -579, 773, -967
0.186202, 502, 122, 1849, -579, 773, -967
0.186337, 502, 122, 1849, -579, 773, -967
0.186472, 502, 122, 1849, -579, 773, -967
0.186607, 502, 122, 1849, -579, 773, -967
0.186741, 502, 122, 1849, -579, 773, -967
0.186876, -77, 214, 1894, -581, 874, -1043
0.187011, -77, 214, 1894, -581, 874, -1043
0.187145, -77, 214, 1894, -581, 874, -1043
0.187280, -77, 214, 1894, -581, 874, -1043
0.187414, -77, 214, 1894, -581, 874, -1043
0.187549, -77, 214, 1894, -581, 874, -1043
0.187683, -77, 214, 1894, -581, 874, -1043
0.187818, -77, 214, 1894, -581, 874, -1043
0.187952, -473, 287, 1914, -566, 882, -767
0.188087, -473, 287, 1914, -566, 882, -767
0.188222, -473, 287, 1914, -566, 882, -767
0.188356, -473, 287, 1914, -566, 882, -767
0.188491, -473, 287, 1914, -566, 882, -767
0.188625, -473, 287, 1914, -566, 882, -767
0.188760, -473, 287, 1914, -566, 882, -767
0.188894, -473, 287, 1914, -566, 882, -767
0.189029, -291, 314, 1975, -591, 774, -361
0.189164, -291, 314, 1975, -591, 774, -361
0.189298, -291, 314, 1975, -591, 774, -361
0.189433, -291, 314, 1975, -591, 774, -361
0.189567, -291, 314, 1975, -591, 774, -361
0.189702, -291, 314, 1975, -591, 774, -361
0.189836, -291, 314, 1975, -591, 774, -361
0.189971, 486, 266, 2080, -633, 537, -198
0.190106, 486, 266, 2080, -633, 537, -198
0.190240, 486, 266, 2080, -633, 537, -198
0.190374, 486, 266, 2080, -633, 537, -198
0.190509, 486, 266, 2080, -633, 537, -198
0.190644, 486, 266, 2080, -633, 537, -198
0.190778, 486, 266, 2080, -633, 537, -198
0.190913, 486, 266, 2080, -633, 537, -198
0.191047, 1305, 177, 2075, -651, 278, -592
0.191182, 1305, 177, 2075, -651, 278, -592
0.191317, 1305, 177, 2075, -651, 278, -592
0.191451, 1305, 177, 2075, -651, 278, -592
0.191586, 1305, 177, 2075, -651, 278, -592
0.191720, 1305, 177, 2075, -651, 278, -592
0.191855, 1305, 177, 2075, -651, 278, -592
0.191989, 937, 168, 1903, -641, 256, -1288
0.192124, 937, 168, 1903, -641, 256, -1288
0.192259, 937, 168, 1903, -641, 256, -1288
0.192393, 937, 168, 1903, -641, 256, -1288
0.192528, 937, 168, 1903, -641, 256, -1288
0.192662, 937, 168, 1903, -641, 256, -1288
0.192797, 937, 168, 1903, -641, 256, -1288
0.192931, 937, 168, 1903, -641, 256, -1288
0.193066, -100, 204, 1768, -629, 501, -1484
0.193201, -100, 204, 1768, -629, 501, -1484
0.193335, -100, 204, 1768, -629, 501, -1484
0.193470, -100, 204, 1768, -629, 501, -1484
0.193604, -100, 204, 1768, -629, 501, -1484
0.193739, -100, 204, 1768, -629, 501, -1484
0.193877, -100, 204, 1768, -629, 501, -1484
0.194013, -29, 217, 1756, -633, 685, -1170
0.194148, -29, 217, 1756, -633, 685, -1170
0.194282, -29, 217, 1756, -633, 685, -1170
0.194417, -29, 217, 1756, -633, 685, -1170
0.194551, -29, 217, 1756, -633, 685, -1170
0.194686, -29, 217, 1756, -633, 685, -1170
0.194820, -29, 217, 1756, -633, 685, -1170
0.194955, -29, 217, 1756, -633, 685, -1170
0.195089, 797, 206, 1911, -656, 671, -1153
0.195224, 797, 206, 1911, -656, 671, -1153
0.195358, 797, 206, 1911, -656, 671, -1153
0.195493, 797, 206, 1911, -656, 671, -1153
0.195627, 797, 206, 1911, -656, 671, -1153
0.195762, 797, 206, 1911, -656, 671, -1153
0.195897, 797, 206, 1911, -656, 671, -1153
0.196031, 736, 168, 2215, -590, 716, -1546
0.196166, 736, 168, 2215, -590, 716, -1546
0.196300, 736, 168, 2215, -590, 716, -1546
0.196435, 736, 168, 2215, -590, 716, -1546
0.196570, 736, 168, 2215, -590, 716, -1546
0.196704, 736, 168, 2215, -590, 716, -1546
0.196839, 736, 168, 2215, -590, 716, -1546
0.196973, 736, 168, 2215, -590, 716, -1546
0.197108, -287, 125, 2487, -313, 980, -1643
0.197243, -287, 125, 2487, -313, 980, -1643
0.197377, -287, 125, 2487, -313, 980, -1643
0.197512, -287, 125, 2487, -313, 980, -1643
0.197646, -287, 125, 2487, -313, 980, -1643
0.197781, -287, 125, 2487, -313, 980, -1643
0.197915, -287, 125, 2487, -313, 980, -1643
0.198050, -716, 194, 2437, 69, 1189, -1142
0.198185, -716, 194, 2437, 69, 1189, -1142
0.198320, -716, 194, 2437, 69, 1189, -1142
0.198454, -716, 194, 2437, 69, 1189, -1142
0.198589, -716, 194, 2437, 69, 1189, -1142
0.198723, -716, 194, 2437, 69, 1189, -1142
0.198858, -716, 194, 2437, 69, 1189, -1142
0.198992, -716, 194, 2437, 69, 1189, -1142
0.199127, 188, 336, 2143, 269, 1015, -722
0.199262, 188, 336, 2143, 269, 1015, -722
0.199396, 188, 336, 2143, 269, 1015, -722
0.199531, 188, 336, 2143, 269, 1015, -722
0.199665, 188, 336, 2143, 269, 1015, -722
0.199800, 188, 336, 2143, 269, 1015, -722
0.199934, 188, 336, 2143, 269, 1015, -722
0.200069, 828, 327, 1996, 220, 611, -988
0.200204, 828, 327, 1996, 220, 611, -988
0.200338, 828, 327, 1996, 220, 611, -988
0.200473, 828, 327, 1996, 220, 611, -988
0.200608, 828, 327, 1996, 220, 611, -988
0.200742, 828, 327, 1996, 220, 611, -988
0.200877, 828, 327, 1996, 220, 611, -988
0.201011, 828, 327, 1996, 220, 611, -988
0.201146, 23, 170, 2025, 123, 416, -1354
0.201280, 23, 170, 2025, 123, 416, -1354
0.201415, 23, 170, 2025, 123, 416, -1354
0.201550, 23, 170, 2025, 123, 416, -1354
0.201684, 23, 170, 2025, 123, 416, -1354
0.201819, 23, 170, 2025, 123, 416, -1354
0.201953, 23, 170, 2025, 123, 416, -1354
0.202088, -851, 141, 2044, 116, 469, -1038
0.202223, -851, 141, 2044, 116, 469, -1038
0.202358, -851, 141, 2044, 116, 469, -1038
0.202492, -851, 141, 2044, 116, 469, -1038
0.202627, -851, 141, 2044, 116, 469, -1038
0.202761, -851, 141, 2044, 116, 469, -1038
0.202896, -851, 141, 2044, 116, 469, -1038
0.203031, -851, 141, 2044, 116, 469, -1038
0.203165, -499, 265, 2038, 133, 419, -396
0.203300, -499, 265, 2038, 133, 419, -396
0.203435, -499, 265, 2038, 133, 419, -396
0.203569, -499, 265, 2038, 133, 419, -396
0.203704, -499, 265, 2038, 133, 419, -396
0.203838, -499, 265, 2038, 133, 419, -396
0.203973, -499, 265, 2038, 133, 419, -396
0.204107, 304, 336, 2094, 104, 170, -178
0.204242, 304, 336, 2094, 104, 170, -178
0.204377, 304, 336, 2094, 104, 170, -178
0.204511, 304, 336, 2094, 104, 170, -178
0.204646, 304, 336, 2094, 104, 170, -178
0.204780, 304, 336, 2094, 104, 170, -178
0.204915, 304, 336, 2094, 104, 170, -178
0.205050, 304, 336, 2094, 104, 170, -178
0.205184, 498, 354, 2094, 63, -11, -376
0.205319, 498, 354, 2094, 63, -11, -376
0.205453, 498, 354, 2094, 63, -11, -376
0.205588, 498, 354, 2094, 63, -11, -376
0.205723, 498, 354, 2094, 63, -11, -376
0.205857, 498, 354, 2094, 63, -11, -376
0.205992, 498, 354, 2094, 63, -11, -376
0.206127, 498, 354, 2094, 63, -11, -376
0.206261, 323, 348, 1996, 16, 18, -558
0.206396, 323, 348, 1996, 16, 18, -558
0.206531, 323, 348, 1996, 16, 18, -558
0.206665, 323, 348, 1996, 16, 18, -558
0.206800, 323, 348, 1996, 16, 18, -558
0.206934, 323, 348, 1996, 16, 18, -558
0.207073, 323, 348, 1996, 16, 18, -558
0.207208, 267, 345, 1971, -32, 140, -618
0.207342, 267, 345, 1971, -32, 140, -618
0.207477, 267, 345, 1971, -32, 140, -618
0.207612, 267, 345, 1971, -32, 140, -618
0.207746, 267, 345, 1971, -32, 140, -618
0.207881, 267, 345, 1971, -32, 140, -618
0.208015, 267, 345, 1971, -32, 140, -618
0.208150, 267, 345, 1971, -32, 140, -618
0.208284, 167, 335, 2055, -37, 254, -639
0.208419, 167, 335, 2055, -37, 254, -639
0.208554, 167, 335, 2055, -37, 254, -639
0.208688, 167, 335, 2055, -37, 254, -639
0.208823, 167, 335, 2055, -37, 254, -639
0.208957, 167, 335, 2055, -37, 254, -639
0.209092, 167, 335, 2055, -37, 254, -639
0.209226, -16, 270, 2155, 24, 369, -567
0.209361, -16, 270, 2155, 24, 369, -567
0.209496, -16, 270, 2155, 24, 369, -567
0.209632, -16, 270, 2155, 24, 369, -567
0.209767, -16, 270, 2155, 24, 369, -567
0.209902, -16, 270, 2155, 24, 369, -567
0.210037, -16, 270, 2155, 24, 369, -567
0.210172, -16, 270, 2155, 24, 369, -567
0.210306, 6, 277, 2143, 110, 453, -416
0.210441, 6, 277, 2143, 110, 453, -416
0.210576, 6, 277, 2143, 110, 453, -416
0.210710, 6, 277, 2143, 110, 453, -416
0.210845, 6, 277, 2143, 110, 453, -416
0.210979, 6, 277, 2143, 110, 453, -416
0.211114, 6, 277, 2143, 110, 453, -416
0.211249, 38, 321, 1999, 126, 459, -326
0.211383, 38, 321, 1999, 126, 459, -326
0.211518, 38, 321, 1999, 126, 459, -326
0.211652, 38, 321, 1999, 126, 459, -326
0.211787, 38, 321, 1999, 126, 459, -326
0.211922, 38, 321, 1999, 126, 459, -326
0.212056, 38, 321, 1999, 126, 459, -326
0.212191, 38, 321, 1999, 126, 459, -326
0.212326, -198, 294, 1981, 66, 423, -208
0.212460, -198, 294, 1981, 66, 423, -208
0.212595, -198, 294, 1981, 66, 423, -208
0.212729, -198, 294, 1981, 66, 423, -208
0.212864, -198, 294, 1981, 66, 423, -208
0.212998, -198, 294, 1981, 66, 423, -208
0.213133, -198, 294, 1981, 66, 423, -208
0.213267, -73, 293, 2111, 36, 349, 37
0.213402, -73, 293, 2111, 36, 349, 37
0.213537, -73, 293, 2111, 36, 349, 37
0.213671, -73, 293, 2111, 36, 349, 37
0.213806, -73, 293, 2111, 36, 349, 37
0.213941, -73, 293, 2111, 36, 349, 37
0.214075, -73, 293, 2111, 36, 349, 37
0.214210, -73, 293, 2111, 36, 349, 37
0.214344, 771, 305, 2055, 30, 193, 26
0.214479, 771, 305, 2055, 30, 193, 26
0.214614, 771, 305, 2055, 30, 193, 26
0.214748, 771, 305, 2055, 30, 193, 26
0.214883, 771, 305, 2055, 30, 193, 26
0.215017, 771, 305, 2055, 30, 193, 26
0.215152, 771, 305, 2055, 30, 193, 26
0.215286, 1453, 277, 1851, -49, 64, -551
0.215421, 1453, 277, 1851, -49, 64, -551
0.215555, 1453, 277, 1851, -49, 64, -551
0.215690, 1453, 277, 1851, -49, 64, -551
0.215825, 1453, 277, 1851, -49, 64, -551
0.215959, 1453, 277, 1851, -49, 64, -551
0.216094, 1453, 277, 1851, -49, 64, -551
0.216228, 1453, 277, 1851, -49, 64, -551
0.216363, 1554, 268, 1786, -136, 116, -1409
0.216497, 1554, 268, 1786, -136, 116, -1409
0.216632, 1554, 268, 1786, -136, 116, -1409
0.216766, 1554, 268, 1786, -136, 116, -1409
0.216901, 1554, 268, 1786, -136, 116, -1409
0.217036, 1554, 268, 1786, -136, 116, -1409
0.217170, 1554, 268, 1786, -136, 116, -1409
0.217305, 1299, 254, 1822, -126, 367, -2206
0.217439, 1299, 254, 1822, -126, 367, -2206
0.217574, 1299, 254, 1822, -126, 367, -2206
0.217708, 1299, 254, 1822, -126, 367, -2206
0.217843, 1299, 254, 1822, -126, 367, -2206
0.217977, 1299, 254, 1822, -126, 367, -2206
0.218112, 1299, 254, 1822, -126, 367, -2206
0.218247, 1299, 254, 1822, -126, 367, -2206
0.218381, 545, 214, 1891, -22, 807, -2705
0.218516, 545, 214, 1891, -22, 807, -2705
0.218651, 545, 214, 1891, -22, 807, -2705
0.218785, 545, 214, 1891, -22, 807, -2705
0.218920, 545, 214, 1891, -22, 807, -2705
0.219054, 545, 214, 1891, -22, 807, -2705
0.219189, 545, 214, 1891, -22, 807, -2705
0.219323, -299, 215, 2017, 154, 1305, -2644
0.219458, -299, 215, 2017, 154, 1305, -2644
0.219593, -299, 215, 2017, 154, 1305, -2644
0.219727, -299, 215, 2017, 154, 1305, -2644
0.219862, -299, 215, 2017, 154, 1305, -2644
0.219996, -299, 215, 2017, 154, 1305, -2644
0.220131, -299, 215, 2017, 154, 1305, -2644
0.220265, -299, 215, 2017, 154, 1305, -2644
0.220400, -675, 245, 2138, 351, 1608, -2121
0.220542, -675, 245, 2138, 351, 1608, -2121
0.220677, -675, 245, 2138, 351, 1608, -2121
0.220812, -675, 245, 2138, 351, 1608, -2121
0.220947, -675, 245, 2138, 351, 1608, -2121
0.221081, -675, 245, 2138, 351, 1608, -2121
0.221216, -675, 245, 2138, 351, 1608, -2121
0.221350, -677, 275, 2233, 512, 1623, -1480
0.221485, -677, 275, 2233, 512, 1623, -1480
0.221619, -677, 275, 2233, 512, 1623, -1480
0.221754, -677, 275, 2233, 512, 1623, -1480
0.221888, -677, 275, 2233, 512, 1623, -1480
0.222023, -677, 275, 2233, 512, 1623, -1480
0.222157, -677, 275, 2233, 512, 1623, -1480
0.222291, -677, 275, 2233, 512, 1623, -1480
0.222425, -216, 293, 2234, 608, 1400, -974
0.222559, -216, 293, 2234, 608, 1400, -974
0.222693, -216, 293, 2234, 608, 1400, -974
0.222828, -216, 293, 2234, 608, 1400, -974
0.222962, -216, 293, 2234, 608, 1400, -974
0.223096, -216, 293, 2234, 608, 1400, -974
0.223227, -216, 293, 2234, 608, 1400, -974
0.223363, 365, 255, 2062, 596, 1011, -871
0.223494, 365, 255, 2062, 596, 1011, -871
0.223629, 365, 255, 2062, 596, 1011, -871
0.223763, 365, 255, 2062, 596, 1011, -871
0.223898, 365, 255, 2062, 596, 1011, -871
0.224032, 365, 255, 2062, 596, 1011, -871
0.224167, 365, 255, 2062, 596, 1011, -871
0.224301, 365, 255, 2062, 596, 1011, -871
0.224435, -157, 184, 1918, 489, 668, -973
0.224570, -157, 184, 1918, 489, 668, -973
0.224704, -157, 184, 1918, 489, 668, -973
0.224838, -157, 184, 1918, 489, 668, -973
0.224973, -157, 184, 1918, 489, 668, -973
0.225107, -157, 184, 1918, 489, 668, -973
0.225241, -157, 184, 1918, 489, 668, -973
0.225376, -157, 184, 1918, 489, 668, -973
0.225510, -1367, 115, 1903, 409, 498, -484
0.225645, -1367, 115, 1903, 409, 498, -484
0.225779, -1367, 115, 1903, 409, 498, -484
0.225913, -1367, 115, 1903, 409, 498, -484
0.226048, -1367, 115, 1903, 409, 498, -484
0.226183, -1367, 115, 1903, 409, 498, -484
0.226317, -1367, 115, 1903, 409, 498, -484
0.226451, -1415, 63, 1814, 325, 276, 622
0.226586, -1415, 63, 1814, 325, 276, 622
0.226720, -1415, 63, 1814, 325, 276, 622
0.226855, -1415, 63, 1814, 325, 276, 622
0.226989, -1415, 63, 1814, 325, 276, 622
0.227124, -1415, 63, 1814, 325, 276, 622
0.227258, -1415, 63, 1814, 325, 276, 622
0.227392, -1415, 63, 1814, 325, 276, 622
0.227527, -441, 84, 1790, 139, -125, 1466
0.227661, -441, 84, 1790, 139, -125, 1466
0.227796, -441, 84, 1790, 139, -125, 1466
0.227930, -441, 84, 1790, 139, -125, 1466
0.228064, -441, 84, 1790, 139, -125, 1466
0.228199, -441, 84, 1790, 139, -125, 1466
0.228333, -441, 84, 1790, 139, -125, 1466
0.228467, 722, 183, 2111, -10, -527, 1596
0.228602, 722, 183, 2111, -10, -527, 1596
0.228737, 722, 183, 2111, -10, -527, 1596
0.228871, 722, 183, 2111, -10, -527, 1596
0.229005, 722, 183, 2111, -10, -527, 1596
0.229140, 722, 183, 2111, -10, -527, 1596
0.229274, 722, 183, 2111, -10, -527, 1596
0.229408, 722, 183, 2111, -10, -527, 1596
0.229543, 2014, 275, 2362, 35, -750, 907
0.229677, 2014, 275, 2362, 35, -750, 907
0.229812, 2014, 275, 2362, 35, -750, 907
0.229946, 2014, 275, 2362, 35, -750, 907
0.230081, 2014, 275, 2362, 35, -750, 907
0.230215, 2014, 275, 2362, 35, -750, 907
0.230349, 2014, 275, 2362, 35, -750, 907
0.230484, 2401, 299, 2122, 164, -607, -497
0.230618, 2401, 299, 2122, 164, -607, -497
0.230752, 2401, 299, 2122, 164, -607, -497
0.230887, 2401, 299, 2122, 164, -607, -497
0.231021, 2401, 299, 2122, 164, -607, -497
0.231155, 2401, 299, 2122, 164, -607, -497
0.231290, 2401, 299, 2122, 164, -607, -497
0.231424, 2401, 299, 2122, 164, -607, -497
0.231558, 902, 244, 1952, 288, -3, -1684
0.231693, 902, 244, 1952, 288, -3, -1684
0.231827, 902, 244, 1952, 288, -3, -1684
0.231961, 902, 244, 1952, 288, -3, -1684
0.232096, 902, 244, 1952, 288, -3, -1684
0.232230, 902, 244, 1952, 288, -3, -1684
0.232364, 902, 244, 1952, 288, -3, -1684
0.232499, -1167, 155, 2169, 546, 775, -1585
0.232633, -1167, 155, 2169, 546, 775, -1585
0.232768, -1167, 155, 2169, 546, 775, -1585
0.232902, -1167, 155, 2169, 546, 775, -1585
0.233036, -1167, 155, 2169, 546, 775, -1585
0.233171, -1167, 155, 2169, 546, 775, -1585
0.233305, -1167, 155, 2169, 546, 775, -1585
0.233445, -1167, 155, 2169, 546, 775, -1585
0.233580, -1573, 177, 2404, 934, 1267, -415
0.233715, -1573, 177, 2404, 934, 1267, -415
0.233849, -1573, 177, 2404, 934, 1267, -415
0.233988, -1573, 177, 2404, 934, 1267, -415
0.234123, -1573, 177, 2404, 934, 1267, -415
0.234258, -1573, 177, 2404, 934, 1267, -415
0.234392, -1573, 177, 2404, 934, 1267, -415
0.234526, -572, 311, 2458, 1221, 1280, 579
0.234661, -572, 311, 2458, 1221, 1280, 579
0.234795, -572, 311, 2458, 1221, 1280, 579
0.234930, -572, 311, 2458, 1221, 1280, 579
0.235064, -572, 311, 2458, 1221, 1280, 579
0.235199, -572, 311, 2458, 1221, 1280, 579
0.235333, -572, 311, 2458, 1221, 1280, 579
0.235467, -572, 311, 2458, 1221, 1280, 579
0.235602, -45, 416, 2396, 1296, 992, 880
0.235736, -45, 416, 2396, 1296, 992, 880
0.235871, -45, 416, 2396, 1296, 992, 880
0.236005, -45, 416, 2396, 1296, 992, 880
0.236139, -45, 416, 2396, 1296, 992, 880
0.236274, -45, 416, 2396, 1296, 992, 880
0.236408, -45, 416, 2396, 1296, 992, 880
0.236543, -131, 529, 2317, 1298, 646, 989
0.236677, -131, 529, 2317, 1298, 646, 989
0.236812, -131, 529, 2317, 1298, 646, 989
0.236946, -131, 529, 2317, 1298, 646, 989
0.237080, -131, 529, 2317, 1298, 646, 989
0.237215, -131, 529, 2317, 1298, 646, 989
0.237349, -131, 529, 2317, 1298, 646, 989
0.237484, -131, 529, 2317, 1298, 646, 989
0.237618, 317, 572, 2110, 1266, 237, 1085
0.237752, 317, 572, 2110, 1266, 237, 1085
0.237887, 317, 572, 2110, 1266, 237, 1085
0.238021, 317, 572, 2110, 1266, 237, 1085
0.238156, 317, 572, 2110, 1266, 237, 1085
0.238290, 317, 572, 2110, 1266, 237, 1085
0.238425, 317, 572, 2110, 1266, 237, 1085
0.238559, 317, 572, 2110, 1266, 237, 1085
0.238693, 1280, 406, 1868, 1107, -248, 729
0.238828, 1280, 406, 1868, 1107, -248, 729
0.238962, 1280, 406, 1868, 1107, -248, 729
0.239097, 1280, 406, 1868, 1107, -248, 729
0.239231, 1280, 406, 1868, 1107, -248, 729
0.239366, 1280, 406, 1868, 1107, -248, 729
0.239500, 1280, 406, 1868, 1107, -248, 729
0.239634, 1440, 257, 1803, 932, -556, -127
0.239769, 1440, 257, 1803, 932, -556, -127
0.239903, 1440, 257, 1803, 932, -556, -127
0.240038, 1440, 257, 1803, 932, -556, -127
0.240172, 1440, 257, 1803, 932, -556, -127
0.240307, 1440, 257, 1803, 932, -556, -127
0.240441, 1440, 257, 1803, 932, -556, -127
0.240575, 1440, 257, 1803, 932, -556, -127
0.240710, 265, 254, 1889, 919, -424, -709
0.240844, 265, 254, 1889, 919, -424, -709
0.240978, 265, 254, 1889, 919, -424, -709
0.241113, 265, 254, 1889, 919, -424, -709
0.241247, 265, 254, 1889, 919, -424, -709
0.241382, 265, 254, 1889, 919, -424, -709
0.241516, 265, 254, 1889, 919, -424, -709
0.241650, -299, 232, 1810, 1033, 19, -459
0.241785, -299, 232, 1810, 1033, 19, -459
0.241919, -299, 232, 1810, 1033, 19, -459
0.242054, -299, 232, 1810, 1033, 19, -459
0.242189, -299, 232, 1810, 1033, 19, -459
0.242323, -299, 232, 1810, 1033, 19, -459
0.242458, -299, 232, 1810, 1033, 19, -459
0.242592, -299, 232, 1810, 1033, 19, -459
0.242726, 1280, 200, 1406, 943, 334, -307
0.242861, 1280, 200, 1406, 943, 334, -307
0.242995, 1280, 200, 1406, 943, 334, -307
0.243130, 1280, 200, 1406, 943, 334, -307
0.243264, 1280, 200, 1406, 943, 334, -307
0.243399, 1280, 200, 1406, 943, 334, -307
0.243533, 1280, 200, 1406, 943, 334, -307
0.243667, 2400, 192, 1333, 571, 507, -1316
0.243802, 2400, 192, 1333, 571, 507, -1316
0.243936, 2400, 192, 1333, 571, 507, -1316
0.244071, 2400, 192, 1333, 571, 507, -1316
0.244205, 2400, 192, 1333, 571, 507, -1316
0.244340, 2400, 192, 1333, 571, 507, -1316
0.244474, 2400, 192, 1333, 571, 507, -1316
0.244608, 2400, 192, 1333, 571, 507, -1316
0.244743, 945, 171, 1736, 361, 959, -2475
0.244877, 945, 171, 1736, 361, 959, -2475
0.245012, 945, 171, 1736, 361, 959, -2475
0.245146, 945, 171, 1736, 361, 959, -2475
0.245280, 945, 171, 1736, 361, 959, -2475
0.245415, 945, 171, 1736, 361, 959, -2475
0.245549, 945, 171, 1736, 361, 959, -2475
0.245684, -903, 164, 1986, 490, 1660, -2397
0.245818, -903, 164, 1986, 490, 1660, -2397
0.245953, -903, 164, 1986, 490, 1660, -2397
0.246087, -903, 164, 1986, 490, 1660, -2397
0.246221, -903, 164, 1986, 490, 1660, -2397
0.246356, -903, 164, 1986, 490, 1660, -2397
0.246495, -903, 164, 1986, 490, 1660, -2397
0.246630, -903, 164, 1986, 490, 1660, -2397
0.246764, -1233, 171, 1958, 672, 2048, -1448
0.246899, -1233, 171, 1958, 672, 2048, -1448
0.247033, -1233, 171, 1958, 672, 2048, -1448
0.247167, -1233, 171, 1958, 672, 2048, -1448
0.247302, -1233, 171, 1958, 672, 2048, -1448
0.247436, -1233, 171, 1958, 672, 2048, -1448
0.247571, -1233, 171, 1958, 672, 2048, -1448
0.247705, -858, 195, 1938, 692, 1816, -579
0.247839, -858, 195, 1938, 692, 1816, -579
0.247974, -858, 195, 1938, 692, 1816, -579
0.248108, -858, 195, 1938, 692, 1816, -579
0.248242, -858, 195, 1938, 692, 1816, -579
0.248377, -858, 195, 1938, 692, 1816, -579
0.248514, -858, 195, 1938, 692, 1816, -579
0.248656, -858, 195, 1938, 692, 1816, -579
0.248792, -955, 208, 2142, 649, 1253, 71
0.248928, -955, 208, 2142, 649, 1253, 71
0.249063, -955, 208, 2142, 649, 1253, 71
0.249199, -955, 208, 2142, 649, 1253, 71
0.249335, -955, 208, 2142, 649, 1253, 71
0.249471, -955, 208, 2142, 649, 1253, 71
0.249607, -955, 208, 2142, 649, 1253, 71
0.249744, -1498, 217, 2376, 713, 753, 907
0.249881, -1498, 217, 2376, 713, 753, 907
0.250017, -1498, 217, 2376, 713, 753, 907
0.250153, -1498, 217, 2376, 713, 753, 907
0.250289, -1498, 217, 2376, 713, 753, 907
0.250426, -1498, 217, 2376, 713, 753, 907
0.250561, -1498, 217, 2376, 713, 753, 907
0.250697, -1498, 217, 2376, 713, 753, 907
0.250832, -1460, 279, 2219, 767, 269, 2005
0.250971, -1460, 279, 2219, 767, 269, 2005
0.251103, -1460, 279, 2219, 767, 269, 2005
0.251239, -1460, 279, 2219, 767, 269, 2005
0.251375, -1460, 279, 2219, 767, 269, 2005
0.251510, -1460, 279, 2219, 767, 269, 2005
0.251646, -1460, 279, 2219, 767, 269, 2005
0.251780, -40, 366, 1845, 583, -455, 2734
0.251916, -40, 366, 1845, 583, -455, 2734
0.252051, -40, 366, 1845, 583, -455, 2734
0.252186, -40, 366, 1845, 583, -455, 2734
0.252320, -40, 366, 1845, 583, -455, 2734
0.252457, -40, 366, 1845, 583, -455, 2734
0.252592, -40, 366, 1845, 583, -455, 2734
0.252726, -40, 366, 1845, 583, -455, 2734
0.252861, 1519, 381, 1779, 228, -1259, 2376
0.252997, 1519, 381, 1779, 228, -1259, 2376
0.253132, 1519, 381, 1779, 228, -1259, 2376
0.253267, 1519, 381, 1779, 228, -1259, 2376
0.253401, 1519, 381, 1779, 228, -1259, 2376
0.253536, 1519, 381, 1779, 228, -1259, 2376
0.253670, 1519, 381, 1779, 228, -1259, 2376
0.253805, 1285, 279, 1846, -37, -1567, 1372
0.253940, 1285, 279, 1846, -37, -1567, 1372
0.254075, 1285, 279, 1846, -37, -1567, 1372
0.254209, 1285, 279, 1846, -37, -1567, 1372
0.254344, 1285, 279, 1846, -37, -1567, 1372
0.254479, 1285, 279, 1846, -37, -1567, 1372
0.254613, 1285, 279, 1846, -37, -1567, 1372
0.254748, 1285, 279, 1846, -37, -1567, 1372
0.254883, 147, 237, 1856, -123, -1165, 928
0.255017, 147, 237, 1856, -123, -1165, 928
0.255153, 147, 237, 1856, -123, -1165, 928
0.255287, 147, 237, 1856, -123, -1165, 928
0.255422, 147, 237, 1856, -123, -1165, 928
0.255556, 147, 237, 1856, -123, -1165, 928
0.255691, 147, 237, 1856, -123, -1165, 928
0.255827, 149, 323, 2045, -51, -545, 1116
0.255961, 149, 323, 2045, -51, -545, 1116
0.256097, 149, 323, 2045, -51, -545, 1116
0.256232, 149, 323, 2045, -51, -545, 1116
0.256368, 149, 323, 2045, -51, -545, 1116
0.256504, 149, 323, 2045, -51, -545, 1116
0.256639, 149, 323, 2045, -51, -545, 1116
0.256773, 149, 323, 2045, -51, -545, 1116
0.256908, 1141, 311, 2218, 105, -143, 991
0.257043, 1141, 311, 2218, 105, -143, 991
0.257178, 1141, 311, 2218, 105, -143, 991
0.257313, 1141, 311, 2218, 105, -143, 991
0.257449, 1141, 311, 2218, 105, -143, 991
0.257584, 1141, 311, 2218, 105, -143, 991
0.257719, 1141, 311, 2218, 105, -143, 991
0.257855, 1203, 214, 2191, 216, 242, 298
0.257993, 1203, 214, 2191, 216, 242, 298
0.258129, 1203, 214, 2191, 216, 242, 298
0.258264, 1203, 214, 2191, 216, 242, 298
0.258398, 1203, 214, 2191, 216, 242, 298
0.258528, 1203, 214, 2191, 216, 242, 298
0.258657, 1203, 214, 2191, 216, 242, 298
0.258792, 1203, 214, 2191, 216, 242, 298
0.258926, -617, 218, 2267, 364, 851, 16
0.259061, -617, 218, 2267, 364, 851, 16
0.259196, -617, 218, 2267, 364, 851, 16
0.259330, -617, 218, 2267, 364, 851, 16
0.259482, -617, 218, 2267, 364, 851, 16
0.259620, -617, 218, 2267, 364, 851, 16
0.259755, -617, 218, 2267, 364, 851, 16
0.259889, -2067, 290, 2493, 674, 1319, 989
0.260024, -2067, 290, 2493, 674, 1319, 989
0.260158, -2067, 290, 2493, 674, 1319, 989
0.260293, -2067, 290, 2493, 674, 1319, 989
0.260427, -2067, 290, 2493, 674, 1319, 989
0.260562, -2067, 290, 2493, 674, 1319, 989
0.260696, -2067, 290, 2493, 674, 1319, 989
0.260830, -2067, 290, 2493, 674, 1319, 989
0.260965, -848, 312, 2362, 926, 1130, 2289
0.261099, -848, 312, 2362, 926, 1130, 2289
0.261234, -848, 312, 2362, 926, 1130, 2289
0.261368, -848, 312, 2362, 926, 1130, 2289
0.261503, -848, 312, 2362, 926, 1130, 2289
0.261637, -848, 312, 2362, 926, 1130, 2289
0.261771, -848, 312, 2362, 926, 1130, 2289
0.261906, 1591, 316, 1911, 781, 376, 2300
0.262040, 1591, 316, 1911, 781, 376, 2300
0.262175, 1591, 316, 1911, 781, 376, 2300
0.262310, 1591, 316, 1911, 781, 376, 2300
0.262444, 1591, 316, 1911, 781, 376, 2300
0.262574, 1591, 316, 1911, 781, 376, 2300
0.262709, 1591, 316, 1911, 781, 376, 2300
0.262845, 1591, 316, 1911, 781, 376, 2300
0.262980, 2618, 331, 1695, 360, -339, 912
0.263114, 2618, 331, 1695, 360, -339, 912
0.263249, 2618, 331, 1695, 360, -339, 912
0.263383, 2618, 331, 1695, 360, -339, 912
0.263517, 2618, 331, 1695, 360, -339, 912
0.263652, 2618, 331, 1695, 360, -339, 912
0.263786, 2618, 331, 1695, 360, -339, 912
0.263921, 1705, 307, 1726, 115, -505, -614
0.264055, 1705, 307, 1726, 115, -505, -614
0.264190, 1705, 307, 1726, 115, -505, -614
0.264324, 1705, 307, 1726, 115, -505, -614
0.264459, 1705, 307, 1726, 115, -505, -614
0.264593, 1705, 307, 1726, 115, -505, -614
0.264728, 1705, 307, 1726, 115, -505, -614
0.264862, 1705, 307, 1726, 115, -505, -614
0.264996, 368, 255, 1800, 180, -119, -1237
0.265131, 368, 255, 1800, 180, -119, -1237
0.265265, 368, 255, 1800, 180, -119, -1237
0.265400, 368, 255, 1800, 180, -119, -1237
0.265535, 368, 255, 1800, 180, -119, -1237
0.265669, 368, 255, 1800, 180, -119, -1237
0.265803, 368, 255, 1800, 180, -119, -1237
0.265938, 446, 191, 1766, 321, 355, -1198
0.266072, 446, 191, 1766, 321, 355, -1198
0.266202, 446, 191, 1766, 321, 355, -1198
0.266331, 446, 191, 1766, 321, 355, -1198
0.266467, 446, 191, 1766, 321, 355, -1198
0.266601, 446, 191, 1766, 321, 355, -1198
0.266736, 446, 191, 1766, 321, 355, -1198
0.266870, 446, 191, 1766, 321, 355, -1198
0.267005, 1161, 164, 1708, 365, 659, -1434
0.267139, 1161, 164, 1708, 365, 659, -1434
0.267274, 1161, 164, 1708, 365, 659, -1434
0.267408, 1161, 164, 1708, 365, 659, -1434
0.267543, 1161, 164, 1708, 365, 659, -1434
0.267677, 1161, 164, 1708, 365, 659, -1434
0.267812, 1161, 164, 1708, 365, 659, -1434
0.267946, 1161, 164, 1708, 365, 659, -1434
0.268080, 1058, 194, 1883, 435, 1019, -1955
0.268215, 1058, 194, 1883, 435, 1019, -1955
0.268349, 1058, 194, 1883, 435, 1019, -1955
0.268484, 1058, 194, 1883, 435, 1019, -1955
0.268618, 1058, 194, 1883, 435, 1019, -1955
0.268753, 1058, 194, 1883, 435, 1019, -1955
0.268887, 1058, 194, 1883, 435, 1019, -1955
0.269021, 829, 234, 2062, 664, 1570, -2275
0.269156, 829, 234, 2062, 664, 1570, -2275
0.269290, 829, 234, 2062, 664, 1570, -2275
0.269425, 829, 234, 2062, 664, 1570, -2275
0.269559, 829, 234, 2062, 664, 1570, -2275
0.269694, 829, 234, 2062, 664, 1570, -2275
0.269828, 829, 234, 2062, 664, 1570, -2275
0.269962, 829, 234, 2062, 664, 1570, -2275
0.270097, 487, 241, 1965, 931, 2153, -2422
0.270231, 487, 241, 1965, 931, 2153, -2422
0.270366, 487, 241, 1965, 931, 2153, -2422
0.270500, 487, 241, 1965, 931, 2153, -2422
0.270634, 487, 241, 1965, 931, 2153, -2422
0.270769, 487, 241, 1965, 931, 2153, -2422
0.270903, 487, 241, 1965, 931, 2153, -2422
0.271037, -153, 218, 1863, 1078, 2487, -2325
0.271172, -153, 218, 1863, 1078, 2487, -2325
0.271306, -153, 218, 1863, 1078, 2487, -2325
0.271444, -153, 218, 1863, 1078, 2487, -2325
0.271579, -153, 218, 1863, 1078, 2487, -2325
0.271714, -153, 218, 1863, 1078, 2487, -2325
0.271848, -153, 218, 1863, 1078, 2487, -2325
0.271982, -153, 218, 1863, 1078, 2487, -2325
0.272117, -319, 219, 1992, 1134, 2346, -1998
0.272265, -319, 219, 1992, 1134, 2346, -1998
0.272401, -319, 219, 1992, 1134, 2346, -1998
0.272535, -319, 219, 1992, 1134, 2346, -1998
0.272670, -319, 219, 1992, 1134, 2346, -1998
0.272800, -319, 219, 1992, 1134, 2346, -1998
0.272935, -319, 219, 1992, 1134, 2346, -1998
0.273069, -268, 263, 2125, 1179, 1880, -1753
0.273204, -268, 263, 2125, 1179, 1880, -1753
0.273338, -268, 263, 2125, 1179, 1880, -1753
0.273473, -268, 263, 2125, 1179, 1880, -1753
0.273607, -268, 263, 2125, 1179, 1880, -1753
0.273741, -268, 263, 2125, 1179, 1880, -1753
0.273876, -268, 263, 2125, 1179, 1880, -1753
0.274010, -268, 263, 2125, 1179, 1880, -1753
0.274145, -736, 285, 2121, 1181, 1449, -1480
0.274279, -736, 285, 2121, 1181, 1449, -1480
0.274413, -736, 285, 2121, 1181, 1449, -1480
0.274548, -736, 285, 2121, 1181, 1449, -1480
0.274682, -736, 285, 2121, 1181, 1449, -1480
0.274817, -736, 285, 2121, 1181, 1449, -1480
0.274951, -736, 285, 2121, 1181, 1449, -1480
0.275085, -1188, 245, 2143, 1121, 1101, -846
0.275220, -1188, 245, 2143, 1121, 1101, -846
0.275354, -1188, 245, 2143, 1121, 1101, -846
0.275488, -1188, 245, 2143, 1121, 1101, -846
0.275623, -1188, 245, 2143, 1121, 1101, -846
0.275757, -1188, 245, 2143, 1121, 1101, -846
0.275892, -1188, 245, 2143, 1121, 1101, -846
0.276026, -1188, 245, 2143, 1121, 1101, -846
0.276160, -351, 263, 2162, 1028, 601, -176
0.276295, -351, 263, 2162, 1028, 601, -176
0.276429, -351, 263, 2162, 1028, 601, -176
0.276564, -351, 263, 2162, 1028, 601, -176
0.276698, -351, 263, 2162, 1028, 601, -176
0.276832, -351, 263, 2162, 1028, 601, -176
0.276967, -351, 263, 2162, 1028, 601, -176
0.277101, 1119, 352, 2073, 877, 1, -308
0.277236, 1119, 352, 2073, 877, 1, -308
0.277370, 1119, 352, 2073, 877, 1, -308
0.277505, 1119, 352, 2073, 877, 1, -308
0.277639, 1119, 352, 2073, 877, 1, -308
0.277773, 1119, 352, 2073, 877, 1, -308
0.277908, 1119, 352, 2073, 877, 1, -308
0.278043, 1119, 352, 2073, 877, 1, -308
0.278177, 1314, 355, 1995, 710, -280, -1175
0.278312, 1314, 355, 1995, 710, -280, -1175
0.278446, 1314, 355, 1995, 710, -280, -1175
0.278580, 1314, 355, 1995, 710, -280, -1175
0.278715, 1314, 355, 1995, 710, -280, -1175
0.278849, 1314, 355, 1995, 710, -280, -1175
0.278984, 1314, 355, 1995, 710, -280, -1175
0.279118, 472, 300, 1993, 641, -75, -1804
0.279252, 472, 300, 1993, 641, -75, -1804
0.279387, 472, 300, 1993, 641, -75, -1804
0.279521, 472, 300, 1993, 641, -75, -1804
0.279656, 472, 300, 1993, 641, -75, -1804
0.279790, 472, 300, 1993, 641, -75, -1804
0.279924, 472, 300, 1993, 641, -75, -1804
0.280059, 472, 300, 1993, 641, -75, -1804
0.280193, -131, 286, 2009, 680, 344, -1834
0.280328, -131, 286, 2009, 680, 344, -1834
0.280462, -131, 286, 2009, 680, 344, -1834
0.280597, -131, 286, 2009, 680, 344, -1834
0.280731, -131, 286, 2009, 680, 344, -1834
0.280866, -131, 286, 2009, 680, 344, -1834
0.281000, -131, 286, 2009, 680, 344, -1834
0.281134, -131, 286, 2009, 680, 344, -1834
0.281269, -520, 296, 2044, 741, 721, -1525
0.281403, -520, 296, 2044, 741, 721, -1525
0.281538, -520, 296, 2044, 741, 721, -1525
0.281672, -520, 296, 2044, 741, 721, -1525
0.281806, -520, 296, 2044, 741, 721, -1525
0.281941, -520, 296, 2044, 741, 721, -1525
0.282075, -520, 296, 2044, 741, 721, -1525
0.282210, -587, 318, 2089, 754, 966, -1009
0.282345, -587, 318, 2089, 754, 966, -1009
0.282479, -587, 318, 2089, 754, 966, -1009
0.282614, -587, 318, 2089, 754, 966, -1009
0.282748, -587, 318, 2089, 754, 966, -1009
0.282883, -587, 318, 2089, 754, 966, -1009
0.283018, -587, 318, 2089, 754, 966, -1009
0.283152, -587, 318, 2089, 754, 966, -1009
0.283287, 115, 323, 2076, 691, 990, -642
0.283421, 115, 323, 2076, 691, 990, -642
0.283556, 115, 323, 2076, 691, 990, -642
0.283691, 115, 323, 2076, 691, 990, -642
0.283825, 115, 323, 2076, 691, 990, -642
0.283960, 115, 323, 2076, 691, 990, -642
0.284094, 115, 323, 2076, 691, 990, -642
0.284229, 591, 289, 2043, 586, 858, -791
0.284363, 591, 289, 2043, 586, 858, -791
0.284498, 591, 289, 2043, 586, 858, -791
0.284632, 591, 289, 2043, 586, 858, -791
0.284767, 591, 289, 2043, 586, 858, -791
0.284901, 591, 289, 2043, 586, 858, -791
0.285041, 591, 289, 2043, 586, 858, -791
0.285176, 591, 289, 2043, 586, 858, -791
0.285311, 23, 259, 2021, 498, 761, -1049
0.285446, 23, 259, 2021, 498, 761, -1049
0.285580, 23, 259, 2021, 498, 761, -1049
0.285715, 23, 259, 2021, 498, 761, -1049
0.285849, 23, 259, 2021, 498, 761, -1049
0.285988, 23, 259, 2021, 498, 761, -1049
0.286122, 23, 259, 2021, 498, 761, -1049
0.286256, -722, 247, 1958, 423, 704, -834
0.286390, -722, 247, 1958, 423, 704, -834
0.286524, -722, 247, 1958, 423, 704, -834
0.286658, -722, 247, 1958, 423, 704, -834
0.286792, -722, 247, 1958, 423, 704, -834
0.286926, -722, 247, 1958, 423, 704, -834
0.287060, -722, 247, 1958, 423, 704, -834
0.287193, -722, 247, 1958, 423, 704, -834
0.287327, -754, 250, 1913, 348, 524, -262
0.287461, -754, 250, 1913, 348, 524, -262
0.287595, -754, 250, 1913, 348, 524, -262
0.287729, -754, 250, 1913, 348, 524, -262
0.287863, -754, 250, 1913, 348, 524, -262
0.287996, -754, 250, 1913, 348, 524, -262
0.288130, -754, 250, 1913, 348, 524, -262
0.288264, -377, 296, 1966, 269, 197, 195
0.288398, -377, 296, 1966, 269, 197, 195
0.288532, -377, 296, 1966, 269, 197, 195
0.288666, -377, 296, 1966, 269, 197, 195
0.288800, -377, 296, 1966, 269, 197, 195
0.288934, -377, 296, 1966, 269, 197, 195
0.289068, -377, 296, 1966, 269, 197, 195
0.289201, -377, 296, 1966, 269, 197, 195
0.289335, -81, 343, 1997, 176, -92, 425
0.289464, -81, 343, 1997, 176, -92, 425
0.289598, -81, 343, 1997, 176, -92, 425
0.289733, -81, 343, 1997, 176, -92, 425
0.289868, -81, 343, 1997, 176, -92, 425
0.290003, -81, 343, 1997, 176, -92, 425
0.290132, -81, 343, 1997, 176, -92, 425
0.290267, 425, 344, 1958, 71, -243, 462
0.290402, 425, 344, 1958, 71, -243, 462
0.290537, 425, 344, 1958, 71, -243, 462
0.290671, 425, 344, 1958, 71, -243, 462
0.290806, 425, 344, 1958, 71, -243, 462
0.290941, 425, 344, 1958, 71, -243, 462
0.291071, 425, 344, 1958, 71, -243, 462
0.291205, 425, 344, 1958, 71, -243, 462
0.291340, 1011, 345, 2019, 18, -280, 155
0.291475, 1011, 345, 2019, 18, -280, 155
0.291609, 1011, 345, 2019, 18, -280, 155
0.291744, 1011, 345, 2019, 18, -280, 155
0.291878, 1011, 345, 2019, 18, -280, 155
0.292013, 1011, 345, 2019, 18, -280, 155
0.292147, 1011, 345, 2019, 18, -280, 155
0.292282, 1011, 345, 2019, 18, -280, 155
0.292417, 1363, 326, 2072, 71, -212, -468
0.292551, 1363, 326, 2072, 71, -212, -468
0.292686, 1363, 326, 2072, 71, -212, -468
0.292821, 1363, 326, 2072, 71, -212, -468
0.292955, 1363, 326, 2072, 71, -212, -468
0.293090, 1363, 326, 2072, 71, -212, -468
0.293224, 1363, 326, 2072, 71, -212, -468
0.293359, 1503, 262, 1987, 172, 5, -1270
0.293494, 1503, 262, 1987, 172, 5, -1270
0.293628, 1503, 262, 1987, 172, 5, -1270
0.293763, 1503, 262, 1987, 172, 5, -1270
0.293897, 1503, 262, 1987, 172, 5, -1270
0.294033, 1503, 262, 1987, 172, 5, -1270
0.294167, 1503, 262, 1987, 172, 5, -1270
0.294302, 1503, 262, 1987, 172, 5, -1270
0.294437, 899, 209, 1958, 318, 428, -2004
0.294571, 899, 209, 1958, 318, 428, -2004
0.294706, 899, 209, 1958, 318, 428, -2004
0.294841, 899, 209, 1958, 318, 428, -2004
0.294975, 899, 209, 1958, 318, 428, -2004
0.295110, 899, 209, 1958, 318, 428, -2004
0.295244, 899, 209, 1958, 318, 428, -2004
0.295379, -461, 186, 1994, 518, 972, -2128
0.295514, -461, 186, 1994, 518, 972, -2128
0.295648, -461, 186, 1994, 518, 972, -2128
0.295783, -461, 186, 1994, 518, 972, -2128
0.295918, -461, 186, 1994, 518, 972, -2128
0.296052, -461, 186, 1994, 518, 972, -2128
0.296187, -461, 186, 1994, 518, 972, -2128
0.296321, -461, 186, 1994, 518, 972, -2128
0.296456, -1824, 206, 2000, 686, 1424, -1327
0.296591, -1824, 206, 2000, 686, 1424, -1327
0.296725, -1824, 206, 2000, 686, 1424, -1327
0.296860, -1824, 206, 2000, 686, 1424, -1327
0.296995, -1824, 206, 2000, 686, 1424, -1327
0.297129, -1824, 206, 2000, 686, 1424, -1327
0.297264, -1824, 206, 2000, 686, 1424, -1327
0.297398, -2404, 279, 1991, 725, 1539, 205
0.297533, -2404, 279, 1991, 725, 1539, 205
0.297668, -2404, 279, 1991, 725, 1539, 205
0.297802, -2404, 279, 1991, 725, 1539, 205
0.297937, -2404, 279, 1991, 725, 1539, 205
0.298072, -2404, 279, 1991, 725, 1539, 205
0.298206, -2404, 279, 1991, 725, 1539, 205
0.298349, -2404, 279, 1991, 725, 1539, 205
0.298484, -844, 313, 2070, 558, 1073, 1632
0.298619, -844, 313, 2070, 558, 1073, 1632
0.298753, -844, 313, 2070, 558, 1073, 1632
0.298888, -844, 313, 2070, 558, 1073, 1632
0.299023, -844, 313, 2070, 558, 1073, 1632
0.299157, -844, 313, 2070, 558, 1073, 1632
0.299292, -844, 313, 2070, 558, 1073, 1632
0.299426, 2403, 335, 2215, 308, 108, 1477
0.299561, 2403, 335, 2215, 308, 108, 1477
0.299695, 2403, 335, 2215, 308, 108, 1477
0.299830, 2403, 335, 2215, 308, 108, 1477
0.299964, 2403, 335, 2215, 308, 108, 1477
0.300099, 2403, 335, 2215, 308, 108, 1477
0.300233, 2403, 335, 2215, 308, 108, 1477
0.300368, 2403, 335, 2215, 308, 108, 1477
0.300502, 3808, 399, 2151, 182, -651, -609
0.300637, 3808, 399, 2151, 182, -651, -609
0.300772, 3808, 399, 2151, 182, -651, -609
0.300906, 3808, 399, 2151, 182, -651, -609
0.301041, 3808, 399, 2151, 182, -651, -609
0.301175, 3808, 399, 2151, 182, -651, -609
0.301310, 3808, 399, 2151, 182, -651, -609
0.301444, 2318, 336, 1917, 218, -548, -2842
0.301579, 2318, 336, 1917, 218, -548, -2842
0.301714, 2318, 336, 1917, 218, -548, -2842
0.301848, 2318, 336, 1917, 218, -548, -2842
0.301986, 2318, 336, 1917, 218, -548, -2842
0.302121, 2318, 336, 1917, 218, -548, -2842
0.302255, 2318, 336, 1917, 218, -548, -2842
0.302390, 2318, 336, 1917, 218, -548, -2842
0.302524, 515, 205, 1834, 418, 186, -3776
0.302659, 515, 205, 1834, 418, 186, -3776
0.302793, 515, 205, 1834, 418, 186, -3776
0.302928, 515, 205, 1834, 418, 186, -3776
0.303063, 515, 205, 1834, 418, 186, -3776
0.303197, 515, 205, 1834, 418, 186, -3776
0.303332, 515, 205, 1834, 418, 186, -3776
0.303466, -438, 172, 1924, 726, 946, -3649
0.303601, -438, 172, 1924, 726, 946, -3649
0.303736, -438, 172, 1924, 726, 946, -3649
0.303870, -438, 172, 1924, 726, 946, -3649
0.304005, -438, 172, 1924, 726, 946, -3649
0.304139, -438, 172, 1924, 726, 946, -3649
0.304274, -438, 172, 1924, 726, 946, -3649
0.304408, -438, 172, 1924, 726, 946, -3649
0.304543, -931, 203, 2041, 988, 1524, -2999
0.304677, -931, 203, 2041, 988, 1524, -2999
0.304812, -931, 203, 2041, 988, 1524, -2999
0.304946, -931, 203, 2041, 988, 1524, -2999
0.305081, -931, 203, 2041, 988, 1524, -2999
0.305215, -931, 203, 2041, 988, 1524, -2999
0.305350, -931, 203, 2041, 988, 1524, -2999
0.305484, -820, 265, 2118, 1121, 1921, -2149
0.305619, -820, 265, 2118, 1121, 1921, -2149
0.305754, -820, 265, 2118, 1121, 1921, -2149
0.305888, -820, 265, 2118, 1121, 1921, -2149
0.306023, -820, 265, 2118, 1121, 1921, -2149
0.306158, -820, 265, 2118, 1121, 1921, -2149
0.306292, -820, 265, 2118, 1121, 1921, -2149
0.306427, -820, 265, 2118, 1121, 1921, -2149
0.306561, 34, 342, 2115, 1137, 2031, -1587
0.306696, 34, 342, 2115, 1137, 2031, -1587
0.306830, 34, 342, 2115, 1137, 2031, -1587
0.306965, 34, 342, 2115, 1137, 2031, -1587
0.307099, 34, 342, 2115, 1137, 2031, -1587
0.307234, 34, 342, 2115, 1137, 2031, -1587
0.307368, 34, 342, 2115, 1137, 2031, -1587
0.307503, 516, 351, 2057, 1088, 1872, -1623
0.307637, 516, 351, 2057, 1088, 1872, -1623
0.307772, 516, 351, 2057, 1088, 1872, -1623
0.307906, 516, 351, 2057, 1088, 1872, -1623
0.308041, 516, 351, 2057, 1088, 1872, -1623
0.308177, 516, 351, 2057, 1088, 1872, -1623
0.308311, 516, 351, 2057, 1088, 1872, -1623
0.308446, 516, 351, 2057, 1088, 1872, -1623
0.308581, -145, 299, 2048, 1058, 1641, -1750
0.308715, -145, 299, 2048, 1058, 1641, -1750
0.308850, -145, 299, 2048, 1058, 1641, -1750
0.308984, -145, 299, 2048, 1058, 1641, -1750
0.309119, -145, 299, 2048, 1058, 1641, -1750
0.309253, -145, 299, 2048, 1058, 1641, -1750
0.309388, -145, 299, 2048, 1058, 1641, -1750
0.309522, -612, 286, 2092, 1096, 1326, -1420
0.309657, -612, 286, 2092, 1096, 1326, -1420
0.309792, -612, 286, 2092, 1096, 1326, -1420
0.309926, -612, 286, 2092, 1096, 1326, -1420
0.310061, -612, 286, 2092, 1096, 1326, -1420
0.310196, -612, 286, 2092, 1096, 1326, -1420
0.310330, -612, 286, 2092, 1096, 1326, -1420
0.310465, -612, 286, 2092, 1096, 1326, -1420
0.310599, -145, 276, 2056, 1139, 798, -1040
0.310734, -145, 276, 2056, 1139, 798, -1040
0.310869, -145, 276, 2056, 1139, 798, -1040
0.311009, -145, 276, 2056, 1139, 798, -1040
0.311144, -145, 276, 2056, 1139, 798, -1040
0.311279, -145, 276, 2056, 1139, 798, -1040
0.311413, -145, 276, 2056, 1139, 798, -1040
0.311548, -103, 228, 1974, 1114, 258, -992
0.311683, -103, 228, 1974, 1114, 258, -992
0.311817, -103, 228, 1974, 1114, 258, -992
0.311947, -103, 228, 1974, 1114, 258, -992
0.312082, -103, 228, 1974, 1114, 258, -992
0.312216, -103, 228, 1974, 1114, 258, -992
0.312351, -103, 228, 1974, 1114, 258, -992
0.312485, -103, 228, 1974, 1114, 258, -992
0.312620, -872, 191, 1997, 1076, 18, -740
0.312755, -872, 191, 1997, 1076, 18, -740
0.312889, -872, 191, 1997, 1076, 18, -740
0.313024, -872, 191, 1997, 1076, 18, -740
0.313158, -872, 191, 1997, 1076, 18, -740
0.313293, -872, 191, 1997, 1076, 18, -740
0.313427, -872, 191, 1997, 1076, 18, -740
0.313562, -872, 191, 1997, 1076, 18, -740
0.313696, -954, 199, 2035, 1078, -19, 0
0.313831, -954, 199, 2035, 1078, -19, 0
0.313966, -954, 199, 2035, 1078, -19, 0
0.314101, -954, 199, 2035, 1078, -19, 0
0.314235, -954, 199, 2035, 1078, -19, 0
0.314370, -954, 199, 2035, 1078, -19, 0
0.314504, -954, 199, 2035, 1078, -19, 0
0.314639, -267, 241, 1990, 1023, -112, 584
0.314773, -267, 241, 1990, 1023, -112, 584
0.314908, -267, 241, 1990, 1023, -112, 584
0.315042, -267, 241, 1990, 1023, -112, 584
0.315177, -267, 241, 1990, 1023, -112, 584
0.315311, -267, 241, 1990, 1023, -112, 584
0.315446, -267, 241, 1990, 1023, -112, 584
0.315580, -267, 241, 1990, 1023, -112, 584
0.315715, -153, 269, 1979, 889, -221, 762
0.315850, -153, 269, 1979, 889, -221, 762
0.315984, -153, 269, 1979, 889, -221, 762
0.316119, -153, 269, 1979, 889, -221, 762
0.316253, -153, 269, 1979, 889, -221, 762
0.316388, -153, 269, 1979, 889, -221, 762
0.316522, -153, 269, 1979, 889, -221, 762
0.316657, -334, 165, 2009, 762, -278, 971
0.316792, -334, 165, 2009, 762, -278, 971
0.316926, -334, 165, 2009, 762, -278, 971
0.317061, -334, 165, 2009, 762, -278, 971
0.317195, -334, 165, 2009, 762, -278, 971
0.317330, -334, 165, 2009, 762, -278, 971
0.317464, -334, 165, 2009, 762, -278, 971
0.317599, -334, 165, 2009, 762, -278, 971
0.317733, -201, 51, 2003, 683, -365, 1235
0.317868, -201, 51, 2003, 683, -365, 1235
0.318003, -201, 51, 2003, 683, -365, 1235
0.318137, -201, 51, 2003, 683, -365, 1235
0.318272, -201, 51, 2003, 683, -365, 1235
0.318406, -201, 51, 2003, 683, -365, 1235
0.318541, -201, 51, 2003, 683, -365, 1235
0.318675, -271, 180, 2001, 662, -474, 1417
0.318810, -271, 180, 2001, 662, -474, 1417
0.318945, -271, 180, 2001, 662, -474, 1417
0.319079, -271, 180, 2001, 662, -474, 1417
0.319214, -271, 180, 2001, 662, -474, 1417
0.319348, -271, 180, 2001, 662, -474, 1417
0.319483, -271, 180, 2001, 662, -474, 1417
0.319617, -271, 180, 2001, 662, -474, 1417
0.319752, -503, 354, 1991, 615, -573, 1696
0.319886, -503, 354, 1991, 615, -573, 1696
0.320021, -503, 354, 1991, 615, -573, 1696
0.320155, -503, 354, 1991, 615, -573, 1696
0.320290, -503, 354, 1991, 615, -573, 1696
0.320425, -503, 354, 1991, 615, -573, 1696
0.320559, -503, 354, 1991, 615, -573, 1696
0.320694, -288, 361, 1990, 498, -682, 2038
0.320828, -288, 361, 1990, 498, -682, 2038
0.320963, -288, 361, 1990, 498, -682, 2038
0.321097, -288, 361, 1990, 498, -682, 2038
0.321232, -288, 361, 1990, 498, -682, 2038
0.321366, -288, 361, 1990, 498, -682, 2038
0.321501, -288, 361, 1990, 498, -682, 2038
0.321635, -288, 361, 1990, 498, -682, 2038
0.321770, 271, 372, 1980, 354, -829, 2144
0.321905, 271, 372, 1980, 354, -829, 2144
0.322040, 271, 372, 1980, 354, -829, 2144
0.322175, 271, 372, 1980, 354, -829, 2144
0.322310, 271, 372, 1980, 354, -829, 2144
0.322444, 271, 372, 1980, 354, -829, 2144
0.322579, 271, 372, 1980, 354, -829, 2144
0.322713, 501, 474, 1989, 204, -970, 1926
0.322848, 501, 474, 1989, 204, -970, 1926
0.322983, 501, 474, 1989, 204, -970, 1926
0.323117, 501, 474, 1989, 204, -970, 1926
0.323252, 501, 474, 1989, 204, -970, 1926
0.323386, 501, 474, 1989, 204, -970, 1926
0.323521, 501, 474, 1989, 204, -970, 1926
0.323656, 501, 474, 1989, 204, -970, 1926
0.323790, 535, 455, 2075, 106, -1017, 1636
0.323934, 535, 455, 2075, 106, -1017, 1636
0.324069, 535, 455, 2075, 106, -1017, 1636
0.324204, 535, 455, 2075, 106, -1017, 1636
0.324339, 535, 455, 2075, 106, -1017, 1636
0.324473, 535, 455, 2075, 106, -1017, 1636
0.324608, 535, 455, 2075, 106, -1017, 1636
0.324742, 1113, 307, 2160, 107, -958, 1287
0.324877, 1113, 307, 2160, 107, -958, 1287
0.325011, 1113, 307, 2160, 107, -958, 1287
0.325146, 1113, 307, 2160, 107, -958, 1287
0.325281, 1113, 307, 2160, 107, -958, 1287
0.325415, 1113, 307, 2160, 107, -958, 1287
0.325550, 1113, 307, 2160, 107, -958, 1287
0.325684, 1113, 307, 2160, 107, -958, 1287
0.325819, 1882, 276, 2206, 208, -818, 505
0.325953, 1882, 276, 2206, 208, -818, 505
0.326088, 1882, 276, 2206, 208, -818, 505
0.326223, 1882, 276, 2206, 208, -818, 505
0.326357, 1882, 276, 2206, 208, -818, 505
0.326490, 1882, 276, 2206, 208, -818, 505
0.326624, 1882, 276, 2206, 208, -818, 505
0.326758, 1783, 348, 2085, 372, -520, -633
0.326892, 1783, 348, 2085, 372, -520, -633
0.327026, 1783, 348, 2085, 372, -520, -633
0.327160, 1783, 348, 2085, 372, -520, -633
0.327294, 1783, 348, 2085, 372, -520, -633
0.327428, 1783, 348, 2085, 372, -520, -633
0.327562, 1783, 348, 2085, 372, -520, -633
0.327696, 1783, 348, 2085, 372, -520, -633
0.327830, 1254, 343, 1894, 524, -15, -1536
0.327964, 1254, 343, 1894, 524, -15, -1536
0.328098, 1254, 343, 1894, 524, -15, -1536
0.328232, 1254, 343, 1894, 524, -15, -1536
0.328366, 1254, 343, 1894, 524, -15, -1536
0.328499, 1254, 343, 1894, 524, -15, -1536
0.328633, 1254, 343, 1894, 524, -15, -1536
0.328767, 1254, 343, 1894, 524, -15, -1536
0.328901, 1075, 285, 1859, 633, 525, -2120
0.329035, 1075, 285, 1859, 633, 525, -2120
0.329169, 1075, 285, 1859, 633, 525, -2120
0.329303, 1075, 285, 1859, 633, 525, -2120
0.329437, 1075, 285, 1859, 633, 525, -2120
0.329571, 1075, 285, 1859, 633, 525, -2120
0.329705, 1075, 285, 1859, 633, 525, -2120
0.329839, 471, 276, 1917, 736, 969, -2543
0.329974, 471, 276, 1917, 736, 969, -2543
0.330108, 471, 276, 1917, 736, 969, -2543
0.330243, 471, 276, 1917, 736, 969, -2543
0.330377, 471, 276, 1917, 736, 969, -2543
0.330510, 471, 276, 1917, 736, 969, -2543
0.330644, 471, 276, 1917, 736, 969, -2543
0.330778, 471, 276, 1917, 736, 969, -2543
0.330912, -485, 277, 2044, 872, 1326, -2442
0.331046, -485, 277, 2044, 872, 1326, -2442
0.331180, -485, 277, 2044, 872, 1326, -2442
0.331314, -485, 277, 2044, 872, 1326, -2442
0.331448, -485, 277, 2044, 872, 1326, -2442
0.331582, -485, 277, 2044, 872, 1326, -2442
0.331716, -485, 277, 2044, 872, 1326, -2442
0.331849, -367, 276, 2136, 1024, 1446, -1895
0.331983, -367, 276, 2136, 1024, 1446, -1895
0.332117, -367, 276, 2136, 1024, 1446, -1895
0.332251, -367, 276, 2136, 1024, 1446, -1895
0.332385, -367, 276, 2136, 1024, 1446, -1895
0.332519, -367, 276, 2136, 1024, 1446, -1895
0.332653, -367, 276, 2136, 1024, 1446, -1895
0.332787, -367, 276, 2136, 1024, 1446, -1895
0.332921, 710, 306, 2042, 1089, 1192, -1758
0.333055, 710, 306, 2042, 1089, 1192, -1758
0.333189, 710, 306, 2042, 1089, 1192, -1758
0.333323, 710, 306, 2042, 1089, 1192, -1758
0.333456, 710, 306, 2042, 1089, 1192, -1758
0.333590, 710, 306, 2042, 1089, 1192, -1758
0.333724, 710, 306, 2042, 1089, 1192, -1758
0.333858, 993, 306, 1970, 1050, 805, -2290
0.333993, 993, 306, 1970, 1050, 805, -2290
0.334128, 993, 306, 1970, 1050, 805, -2290
0.334262, 993, 306, 1970, 1050, 805, -2290
0.334397, 993, 306, 1970, 1050, 805, -2290
0.334531, 993, 306, 1970, 1050, 805, -2290
0.334666, 993, 306, 1970, 1050, 805, -2290
0.334801, 993, 306, 1970, 1050, 805, -2290
0.334935, -398, 227, 2082, 1068, 635, -2617
0.335070, -398, 227, 2082, 1068, 635, -2617
0.335200, -398, 227, 2082, 1068, 635, -2617
0.335334, -398, 227, 2082, 1068, 635, -2617
0.335469, -398, 227, 2082, 1068, 635, -2617
0.335604, -398, 227, 2082, 1068, 635, -2617
0.335739, -398, 227, 2082, 1068, 635, -2617
0.335884, -2473, 148, 2185, 1235, 667, -1761
0.336027, -2473, 148, 2185, 1235, 667, -1761
0.336164, -2473, 148, 2185, 1235, 667, -1761
0.336302, -2473, 148, 2185, 1235, 667, -1761
0.336437, -2473, 148, 2185, 1235, 667, -1761
0.336572, -2473, 148, 2185, 1235, 667, -1761
0.336729, -2473, 148, 2185, 1235, 667, -1761
0.336867, -2473, 148, 2185, 1235, 667, -1761
0.337002, -3580, 148, 2250, 1417, 523, 319
0.337144, -3580, 148, 2250, 1417, 523, 319
0.337286, -3580, 148, 2250, 1417, 523, 319
0.337428, -3580, 148, 2250, 1417, 523, 319
0.337564, -3580, 148, 2250, 1417, 523, 319
0.337699, -3580, 148, 2250, 1417, 523, 319
0.337834, -3580, 148, 2250, 1417, 523, 319
0.337975, -2617, 225, 2328, 1462, -155, 2636
0.338121, -2617, 225, 2328, 1462, -155, 2636
0.338261, -2617, 225, 2328, 1462, -155, 2636
0.338398, -2617, 225, 2328, 1462, -155, 2636
0.338535, -2617, 225, 2328, 1462, -155, 2636
0.338670, -2617, 225, 2328, 1462, -155, 2636
0.338804, -2617, 225, 2328, 1462, -155, 2636
0.338948, -291, 363, 2325, 1338, -1259, 3852
0.339089, -291, 363, 2325, 1338, -1259, 3852
0.339224, -291, 363, 2325, 1338, -1259, 3852
0.339371, -291, 363, 2325, 1338, -1259, 3852
0.339515, -291, 363, 2325, 1338, -1259, 3852
0.339653, -291, 363, 2325, 1338, -1259, 3852
0.339787, -291, 363, 2325, 1338, -1259, 3852
0.339921, -291, 363, 2325, 1338, -1259, 3852
0.340062, 1082, 471, 2217, 1132, -2227, 3561
0.340210, 1082, 471, 2217, 1132, -2227, 3561
0.340347, 1082, 471, 2217, 1132, -2227, 3561
0.340484, 1082, 471, 2217, 1132, -2227, 3561
0.340620, 1082, 471, 2217, 1132, -2227, 3561
0.340756, 1082, 471, 2217, 1132, -2227, 3561
0.340890, 1082, 471, 2217, 1132, -2227, 3561
0.341025, 575, 440, 1882, 925, -2604, 2862
0.341161, 575, 440, 1882, 925, -2604, 2862
0.341296, 575, 440, 1882, 925, -2604, 2862
0.341431, 575, 440, 1882, 925, -2604, 2862
0.341568, 575, 440, 1882, 925, -2604, 2862
0.341703, 575, 440, 1882, 925, -2604, 2862
0.341838, 575, 440, 1882, 925, -2604, 2862
0.341972, 1082, 374, 1472, 633, -2581, 2568
0.342110, 1082, 374, 1472, 633, -2581, 2568
0.342255, 1082, 374, 1472, 633, -2581, 2568
0.342397, 1082, 374, 1472, 633, -2581, 2568
0.342533, 1082, 374, 1472, 633, -2581, 2568
0.342668, 1082, 374, 1472, 633, -2581, 2568
0.342802, 1082, 374, 1472, 633, -2581, 2568
0.342936, 1082, 374, 1472, 633, -2581, 2568
0.343070, 4059, 426, 1538, 305, -2575, 1373
0.343204, 4059, 426, 1538, 305, -2575, 1373
0.343338, 4059, 426, 1538, 305, -2575, 1373
0.343471, 4059, 426, 1538, 305, -2575, 1373
0.343605, 4059, 426, 1538, 305, -2575, 1373
0.343739, 4059, 426, 1538, 305, -2575, 1373
0.343873, 4059, 426, 1538, 305, -2575, 1373
0.344007, 5001, 427, 1887, 235, -2182, -1549
0.344141, 5001, 427, 1887, 235, -2182, -1549
0.344275, 5001, 427, 1887, 235, -2182, -1549
0.344409, 5001, 427, 1887, 235, -2182, -1549
0.344543, 5001, 427, 1887, 235, -2182, -1549
0.344676, 5001, 427, 1887, 235, -2182, -1549
0.344810, 5001, 427, 1887, 235, -2182, -1549
0.344944, 5001, 427, 1887, 235, -2182, -1549
0.345078, 2290, 266, 1913, 474, -749, -4087
0.345212, 2290, 266, 1913, 474, -749, -4087
0.345346, 2290, 266, 1913, 474, -749, -4087
0.345480, 2290, 266, 1913, 474, -749, -4087
0.345614, 2290, 266, 1913, 474, -749, -4087
0.345748, 2290, 266, 1913, 474, -749, -4087
0.345882, 2290, 266, 1913, 474, -749, -4087
0.346016, -294, 138, 1834, 841, 1203, -4556
0.346150, -294, 138, 1834, 841, 1203, -4556
0.346284, -294, 138, 1834, 841, 1203, -4556
0.346418, -294, 138, 1834, 841, 1203, -4556
0.346552, -294, 138, 1834, 841, 1203, -4556
0.346686, -294, 138, 1834, 841, 1203, -4556
0.346820, -294, 138, 1834, 841, 1203, -4556
0.346953, -294, 138, 1834, 841, 1203, -4556
0.347087, -1370, 116, 1928, 1183, 2545, -3684
0.347221, -1370, 116, 1928, 1183, 2545, -3684
0.347355, -1370, 116, 1928, 1183, 2545, -3684
0.347489, -1370, 116, 1928, 1183, 2545, -3684
0.347623, -1370, 116, 1928, 1183, 2545, -3684
0.347757, -1370, 116, 1928, 1183, 2545, -3684
0.347891, -1370, 116, 1928, 1183, 2545, -3684
0.348025, -1370, 116, 1928, 1183, 2545, -3684
0.348159, -2022, 130, 2035, 1337, 2968, -2363
0.348293, -2022, 130, 2035, 1337, 2968, -2363
0.348426, -2022, 130, 2035, 1337, 2968, -2363
0.348560, -2022, 130, 2035, 1337, 2968, -2363
0.348694, -2022, 130, 2035, 1337, 2968, -2363
0.348828, -2022, 130, 2035, 1337, 2968, -2363
0.348962, -2022, 130, 2035, 1337, 2968, -2363
0.349096, -2549, 130, 2213, 1294, 2799, -736
0.349254, -2549, 130, 2213, 1294, 2799, -736
0.349390, -2549, 130, 2213, 1294, 2799, -736
0.349524, -2549, 130, 2213, 1294, 2799, -736
0.349658, -2549, 130, 2213, 1294, 2799, -736
0.349791, -2549, 130, 2213, 1294, 2799, -736
0.349925, -2549, 130, 2213, 1294, 2799, -736
0.350060, -2549, 130, 2213, 1294, 2799, -736
0.350194, -2907, 64, 2359, 1206, 2133, 1105
0.350328, -2907, 64, 2359, 1206, 2133, 1105
0.350461, -2907, 64, 2359, 1206, 2133, 1105
0.350595, -2907, 64, 2359, 1206, 2133, 1105
0.350729, -2907, 64, 2359, 1206, 2133, 1105
0.350863, -2907, 64, 2359, 1206, 2133, 1105
0.350997, -2907, 64, 2359, 1206, 2133, 1105
0.351131, -3185, -79, 2207, 1054, 910, 3063
0.351265, -3185, -79, 2207, 1054, 910, 3063
0.351399, -3185, -79, 2207, 1054, 910, 3063
0.351533, -3185, -79, 2207, 1054, 910, 3063
0.351667, -3185, -79, 2207, 1054, 910, 3063
0.351801, -3185, -79, 2207, 1054, 910, 3063
0.351935, -3185, -79, 2207, 1054, 910, 3063
0.352069, -3185, -79, 2207, 1054, 910, 3063
0.352202, -2367, -44, 2058, 767, -799, 4901
0.352336, -2367, -44, 2058, 767, -799, 4901
0.352470, -2367, -44, 2058, 767, -799, 4901
0.352604, -2367, -44, 2058, 767, -799, 4901
0.352738, -2367, -44, 2058, 767, -799, 4901
0.352872, -2367, -44, 2058, 767, -799, 4901
0.353006, -2367, -44, 2058, 767, -799, 4901
0.353140, -869, 236, 2320, 522, -2676, 5845
0.353274, -869, 236, 2320, 522, -2676, 5845
0.353408, -869, 236, 2320, 522, -2676, 5845
0.353542, -869, 236, 2320, 522, -2676, 5845
0.353676, -869, 236, 2320, 522, -2676, 5845
0.353809, -869, 236, 2320, 522, -2676, 5845
0.353943, -869, 236, 2320, 522, -2676, 5845
0.354077, -869, 236, 2320, 522, -2676, 5845
0.354211, -1097, 401, 2646, 506, -4022, 6131
0.354345, -1097, 401, 2646, 506, -4022, 6131
0.354479, -1097, 401, 2646, 506, -4022, 6131
0.354613, -1097, 401, 2646, 506, -4022, 6131
0.354747, -1097, 401, 2646, 506, -4022, 6131
0.354881, -1097, 401, 2646, 506, -4022, 6131
0.355015, -1097, 401, 2646, 506, -4022, 6131
0.355148, -975, 560, 2344, 598, -4523, 6864
0.355282, -975, 560, 2344, 598, -4523, 6864
0.355416, -975, 560, 2344, 598, -4523, 6864
0.355550, -975, 560, 2344, 598, -4523, 6864
0.355684, -975, 560, 2344, 598, -4523, 6864
0.355818, -975, 560, 2344, 598, -4523, 6864
0.355952, -975, 560, 2344, 598, -4523, 6864
0.356086, -975, 560, 2344, 598, -4523, 6864
0.356220, 2415, 734, 1713, 444, -4685, 6932
0.356354, 2415, 734, 1713, 444, -4685, 6932
0.356488, 2415, 734, 1713, 444, -4685, 6932
0.356622, 2415, 734, 1713, 444, -4685, 6932
0.356756, 2415, 734, 1713, 444, -4685, 6932
0.356889, 2415, 734, 1713, 444, -4685, 6932
0.357023, 2415, 734, 1713, 444, -4685, 6932
0.357157, 2415, 734, 1713, 444, -4685, 6932
0.357291, 5671, 576, 1480, 24, -4632, 4591
0.357425, 5671, 576, 1480, 24, -4632, 4591
0.357559, 5671, 576, 1480, 24, -4632, 4591
0.357693, 5671, 576, 1480, 24, -4632, 4591
0.357827, 5671, 576, 1480, 24, -4632, 4591
0.357961, 5671, 576, 1480, 24, -4632, 4591
0.358095, 5671, 576, 1480, 24, -4632, 4591
0.358229, 5069, 357, 1612, -224, -3693, 994
0.358363, 5069, 357, 1612, -224, -3693, 994
0.358497, 5069, 357, 1612, -224, -3693, 994
0.358631, 5069, 357, 1612, -224, -3693, 994
0.358765, 5069, 357, 1612, -224, -3693, 994
0.358898, 5069, 357, 1612, -224, -3693, 994
0.359032, 5069, 357, 1612, -224, -3693, 994
0.359166, 5069, 357, 1612, -224, -3693, 994
0.359300, 1955, 285, 1803, -65, -1695, -1349
0.359434, 1955, 285, 1803, -65, -1695, -1349
0.359568, 1955, 285, 1803, -65, -1695, -1349
0.359702, 1955, 285, 1803, -65, -1695, -1349
0.359836, 1955, 285, 1803, -65, -1695, -1349
0.359970, 1955, 285, 1803, -65, -1695, -1349
0.360103, 1955, 285, 1803, -65, -1695, -1349
0.360237, -130, 214, 1928, 346, 466, -1634
0.360371, -130, 214, 1928, 346, 466, -1634
0.360505, -130, 214, 1928, 346, 466, -1634
0.360639, -130, 214, 1928, 346, 466, -1634
0.360773, -130, 214, 1928, 346, 466, -1634
0.360907, -130, 214, 1928, 346, 466, -1634
0.361041, -130, 214, 1928, 346, 466, -1634
0.361175, -130, 214, 1928, 346, 466, -1634
0.361309, -181, 240, 2050, 751, 1836, -1097
0.361443, -181, 240, 2050, 751, 1836, -1097
0.361576, -181, 240, 2050, 751, 1836, -1097
0.361715, -181, 240, 2050, 751, 1836, -1097
0.361850, -181, 240, 2050, 751, 1836, -1097
0.361993, -181, 240, 2050, 751, 1836, -1097
0.362129, -181, 240, 2050, 751, 1836, -1097
0.362263, 265, 331, 2103, 943, 2290, -858
0.362398, 265, 331, 2103, 943, 2290, -858
0.362532, 265, 331, 2103, 943, 2290, -858
0.362667, 265, 331, 2103, 943, 2290, -858
0.362801, 265, 331, 2103, 943, 2290, -858
0.362936, 265, 331, 2103, 943, 2290, -858
0.363070, 265, 331, 2103, 943, 2290, -858
0.363205, 265, 331, 2103, 943, 2290, -858
0.363339, 669, 380, 2000, 889, 2191, -992
0.363474, 669, 380, 2000, 889, 2191, -992
0.363608, 669, 380, 2000, 889, 2191, -992
0.363743, 669, 380, 2000, 889, 2191, -992
0.363877, 669, 380, 2000, 889, 2191, -992
0.364012, 669, 380, 2000, 889, 2191, -992
0.364146, 669, 380, 2000, 889, 2191, -992
0.364281, 924, 401, 1933, 723, 1788, -1444
0.364415, 924, 401, 1933, 723, 1788, -1444
0.364549, 924, 401, 1933, 723, 1788, -1444
0.364684, 924, 401, 1933, 723, 1788, -1444
0.364818, 924, 401, 1933, 723, 1788, -1444
0.364953, 924, 401, 1933, 723, 1788, -1444
0.365087, 924, 401, 1933, 723, 1788, -1444
0.365221, 924, 401, 1933, 723, 1788, -1444
0.365356, 630, 363, 1985, 586, 1212, -1992
0.365490, 630, 363, 1985, 586, 1212, -1992
0.365625, 630, 363, 1985, 586, 1212, -1992
0.365759, 630, 363, 1985, 586, 1212, -1992
0.365894, 630, 363, 1985, 586, 1212, -1992
0.366028, 630, 363, 1985, 586, 1212, -1992
0.366163, 630, 363, 1985, 586, 1212, -1992
0.366297, 131, 303, 2019, 564, 606, -2278
0.366432, 131, 303, 2019, 564, 606, -2278
0.366566, 131, 303, 2019, 564, 606, -2278
0.366701, 131, 303, 2019, 564, 606, -2278
0.366835, 131, 303, 2019, 564, 606, -2278
0.366969, 131, 303, 2019, 564, 606, -2278
0.367104, 131, 303, 2019, 564, 606, -2278
0.367238, 131, 303, 2019, 564, 606, -2278
0.367373, -369, 264, 2005, 640, 108, -2208
0.367507, -369, 264, 2005, 640, 108, -2208
0.367641, -369, 264, 2005, 640, 108, -2208
0.367776, -369, 264, 2005, 640, 108, -2208
0.367910, -369, 264, 2005, 640, 108, -2208
0.368045, -369, 264, 2005, 640, 108, -2208
0.368179, -369, 264, 2005, 640, 108, -2208
0.368314, -804, 244, 2042, 765, -206, -1761
0.368448, -804, 244, 2042, 765, -206, -1761
0.368582, -804, 244, 2042, 765, -206, -1761
0.368717, -804, 244, 2042, 765, -206, -1761
0.368851, -804, 244, 2042, 765, -206, -1761
0.368986, -804, 244, 2042, 765, -206, -1761
0.369120, -804, 244, 2042, 765, -206, -1761
0.369254, -804, 244, 2042, 765, -206, -1761
0.369389, -849, 258, 2099, 904, -360, -1036
0.369523, -849, 258, 2099, 904, -360, -1036
0.369658, -849, 258, 2099, 904, -360, -1036
0.369792, -849, 258, 2099, 904, -360, -1036
0.369927, -849, 258, 2099, 904, -360, -1036
0.370061, -849, 258, 2099, 904, -360, -1036
0.370196, -849, 258, 2099, 904, -360, -1036
0.370330, -849, 258, 2099, 904, -360, -1036
0.370464, -393, 308, 2142, 1009, -434, -381
0.370599, -393, 308, 2142, 1009, -434, -381
0.370733, -393, 308, 2142, 1009, -434, -381
0.370868, -393, 308, 2142, 1009, -434, -381
0.371002, -393, 308, 2142, 1009, -434, -381
0.371137, -393, 308, 2142, 1009, -434, -381
0.371271, -393, 308, 2142, 1009, -434, -381
0.371405, -107, 310, 2191, 1096, -463, -54
0.371540, -107, 310, 2191, 1096, -463, -54
0.371674, -107, 310, 2191, 1096, -463, -54
0.371809, -107, 310, 2191, 1096, -463, -54
0.371943, -107, 310, 2191, 1096, -463, -54
0.372077, -107, 310, 2191, 1096, -463, -54
0.372212, -107, 310, 2191, 1096, -463, -54
0.372346, -107, 310, 2191, 1096, -463, -54
0.372481, -691, 228, 2062, 1166, -428, 273
0.372615, -691, 228, 2062, 1166, -428, 273
0.372750, -691, 228, 2062, 1166, -428, 273
0.372884, -691, 228, 2062, 1166, -428, 273
0.373018, -691, 228, 2062, 1166, -428, 273
0.373153, -691, 228, 2062, 1166, -428, 273
0.373287, -691, 228, 2062, 1166, -428, 273
0.373422, -1016, 234, 1786, 1124, -475, 982
0.373556, -1016, 234, 1786, 1124, -475, 982
0.373691, -1016, 234, 1786, 1124, -475, 982
0.373825, -1016, 234, 1786, 1124, -475, 982
0.373960, -1016, 234, 1786, 1124, -475, 982
0.374095, -1016, 234, 1786, 1124, -475, 982
0.374229, -1016, 234, 1786, 1124, -475, 982
0.374363, -1016, 234, 1786, 1124, -475, 982
0.374509, -308, 334, 1682, 917, -795, 1621
0.374644, -308, 334, 1682, 917, -795, 1621
0.374779, -308, 334, 1682, 917, -795, 1621
0.374913, -308, 334, 1682, 917, -795, 1621
0.375048, -308, 334, 1682, 917, -795, 1621
0.375182, -308, 334, 1682, 917, -795, 1621
0.375317, -308, 334, 1682, 917, -795, 1621
0.375451, 311, 385, 1845, 653, -1225, 1729
0.375586, 311, 385, 1845, 653, -1225, 1729
0.375720, 311, 385, 1845, 653, -1225, 1729
0.375855, 311, 385, 1845, 653, -1225, 1729
0.375989, 311, 385, 1845, 653, -1225, 1729
0.376123, 311, 385, 1845, 653, -1225, 1729
0.376258, 311, 385, 1845, 653, -1225, 1729
0.376392, 311, 385, 1845, 653, -1225, 1729
0.376527, 620, 345, 2107, 519, -1490, 1501
0.376661, 620, 345, 2107, 519, -1490, 1501
0.376795, 620, 345, 2107, 519, -1490, 1501
0.376930, 620, 345, 2107, 519, -1490, 1501
0.377064, 620, 345, 2107, 519, -1490, 1501
0.377199, 620, 345, 2107, 519, -1490, 1501
0.377333, 620, 345, 2107, 519, -1490, 1501
0.377468, 1049, 249, 2159, 526, -1541, 1070
0.377602, 1049, 249, 2159, 526, -1541, 1070
0.377737, 1049, 249, 2159, 526, -1541, 1070
0.377871, 1049, 249, 2159, 526, -1541, 1070
0.378006, 1049, 249, 2159, 526, -1541, 1070
