Time, ax, ay, az, gx, gy, gz
0.000016, 604, 230, 1548, 314, 516, -781
0.000180, 604, 230, 1548, 314, 516, -781
0.000319, -167, 240, 1629, 21, 649, -778
0.000461, -167, 240, 1629, 21, 649, -778
0.000595, -167, 240, 1629, 21, 649, -778
0.000734, -167, 240, 1629, 21, 649, -778
0.000870, -167, 240, 1629, 21, 649, -778
0.001008, -167, 240, 1629, 21, 649, -778
0.001145, -167, 240, 1629, 21, 649, -778
0.001282, 259, 424, 1862, -48, 826, -529
0.001419, 259, 424, 1862, -48, 826, -529
0.001555, 259, 424, 1862, -48, 826, -529
0.001692, 259, 424, 1862, -48, 826, -529
0.001829, 259, 424, 1862, -48, 826, -529
0.001966, 259, 424, 1862, -48, 826, -529
0.002103, 259, 424, 1862, -48, 826, -529
0.002239, 259, 424, 1862, -48, 826, -529
0.002376, 1010, 505, 2071, 12, 936, -722
0.002515, 1010, 505, 2071, 12, 936, -722
0.002652, 1010, 505, 2071, 12, 936, -722
0.002789, 1010, 505, 2071, 12, 936, -722
0.002926, 1010, 505, 2071, 12, 936, -722
0.003063, 1010, 505, 2071, 12, 936, -722
0.003200, 1010, 505, 2071, 12, 936, -722
0.003336, 1646, 547, 2073, 40, 999, -1307
0.003474, 1646, 547, 2073, 40, 999, -1307
0.003610, 1646, 547, 2073, 40, 999, -1307
0.003747, 1646, 547, 2073, 40, 999, -1307
0.003884, 1646, 547, 2073, 40, 999, -1307
0.004021, 1646, 547, 2073, 40, 999, -1307
0.004158, 1646, 547, 2073, 40, 999, -1307
0.004295, 1646, 547, 2073, 40, 999, -1307
0.004431, 2105, 516, 2003, 61, 971, -2260
0.004569, 2105, 516, 2003, 61, 971, -2260
0.004705, 2105, 516, 2003, 61, 971, -2260
0.004842, 2105, 516, 2003, 61, 971, -2260
0.004979, 2105, 516, 2003, 61, 971, -2260
0.005116, 2105, 516, 2003, 61, 971, -2260
0.005255, 2105, 516, 2003, 61, 971, -2260
0.005392, 1052, 356, 2033, 186, 1021, -3258
0.005529, 1052, 356, 2033, 186, 1021, -3258
0.005666, 1052, 356, 2033, 186, 1021, -3258
0.005803, 1052, 356, 2033, 186, 1021, -3258
0.005939, 1052, 356, 2033, 186, 1021, -3258
0.006076, 1052, 356, 2033, 186, 1021, -3258
0.006213, 1052, 356, 2033, 186, 1021, -3258
0.006351, -1035, 215, 1823, 406, 1197, -3288
0.006489, -1035, 215, 1823, 406, 1197, -3288
0.006626, -1035, 215, 1823, 406, 1197, -3288
0.006763, -1035, 215, 1823, 406, 1197, -3288
0.006899, -1035, 215, 1823, 406, 1197, -3288
0.007036, -1035, 215, 1823, 406, 1197, -3288
0.007173, -1035, 215, 1823, 406, 1197, -3288
0.007310, -1035, 215, 1823, 406, 1197, -3288
0.007447, -1906, 232, 1414, 476, 1221, -2168
0.007584, -1906, 232, 1414, 476, 1221, -2168
0.007720, -1906, 232, 1414, 476, 1221, -2168
0.007857, -1906, 232, 1414, 476, 1221, -2168
0.007994, -1906, 232, 1414, 476, 1221, -2168
0.008131, -1906, 232, 1414, 476, 1221, -2168
0.008268, -1906, 232, 1414, 476, 1221, -2168
0.008405, -1351, 261, 1453, 228, 919, -910
0.008542, -1351, 261, 1453, 228, 919, -910
0.008679, -1351, 261, 1453, 228, 919, -910
0.008815, -1351, 261, 1453, 228, 919, -910
0.008952, -1351, 261, 1453, 228, 919, -910
0.009089, -1351, 261, 1453, 228, 919, -910
0.009226, -1351, 261, 1453, 228, 919, -910
0.009363, -1351, 261, 1453, 228, 919, -910
0.009500, -951, 270, 1682, -198, 500, -36
0.009637, -951, 270, 1682, -198, 500, -36
0.009774, -951, 270, 1682, -198, 500, -36
0.009911, -951, 270, 1682, -198, 500, -36
0.010048, -951, 270, 1682, -198, 500, -36
0.010184, -951, 270, 1682, -198, 500, -36
0.010321, -951, 270, 1682, -198, 500, -36
0.010458, -415, 407, 1759, -629, 141, 597
0.010596, -415, 407, 1759, -629, 141, 597
0.010732, -415, 407, 1759, -629, 141, 597
0.010869, -415, 407, 1759, -629, 141, 597
0.011006, -415, 407, 1759, -629, 141, 597
0.011143, -415, 407, 1759, -629, 141, 597
0.011280, -415, 407, 1759, -629, 141, 597
0.011416, 251, 511, 1980, -927, -120, 797
0.011553, 251, 511, 1980, -927, -120, 797
0.011690, 251, 511, 1980, -927, -120, 797
0.011827, 251, 511, 1980, -927, -120, 797
0.011964, 251, 511, 1980, -927, -120, 797
0.012101, 251, 511, 1980, -927, -120, 797
0.012237, 251, 511, 1980, -927, -120, 797
0.012374, 251, 511, 1980, -927, -120, 797
0.012511, 368, 455, 2075, -1040, -222, 678
0.012648, 368, 455, 2075, -1040, -222, 678
0.012785, 368, 455, 2075, -1040, -222, 678
0.012922, 368, 455, 2075, -1040, -222, 678
0.013059, 368, 455, 2075, -1040, -222, 678
0.013226, 368, 455, 2075, -1040, -222, 678
0.013369, 368, 455, 2075, -1040, -222, 678
0.013506, 397, 381, 1782, -1123, -245, 573
0.013644, 397, 381, 1782, -1123, -245, 573
0.013780, 397, 381, 1782, -1123, -245, 573
0.013917, 397, 381, 1782, -1123, -245, 573
0.014054, 397, 381, 1782, -1123, -245, 573
0.014191, 397, 381, 1782, -1123, -245, 573
0.014328, 397, 381, 1782, -1123, -245, 573
0.014465, 549, 467, 1671, -1263, -280, 446
0.014602, 549, 467, 1671, -1263, -280, 446
0.014739, 549, 467, 1671, -1263, -280, 446
0.014876, 549, 467, 1671, -1263, -280, 446
0.015013, 549, 467, 1671, -1263, -280, 446
0.015149, 549, 467, 1671, -1263, -280, 446
0.015286, 549, 467, 1671, -1263, -280, 446
0.015423, 549, 467, 1671, -1263, -280, 446
0.015560, 687, 573, 1937, -1333, -263, 230
0.015697, 687, 573, 1937, -1333, -263, 230
0.015834, 687, 573, 1937, -1333, -263, 230
0.015971, 687, 573, 1937, -1333, -263, 230
0.016108, 687, 573, 1937, -1333, -263, 230
0.016244, 687, 573, 1937, -1333, -263, 230
0.016381, 687, 573, 1937, -1333, -263, 230
0.016518, 464, 421, 2299, -1213, -106, 23
0.016655, 464, 421, 2299, -1213, -106, 23
0.016792, 464, 421, 2299, -1213, -106, 23
0.016929, 464, 421, 2299, -1213, -106, 23
0.017065, 464, 421, 2299, -1213, -106, 23
0.017202, 464, 421, 2299, -1213, -106, 23
0.017339, 464, 421, 2299, -1213, -106, 23
0.017476, 464, 421, 2299, -1213, -106, 23
0.017613, 170, 269, 2510, -869, 142, 35
0.017750, 170, 269, 2510, -869, 142, 35
0.017886, 170, 269, 2510, -869, 142, 35
0.018023, 170, 269, 2510, -869, 142, 35
0.018160, 170, 269, 2510, -869, 142, 35
0.018297, 170, 269, 2510, -869, 142, 35
0.018434, 170, 269, 2510, -869, 142, 35
0.018571, 121, 321, 2433, -492, 355, 163
0.018708, 121, 321, 2433, -492, 355, 163
0.018845, 121, 321, 2433, -492, 355, 163
0.018982, 121, 321, 2433, -492, 355, 163
0.019118, 121, 321, 2433, -492, 355, 163
0.019255, 121, 321, 2433, -492, 355, 163
0.019392, 121, 321, 2433, -492, 355, 163
0.019529, -216, 335, 2367, -231, 472, 293
0.019666, -216, 335, 2367, -231, 472, 293
0.019803, -216, 335, 2367, -231, 472, 293
0.019939, -216, 335, 2367, -231, 472, 293
0.020076, -216, 335, 2367, -231, 472, 293
0.020213, -216, 335, 2367, -231, 472, 293
0.020350, -216, 335, 2367, -231, 472, 293
0.020487, -216, 335, 2367, -231, 472, 293
0.020623, -457, 238, 2299, -11, 417, 608
0.020760, -457, 238, 2299, -11, 417, 608
0.020897, -457, 238, 2299, -11, 417, 608
0.021034, -457, 238, 2299, -11, 417, 608
0.021171, -457, 238, 2299, -11, 417, 608
0.021308, -457, 238, 2299, -11, 417, 608
0.021444, -457, 238, 2299, -11, 417, 608
0.021581, 114, 227, 1910, 68, 139, 865
0.021718, 114, 227, 1910, 68, 139, 865
0.021855, 114, 227, 1910, 68, 139, 865
0.021992, 114, 227, 1910, 68, 139, 865
0.022129, 114, 227, 1910, 68, 139, 865
0.022265, 114, 227, 1910, 68, 139, 865
0.022402, 114, 227, 1910, 68, 139, 865
0.022539, 114, 227, 1910, 68, 139, 865
0.022676, 443, 285, 1427, -186, -232, 698
0.022813, 443, 285, 1427, -186, -232, 698
0.022950, 443, 285, 1427, -186, -232, 698
0.023087, 443, 285, 1427, -186, -232, 698
0.023224, 443, 285, 1427, -186, -232, 698
0.023360, 443, 285, 1427, -186, -232, 698
0.023498, 443, 285, 1427, -186, -232, 698
0.023635, -745, 193, 1413, -646, -423, 662
0.023772, -745, 193, 1413, -646, -423, 662
0.023909, -745, 193, 1413, -646, -423, 662
0.024046, -745, 193, 1413, -646, -423, 662
0.024182, -745, 193, 1413, -646, -423, 662
0.024319, -745, 193, 1413, -646, -423, 662
0.024456, -745, 193, 1413, -646, -423, 662
0.024593, -1648, 182, 1685, -938, -420, 1552
0.024731, -1648, 182, 1685, -938, -420, 1552
0.024868, -1648, 182, 1685, -938, -420, 1552
0.025005, -1648, 182, 1685, -938, -420, 1552
0.025141, -1648, 182, 1685, -938, -420, 1552
0.025278, -1648, 182, 1685, -938, -420, 1552
0.025415, -1648, 182, 1685, -938, -420, 1552
0.025552, -1648, 182, 1685, -938, -420, 1552
0.025689, 522, 455, 1951, -1006, -584, 2439
0.025826, 522, 455, 1951, -1006, -584, 2439
0.025963, 522, 455, 1951, -1006, -584, 2439
0.026100, 522, 455, 1951, -1006, -584, 2439
0.026236, 522, 455, 1951, -1006, -584, 2439
0.026373, 522, 455, 1951, -1006, -584, 2439
0.026518, 522, 455, 1951, -1006, -584, 2439
0.026656, 3471, 564, 2253, -1037, -870, 1517
0.026793, 3471, 564, 2253, -1037, -870, 1517
0.026930, 3471, 564, 2253, -1037, -870, 1517
0.027067, 3471, 564, 2253, -1037, -870, 1517
0.027204, 3471, 564, 2253, -1037, -870, 1517
0.027340, 3471, 564, 2253, -1037, -870, 1517
0.027477, 3471, 564, 2253, -1037, -870, 1517
0.027614, 3471, 564, 2253, -1037, -870, 1517
0.027751, 3494, 438, 2109, -1106, -763, -644
0.027888, 3494, 438, 2109, -1106, -763, -644
0.028025, 3494, 438, 2109, -1106, -763, -644
0.028161, 3494, 438, 2109, -1106, -763, -644
0.028298, 3494, 438, 2109, -1106, -763, -644
0.028435, 3494, 438, 2109, -1106, -763, -644
0.028572, 3494, 438, 2109, -1106, -763, -644
0.028709, 2645, 483, 1897, -1071, -243, -2343
0.028846, 2645, 483, 1897, -1071, -243, -2343
0.028982, 2645, 483, 1897, -1071, -243, -2343
0.029119, 2645, 483, 1897, -1071, -243, -2343
0.029256, 2645, 483, 1897, -1071, -243, -2343
0.029393, 2645, 483, 1897, -1071, -243, -2343
0.029530, 2645, 483, 1897, -1071, -243, -2343
0.029666, 2021, 515, 2141, -692, 416, -3604
0.029803, 2021, 515, 2141, -692, 416, -3604
0.029940, 2021, 515, 2141, -692, 416, -3604
0.030077, 2021, 515, 2141, -692, 416, -3604
0.030214, 2021, 515, 2141, -692, 416, -3604
0.030351, 2021, 515, 2141, -692, 416, -3604
0.030488, 2021, 515, 2141, -692, 416, -3604
0.030625, 2021, 515, 2141, -692, 416, -3604
0.030761, -267, 313, 2618, 0, 1170, -4214
0.030899, -267, 313, 2618, 0, 1170, -4214
0.031036, -267, 313, 2618, 0, 1170, -4214
0.031172, -267, 313, 2618, 0, 1170, -4214
0.031309, -267, 313, 2618, 0, 1170, -4214
0.031446, -267, 313, 2618, 0, 1170, -4214
0.031583, -267, 313, 2618, 0, 1170, -4214
0.031720, -3834, 82, 2796, 893, 1792, -3041
0.031857, -3834, 82, 2796, 893, 1792, -3041
0.031995, -3834, 82, 2796, 893, 1792, -3041
0.032132, -3834, 82, 2796, 893, 1792, -3041
0.032268, -3834, 82, 2796, 893, 1792, -3041
0.032407, -3834, 82, 2796, 893, 1792, -3041
0.032546, -3834, 82, 2796, 893, 1792, -3041
0.032685, -3834, 82, 2796, 893, 1792, -3041
0.032822, -6559, -11, 1798, 1441, 1894, 261
0.032959, -6559, -11, 1798, 1441, 1894, 261
0.033096, -6559, -11, 1798, 1441, 1894, 261
0.033232, -6559, -11, 1798, 1441, 1894, 261
0.033369, -6559, -11, 1798, 1441, 1894, 261
0.033506, -6559, -11, 1798, 1441, 1894, 261
0.033643, -6559, -11, 1798, 1441, 1894, 261
0.033780, -5353, 134, 1016, 967, 1098, 4400
0.033917, -5353, 134, 1016, 967, 1098, 4400
0.034053, -5353, 134, 1016, 967, 1098, 4400
0.034190, -5353, 134, 1016, 967, 1098, 4400
0.034327, -5353, 134, 1016, 967, 1098, 4400
0.034466, -5353, 134, 1016, 967, 1098, 4400
0.034603, -5353, 134, 1016, 967, 1098, 4400
0.034740, -1362, 424, 1841, -39, -439, 6824
0.034877, -1362, 424, 1841, -39, -439, 6824
0.035014, -1362, 424, 1841, -39, -439, 6824
0.035151, -1362, 424, 1841, -39, -439, 6824
0.035287, -1362, 424, 1841, -39, -439, 6824
0.035424, -1362, 424, 1841, -39, -439, 6824
0.035561, -1362, 424, 1841, -39, -439, 6824
0.035698, -1362, 424, 1841, -39, -439, 6824
0.035835, 663, 518, 2522, -865, -1747, 6928
0.035972, 663, 518, 2522, -865, -1747, 6928
0.036109, 663, 518, 2522, -865, -1747, 6928
0.036246, 663, 518, 2522, -865, -1747, 6928
0.036382, 663, 518, 2522, -865, -1747, 6928
0.036519, 663, 518, 2522, -865, -1747, 6928
0.036656, 663, 518, 2522, -865, -1747, 6928
0.036793, 523, 387, 2199, -1425, -2344, 6427
0.036930, 523, 387, 2199, -1425, -2344, 6427
0.037067, 523, 387, 2199, -1425, -2344, 6427
0.037203, 523, 387, 2199, -1425, -2344, 6427
0.037340, 523, 387, 2199, -1425, -2344, 6427
0.037477, 523, 387, 2199, -1425, -2344, 6427
0.037614, 523, 387, 2199, -1425, -2344, 6427
0.037750, 523, 387, 2199, -1425, -2344, 6427
0.037887, 582, 318, 1964, -1666, -2534, 6103
0.038025, 582, 318, 1964, -1666, -2534, 6103
0.038161, 582, 318, 1964, -1666, -2534, 6103
0.038298, 582, 318, 1964, -1666, -2534, 6103
0.038435, 582, 318, 1964, -1666, -2534, 6103
0.038572, 582, 318, 1964, -1666, -2534, 6103
0.038708, 582, 318, 1964, -1666, -2534, 6103
0.038844, 1163, 317, 2051, -1658, -2545, 5617
0.038981, 1163, 317, 2051, -1658, -2545, 5617
0.039117, 1163, 317, 2051, -1658, -2545, 5617
0.039261, 1163, 317, 2051, -1658, -2545, 5617
0.039399, 1163, 317, 2051, -1658, -2545, 5617
0.039535, 1163, 317, 2051, -1658, -2545, 5617
0.039672, 1163, 317, 2051, -1658, -2545, 5617
0.039809, 1929, 267, 1981, -1608, -2515, 4775
0.039946, 1929, 267, 1981, -1608, -2515, 4775
0.040082, 1929, 267, 1981, -1608, -2515, 4775
0.040219, 1929, 267, 1981, -1608, -2515, 4775
0.040356, 1929, 267, 1981, -1608, -2515, 4775
0.040493, 1929, 267, 1981, -1608, -2515, 4775
0.040629, 1929, 267, 1981, -1608, -2515, 4775
0.040766, 1929, 267, 1981, -1608, -2515, 4775
0.040902, 2858, 244, 1772, -1617, -2397, 3489
0.041039, 2858, 244, 1772, -1617, -2397, 3489
0.041176, 2858, 244, 1772, -1617, -2397, 3489
0.041313, 2858, 244, 1772, -1617, -2397, 3489
0.041449, 2858, 244, 1772, -1617, -2397, 3489
0.041586, 2858, 244, 1772, -1617, -2397, 3489
0.041723, 2858, 244, 1772, -1617, -2397, 3489
0.041859, 3928, 325, 1603, -1758, -1971, 1647
0.041996, 3928, 325, 1603, -1758, -1971, 1647
0.042133, 3928, 325, 1603, -1758, -1971, 1647
0.042270, 3928, 325, 1603, -1758, -1971, 1647
0.042406, 3928, 325, 1603, -1758, -1971, 1647
0.042543, 3928, 325, 1603, -1758, -1971, 1647
0.042680, 3928, 325, 1603, -1758, -1971, 1647
0.042817, 3928, 325, 1603, -1758, -1971, 1647
0.042954, 4665, 439, 1552, -1965, -1193, -782
0.043091, 4665, 439, 1552, -1965, -1193, -782
0.043228, 4665, 439, 1552, -1965, -1193, -782
0.043359, 4665, 439, 1552, -1965, -1193, -782
0.043496, 4665, 439, 1552, -1965, -1193, -782
0.043633, 4665, 439, 1552, -1965, -1193, -782
0.043770, 4665, 439, 1552, -1965, -1193, -782
0.043907, 4573, 604, 1680, -2026, -115, -3491
0.044044, 4573, 604, 1680, -2026, -115, -3491
0.044181, 4573, 604, 1680, -2026, -115, -3491
0.044317, 4573, 604, 1680, -2026, -115, -3491
0.044454, 4573, 604, 1680, -2026, -115, -3491
0.044591, 4573, 604, 1680, -2026, -115, -3491
0.044728, 4573, 604, 1680, -2026, -115, -3491
0.044865, 2832, 603, 1814, -1897, 1192, -5759
0.045002, 2832, 603, 1814, -1897, 1192, -5759
0.045139, 2832, 603, 1814, -1897, 1192, -5759
0.045276, 2832, 603, 1814, -1897, 1192, -5759
0.045412, 2832, 603, 1814, -1897, 1192, -5759
0.045549, 2832, 603, 1814, -1897, 1192, -5759
0.045686, 2832, 603, 1814, -1897, 1192, -5759
0.045823, 2832, 603, 1814, -1897, 1192, -5759
0.045960, -461, 299, 2046, -1538, 2503, -6489
0.046097, -461, 299, 2046, -1538, 2503, -6489
0.046233, -461, 299, 2046, -1538, 2503, -6489
0.046370, -461, 299, 2046, -1538, 2503, -6489
0.046508, -461, 299, 2046, -1538, 2503, -6489
0.046644, -461, 299, 2046, -1538, 2503, -6489
0.046781, -461, 299, 2046, -1538, 2503, -6489
0.046918, -2477, 373, 2133, -882, 3353, -5242
0.047055, -2477, 373, 2133, -882, 3353, -5242
0.047192, -2477, 373, 2133, -882, 3353, -5242
0.047329, -2477, 373, 2133, -882, 3353, -5242
0.047465, -2477, 373, 2133, -882, 3353, -5242
0.047602, -2477, 373, 2133, -882, 3353, -5242
0.047739, -2477, 373, 2133, -882, 3353, -5242
0.047876, -2477, 373, 2133, -882, 3353, -5242
0.048013, -3340, 482, 1805, -448, 3510, -3127
0.048150, -3340, 482, 1805, -448, 3510, -3127
0.048286, -3340, 482, 1805, -448, 3510, -3127
0.048423, -3340, 482, 1805, -448, 3510, -3127
0.048560, -3340, 482, 1805, -448, 3510, -3127
0.048697, -3340, 482, 1805, -448, 3510, -3127
0.048834, -3340, 482, 1805, -448, 3510, -3127
0.048971, -4782, 117, 1835, -566, 3118, -467
0.049108, -4782, 117, 1835, -566, 3118, -467
0.049244, -4782, 117, 1835, -566, 3118, -467
0.049381, -4782, 117, 1835, -566, 3118, -467
0.049518, -4782, 117, 1835, -566, 3118, -467
0.049655, -4782, 117, 1835, -566, 3118, -467
0.049792, -4782, 117, 1835, -566, 3118, -467
0.049928, -4182, 172, 2347, -722, 2186, 2831
0.050065, -4182, 172, 2347, -722, 2186, 2831
0.050202, -4182, 172, 2347, -722, 2186, 2831
0.050339, -4182, 172, 2347, -722, 2186, 2831
0.050476, -4182, 172, 2347, -722, 2186, 2831
0.050612, -4182, 172, 2347, -722, 2186, 2831
0.050749, -4182, 172, 2347, -722, 2186, 2831
0.050885, -4182, 172, 2347, -722, 2186, 2831
0.051021, -1361, 449, 2625, -751, 860, 4998
0.051157, -1361, 449, 2625, -751, 860, 4998
0.051293, -1361, 449, 2625, -751, 860, 4998
0.051434, -1361, 449, 2625, -751, 860, 4998
0.051571, -1361, 449, 2625, -751, 860, 4998
0.051708, -1361, 449, 2625, -751, 860, 4998
0.051845, -1361, 449, 2625, -751, 860, 4998
0.051981, 69, 408, 2415, -939, -391, 5381
0.052118, 69, 408, 2415, -939, -391, 5381
0.052255, 69, 408, 2415, -939, -391, 5381
0.052392, 69, 408, 2415, -939, -391, 5381
0.052528, 69, 408, 2415, -939, -391, 5381
0.052665, 69, 408, 2415, -939, -391, 5381
0.052802, 69, 408, 2415, -939, -391, 5381
0.052938, 69, 408, 2415, -939, -391, 5381
0.053075, -91, 344, 2138, -1222, -1334, 5327
0.053212, -91, 344, 2138, -1222, -1334, 5327
0.053348, -91, 344, 2138, -1222, -1334, 5327
0.053485, -91, 344, 2138, -1222, -1334, 5327
0.053622, -91, 344, 2138, -1222, -1334, 5327
0.053757, -91, 344, 2138, -1222, -1334, 5327
0.053891, -91, 344, 2138, -1222, -1334, 5327
0.054026, -68, 331, 2108, -1370, -2005, 5428
0.054161, -68, 331, 2108, -1370, -2005, 5428
0.054295, -68, 331, 2108, -1370, -2005, 5428
0.054430, -68, 331, 2108, -1370, -2005, 5428
0.054565, -68, 331, 2108, -1370, -2005, 5428
0.054699, -68, 331, 2108, -1370, -2005, 5428
0.054834, -68, 331, 2108, -1370, -2005, 5428
0.054968, -68, 331, 2108, -1370, -2005, 5428
0.055103, 624, 328, 2112, -1358, -2531, 5327
0.055238, 624, 328, 2112, -1358, -2531, 5327
0.055372, 624, 328, 2112, -1358, -2531, 5327
0.055507, 624, 328, 2112, -1358, -2531, 5327
0.055642, 624, 328, 2112, -1358, -2531, 5327
0.055776, 624, 328, 2112, -1358, -2531, 5327
0.055911, 624, 328, 2112, -1358, -2531, 5327
0.056046, 1732, 355, 2107, -1296, -2943, 4669
0.056181, 1732, 355, 2107, -1296, -2943, 4669
0.056315, 1732, 355, 2107, -1296, -2943, 4669
0.056450, 1732, 355, 2107, -1296, -2943, 4669
0.056585, 1732, 355, 2107, -1296, -2943, 4669
0.056720, 1732, 355, 2107, -1296, -2943, 4669
0.056854, 1732, 355, 2107, -1296, -2943, 4669
0.056989, 1732, 355, 2107, -1296, -2943, 4669
0.057124, 3506, 532, 2541, -1209, -3010, 3277
0.057259, 3506, 532, 2541, -1209, -3010, 3277
0.057393, 3506, 532, 2541, -1209, -3010, 3277
0.057528, 3506, 532, 2541, -1209, -3010, 3277
0.057663, 3506, 532, 2541, -1209, -3010, 3277
0.057797, 3506, 532, 2541, -1209, -3010, 3277
0.057932, 3506, 532, 2541, -1209, -3010, 3277
0.058067, 6178, 816, 3718, -688, -2527, 603
0.058202, 6178, 816, 3718, -688, -2527, 603
0.058336, 6178, 816, 3718, -688, -2527, 603
0.058471, 6178, 816, 3718, -688, -2527, 603
0.058606, 6178, 816, 3718, -688, -2527, 603
0.058741, 6178, 816, 3718, -688, -2527, 603
0.058871, 6178, 816, 3718, -688, -2527, 603
0.059006, 6178, 816, 3718, -688, -2527, 603
0.059142, 5823, 644, 3883, 499, -1388, -3349
0.059277, 5823, 644, 3883, 499, -1388, -3349
0.059411, 5823, 644, 3883, 499, -1388, -3349
0.059546, 5823, 644, 3883, 499, -1388, -3349
0.059681, 5823, 644, 3883, 499, -1388, -3349
0.059815, 5823, 644, 3883, 499, -1388, -3349
0.059950, 5823, 644, 3883, 499, -1388, -3349
0.060085, -1563, -138, 1580, 1417, 332, -5460
0.060220, -1563, -138, 1580, 1417, 332, -5460
0.060350, -1563, -138, 1580, 1417, 332, -5460
0.060485, -1563, -138, 1580, 1417, 332, -5460
0.060619, -1563, -138, 1580, 1417, 332, -5460
0.060754, -1563, -138, 1580, 1417, 332, -5460
0.060889, -1563, -138, 1580, 1417, 332, -5460
0.061023, -1563, -138, 1580, 1417, 332, -5460
0.061158, -8365, -435, -395, 1251, 1694, -2424
0.061293, -8365, -435, -395, 1251, 1694, -2424
0.061428, -8365, -435, -395, 1251, 1694, -2424
0.061562, -8365, -435, -395, 1251, 1694, -2424
0.061697, -8365, -435, -395, 1251, 1694, -2424
0.061832, -8365, -435, -395, 1251, 1694, -2424
0.061966, -8365, -435, -395, 1251, 1694, -2424
0.062101, -6047, 146, 424, 489, 1613, 2933
0.062236, -6047, 146, 424, 489, 1613, 2933
0.062371, -6047, 146, 424, 489, 1613, 2933
0.062506, -6047, 146, 424, 489, 1613, 2933
0.062641, -6047, 146, 424, 489, 1613, 2933
0.062775, -6047, 146, 424, 489, 1613, 2933
0.062910, -6047, 146, 424, 489, 1613, 2933
0.063045, -6047, 146, 424, 489, 1613, 2933
0.063179, -503, 548, 2184, -312, 494, 5530
0.063314, -503, 548, 2184, -312, 494, 5530
0.063449, -503, 548, 2184, -312, 494, 5530
0.063584, -503, 548, 2184, -312, 494, 5530
0.063718, -503, 548, 2184, -312, 494, 5530
0.063865, -503, 548, 2184, -312, 494, 5530
0.064001, -503, 548, 2184, -312, 494, 5530
0.064136, 1573, 493, 2692, -1038, -471, 5307
0.064271, 1573, 493, 2692, -1038, -471, 5307
0.064406, 1573, 493, 2692, -1038, -471, 5307
0.064540, 1573, 493, 2692, -1038, -471, 5307
0.064675, 1573, 493, 2692, -1038, -471, 5307
0.064810, 1573, 493, 2692, -1038, -471, 5307
0.064944, 1573, 493, 2692, -1038, -471, 5307
0.065079, 1573, 493, 2692, -1038, -471, 5307
0.065213, 1522, 417, 2381, -1540, -725, 4550
0.065348, 1522, 417, 2381, -1540, -725, 4550
0.065482, 1522, 417, 2381, -1540, -725, 4550
0.065617, 1522, 417, 2381, -1540, -725, 4550
0.065751, 1522, 417, 2381, -1540, -725, 4550
0.065886, 1522, 417, 2381, -1540, -725, 4550
0.066020, 1522, 417, 2381, -1540, -725, 4550
0.066155, 1304, 372, 2265, -1643, -525, 3879
0.066289, 1304, 372, 2265, -1643, -525, 3879
0.066424, 1304, 372, 2265, -1643, -525, 3879
0.066559, 1304, 372, 2265, -1643, -525, 3879
0.066693, 1304, 372, 2265, -1643, -525, 3879
0.066828, 1304, 372, 2265, -1643, -525, 3879
0.066963, 1304, 372, 2265, -1643, -525, 3879
0.067097, 1304, 372, 2265, -1643, -525, 3879
0.067232, 1060, 321, 2250, -1329, -497, 3198
0.067367, 1060, 321, 2250, -1329, -497, 3198
0.067501, 1060, 321, 2250, -1329, -497, 3198
0.067636, 1060, 321, 2250, -1329, -497, 3198
0.067771, 1060, 321, 2250, -1329, -497, 3198
0.067905, 1060, 321, 2250, -1329, -497, 3198
0.068040, 1060, 321, 2250, -1329, -497, 3198
0.068175, 807, 307, 2184, -843, -835, 2678
0.068310, 807, 307, 2184, -843, -835, 2678
0.068444, 807, 307, 2184, -843, -835, 2678
0.068579, 807, 307, 2184, -843, -835, 2678
0.068714, 807, 307, 2184, -843, -835, 2678
0.068849, 807, 307, 2184, -843, -835, 2678
0.068983, 807, 307, 2184, -843, -835, 2678
0.069118, 807, 307, 2184, -843, -835, 2678
0.069253, 764, 368, 2251, -443, -1232, 2353
0.069387, 764, 368, 2251, -443, -1232, 2353
0.069522, 764, 368, 2251, -443, -1232, 2353
0.069657, 764, 368, 2251, -443, -1232, 2353
0.069792, 764, 368, 2251, -443, -1232, 2353
0.069926, 764, 368, 2251, -443, -1232, 2353
0.070061, 764, 368, 2251, -443, -1232, 2353
0.070196, 764, 368, 2251, -443, -1232, 2353
0.070330, 555, 392, 2190, -166, -1385, 2107
0.070466, 555, 392, 2190, -166, -1385, 2107
0.070600, 555, 392, 2190, -166, -1385, 2107
0.070735, 555, 392, 2190, -166, -1385, 2107
0.070869, 555, 392, 2190, -166, -1385, 2107
0.071004, 555, 392, 2190, -166, -1385, 2107
0.071139, 555, 392, 2190, -166, -1385, 2107
0.071273, -51, 337, 1794, -65, -1197, 2087
0.071408, -51, 337, 1794, -65, -1197, 2087
0.071543, -51, 337, 1794, -65, -1197, 2087
0.071678, -51, 337, 1794, -65, -1197, 2087
0.071812, -51, 337, 1794, -65, -1197, 2087
0.071947, -51, 337, 1794, -65, -1197, 2087
0.072082, -51, 337, 1794, -65, -1197, 2087
0.072216, -51, 337, 1794, -65, -1197, 2087
0.072351, -154, 350, 1605, -239, -851, 2402
0.072486, -154, 350, 1605, -239, -851, 2402
0.072620, -154, 350, 1605, -239, -851, 2402
0.072755, -154, 350, 1605, -239, -851, 2402
0.072890, -154, 350, 1605, -239, -851, 2402
0.073025, -154, 350, 1605, -239, -851, 2402
0.073159, -154, 350, 1605, -239, -851, 2402
0.073294, 1199, 409, 1995, -507, -643, 2450
0.073429, 1199, 409, 1995, -507, -643, 2450
0.073564, 1199, 409, 1995, -507, -643, 2450
0.073699, 1199, 409, 1995, -507, -643, 2450
0.073833, 1199, 409, 1995, -507, -643, 2450
0.073968, 1199, 409, 1995, -507, -643, 2450
0.074103, 1199, 409, 1995, -507, -643, 2450
0.074237, 1199, 409, 1995, -507, -643, 2450
0.074372, 2520, 388, 2343, -605, -529, 1490
0.074507, 2520, 388, 2343, -605, -529, 1490
0.074642, 2520, 388, 2343, -605, -529, 1490
0.074777, 2520, 388, 2343, -605, -529, 1490
0.074911, 2520, 388, 2343, -605, -529, 1490
0.075046, 2520, 388, 2343, -605, -529, 1490
0.075181, 2520, 388, 2343, -605, -529, 1490
0.075315, 2542, 398, 2167, -584, -263, -36
0.075450, 2542, 398, 2167, -584, -263, -36
0.075585, 2542, 398, 2167, -584, -263, -36
0.075720, 2542, 398, 2167, -584, -263, -36
0.075855, 2542, 398, 2167, -584, -263, -36
0.075990, 2542, 398, 2167, -584, -263, -36
0.076125, 2542, 398, 2167, -584, -263, -36
0.076259, 2542, 398, 2167, -584, -263, -36
0.076399, 1543, 326, 1966, -507, 207, -1276
0.076536, 1543, 326, 1966, -507, 207, -1276
0.076671, 1543, 326, 1966, -507, 207, -1276
0.076806, 1543, 326, 1966, -507, 207, -1276
0.076941, 1543, 326, 1966, -507, 207, -1276
0.077075, 1543, 326, 1966, -507, 207, -1276
0.077210, 1543, 326, 1966, -507, 207, -1276
0.077345, -320, 126, 1709, -377, 751, -1684
0.077479, -320, 126, 1709, -377, 751, -1684
0.077614, -320, 126, 1709, -377, 751, -1684
0.077749, -320, 126, 1709, -377, 751, -1684
0.077883, -320, 126, 1709, -377, 751, -1684
0.078018, -320, 126, 1709, -377, 751, -1684
0.078153, -320, 126, 1709, -377, 751, -1684
0.078287, -320, 126, 1709, -377, 751, -1684
0.078422, -1838, 165, 958, -470, 1075, -948
0.078557, -1838, 165, 958, -470, 1075, -948
0.078692, -1838, 165, 958, -470, 1075, -948
0.078826, -1838, 165, 958, -470, 1075, -948
0.078961, -1838, 165, 958, -470, 1075, -948
0.079096, -1838, 165, 958, -470, 1075, -948
0.079230, -1838, 165, 958, -470, 1075, -948
0.079365, -1900, 345, 663, -993, 993, 485
0.079500, -1900, 345, 663, -993, 993, 485
0.079635, -1900, 345, 663, -993, 993, 485
0.079769, -1900, 345, 663, -993, 993, 485
0.079904, -1900, 345, 663, -993, 993, 485
0.080039, -1900, 345, 663, -993, 993, 485
0.080173, -1900, 345, 663, -993, 993, 485
0.080308, -1900, 345, 663, -993, 993, 485
0.080443, 728, 507, 1243, -1746, 598, 1416
0.080578, 728, 507, 1243, -1746, 598, 1416
0.080712, 728, 507, 1243, -1746, 598, 1416
0.080847, 728, 507, 1243, -1746, 598, 1416
0.080982, 728, 507, 1243, -1746, 598, 1416
0.081116, 728, 507, 1243, -1746, 598, 1416
0.081251, 728, 507, 1243, -1746, 598, 1416
0.081386, 4744, 664, 1662, -2485, 207, 308
0.081520, 4744, 664, 1662, -2485, 207, 308
0.081655, 4744, 664, 1662, -2485, 207, 308
0.081790, 4744, 664, 1662, -2485, 207, 308
0.081924, 4744, 664, 1662, -2485, 207, 308
0.082059, 4744, 664, 1662, -2485, 207, 308
0.082194, 4744, 664, 1662, -2485, 207, 308
0.082328, 4744, 664, 1662, -2485, 207, 308
0.082464, 5848, 515, 2207, -2990, 291, -2825
0.082599, 5848, 515, 2207, -2990, 291, -2825
0.082733, 5848, 515, 2207, -2990, 291, -2825
0.082868, 5848, 515, 2207, -2990, 291, -2825
0.083003, 5848, 515, 2207, -2990, 291, -2825
0.083137, 5848, 515, 2207, -2990, 291, -2825
0.083272, 5848, 515, 2207, -2990, 291, -2825
0.083406, 3172, 170, 3339, -2551, 1035, -5740
0.083541, 3172, 170, 3339, -2551, 1035, -5740
0.083676, 3172, 170, 3339, -2551, 1035, -5740
0.083811, 3172, 170, 3339, -2551, 1035, -5740
0.083945, 3172, 170, 3339, -2551, 1035, -5740
0.084080, 3172, 170, 3339, -2551, 1035, -5740
0.084215, 3172, 170, 3339, -2551, 1035, -5740
0.084349, 3172, 170, 3339, -2551, 1035, -5740
0.084484, -1209, -199, 3623, -929, 2017, -6456
0.084619, -1209, -199, 3623, -929, 2017, -6456
0.084754, -1209, -199, 3623, -929, 2017, -6456
0.084888, -1209, -199, 3623, -929, 2017, -6456
0.085023, -1209, -199, 3623, -929, 2017, -6456
0.085158, -1209, -199, 3623, -929, 2017, -6456
0.085292, -1209, -199, 3623, -929, 2017, -6456
0.085427, -3675, -195, 2421, 682, 2405, -4805
0.085562, -3675, -195, 2421, 682, 2405, -4805
0.085697, -3675, -195, 2421, 682, 2405, -4805
0.085831, -3675, -195, 2421, 682, 2405, -4805
0.085966, -3675, -195, 2421, 682, 2405, -4805
0.086101, -3675, -195, 2421, 682, 2405, -4805
0.086235, -3675, -195, 2421, 682, 2405, -4805
0.086370, -3675, -195, 2421, 682, 2405, -4805
0.086505, -1714, 476, 1557, 1241, 1850, -2647
0.086640, -1714, 476, 1557, 1241, 1850, -2647
0.086775, -1714, 476, 1557, 1241, 1850, -2647
0.086909, -1714, 476, 1557, 1241, 1850, -2647
0.087044, -1714, 476, 1557, 1241, 1850, -2647
0.087178, -1714, 476, 1557, 1241, 1850, -2647
0.087313, -1714, 476, 1557, 1241, 1850, -2647
0.087448, -310, 593, 1778, 898, 1047, -1883
0.087583, -310, 593, 1778, 898, 1047, -1883
0.087717, -310, 593, 1778, 898, 1047, -1883
0.087852, -310, 593, 1778, 898, 1047, -1883
0.087987, -310, 593, 1778, 898, 1047, -1883
0.088121, -310, 593, 1778, 898, 1047, -1883
0.088256, -310, 593, 1778, 898, 1047, -1883
0.088390, -310, 593, 1778, 898, 1047, -1883
0.088525, -2397, 188, 1597, 262, 686, -1083
0.088660, -2397, 188, 1597, 262, 686, -1083
0.088799, -2397, 188, 1597, 262, 686, -1083
0.088934, -2397, 188, 1597, 262, 686, -1083
0.089069, -2397, 188, 1597, 262, 686, -1083
0.089203, -2397, 188, 1597, 262, 686, -1083
0.089338, -2397, 188, 1597, 262, 686, -1083
0.089473, -2299, 245, 1503, -206, 484, 879
0.089607, -2299, 245, 1503, -206, 484, 879
0.089742, -2299, 245, 1503, -206, 484, 879
0.089877, -2299, 245, 1503, -206, 484, 879
0.090011, -2299, 245, 1503, -206, 484, 879
0.090146, -2299, 245, 1503, -206, 484, 879
0.090281, -2299, 245, 1503, -206, 484, 879
0.090415, -2299, 245, 1503, -206, 484, 879
0.090550, 869, 466, 2366, -317, 159, 1841
0.090685, 869, 466, 2366, -317, 159, 1841
0.090820, 869, 466, 2366, -317, 159, 1841
0.090955, 869, 466, 2366, -317, 159, 1841
0.091089, 869, 466, 2366, -317, 159, 1841
0.091224, 869, 466, 2366, -317, 159, 1841
0.091359, 869, 466, 2366, -317, 159, 1841
0.091493, 3223, 576, 2694, -258, -144, 807
0.091628, 3223, 576, 2694, -258, -144, 807
0.091763, 3223, 576, 2694, -258, -144, 807
0.091898, 3223, 576, 2694, -258, -144, 807
0.092032, 3223, 576, 2694, -258, -144, 807
0.092167, 3223, 576, 2694, -258, -144, 807
0.092301, 3223, 576, 2694, -258, -144, 807
0.092436, 3223, 576, 2694, -258, -144, 807
0.092571, 3313, 542, 2272, -219, -229, -1140
0.092705, 3313, 542, 2272, -219, -229, -1140
0.092840, 3313, 542, 2272, -219, -229, -1140
0.092975, 3313, 542, 2272, -219, -229, -1140
0.093110, 3313, 542, 2272, -219, -229, -1140
0.093244, 3313, 542, 2272, -219, -229, -1140
0.093379, 3313, 542, 2272, -219, -229, -1140
0.093513, 2043, 477, 2068, -24, 91, -2710
0.093648, 2043, 477, 2068, -24, 91, -2710
0.093783, 2043, 477, 2068, -24, 91, -2710
0.093918, 2043, 477, 2068, -24, 91, -2710
0.094052, 2043, 477, 2068, -24, 91, -2710
0.094187, 2043, 477, 2068, -24, 91, -2710
0.094322, 2043, 477, 2068, -24, 91, -2710
0.094457, 2043, 477, 2068, -24, 91, -2710
0.094591, 137, 271, 2013, 437, 608, -3342
0.094726, 137, 271, 2013, 437, 608, -3342
0.094861, 137, 271, 2013, 437, 608, -3342
0.094995, 137, 271, 2013, 437, 608, -3342
0.095130, 137, 271, 2013, 437, 608, -3342
0.095265, 137, 271, 2013, 437, 608, -3342
0.095399, 137, 271, 2013, 437, 608, -3342
0.095534, 137, 271, 2013, 437, 608, -3342
0.095669, -1509, 204, 1904, 948, 937, -2776
0.095804, -1509, 204, 1904, 948, 937, -2776
0.095938, -1509, 204, 1904, 948, 937, -2776
0.096073, -1509, 204, 1904, 948, 937, -2776
0.096208, -1509, 204, 1904, 948, 937, -2776
0.096342, -1509, 204, 1904, 948, 937, -2776
0.096477, -1509, 204, 1904, 948, 937, -2776
0.096612, 335, 714, 2034, 1285, 874, -1788
0.096746, 335, 714, 2034, 1285, 874, -1788
0.096881, 335, 714, 2034, 1285, 874, -1788
0.097016, 335, 714, 2034, 1285, 874, -1788
0.097151, 335, 714, 2034, 1285, 874, -1788
0.097285, 335, 714, 2034, 1285, 874, -1788
0.097420, 335, 714, 2034, 1285, 874, -1788
0.097555, 335, 714, 2034, 1285, 874, -1788
0.097689, 2335, 683, 2383, 1362, 769, -2355
0.097824, 2335, 683, 2383, 1362, 769, -2355
0.097959, 2335, 683, 2383, 1362, 769, -2355
0.098093, 2335, 683, 2383, 1362, 769, -2355
0.098228, 2335, 683, 2383, 1362, 769, -2355
0.098363, 2335, 683, 2383, 1362, 769, -2355
0.098498, 2335, 683, 2383, 1362, 769, -2355
0.098632, -1163, -324, 2164, 1279, 1145, -3156
0.098766, -1163, -324, 2164, 1279, 1145, -3156
0.098900, -1163, -324, 2164, 1279, 1145, -3156
0.099035, -1163, -324, 2164, 1279, 1145, -3156
0.099169, -1163, -324, 2164, 1279, 1145, -3156
0.099304, -1163, -324, 2164, 1279, 1145, -3156
0.099438, -1163, -324, 2164, 1279, 1145, -3156
0.099573, -1163, -324, 2164, 1279, 1145, -3156
0.099707, -5036, -599, 1336, 1148, 1445, -1343
0.099842, -5036, -599, 1336, 1148, 1445, -1343
0.099976, -5036, -599, 1336, 1148, 1445, -1343
0.100111, -5036, -599, 1336, 1148, 1445, -1343
0.100245, -5036, -599, 1336, 1148, 1445, -1343
0.100380, -5036, -599, 1336, 1148, 1445, -1343
0.100514, -5036, -599, 1336, 1148, 1445, -1343
0.100649, -3140, 174, 1366, 825, 828, 1575
0.100783, -3140, 174, 1366, 825, 828, 1575
0.100918, -3140, 174, 1366, 825, 828, 1575
0.101052, -3140, 174, 1366, 825, 828, 1575
0.101187, -3140, 174, 1366, 825, 828, 1575
0.101326, -3140, 174, 1366, 825, 828, 1575
0.101461, -3140, 174, 1366, 825, 828, 1575
0.101595, -3140, 174, 1366, 825, 828, 1575
0.101730, 197, 516, 2183, 367, -295, 2595
0.101864, 197, 516, 2183, 367, -295, 2595
0.101999, 197, 516, 2183, 367, -295, 2595
0.102133, 197, 516, 2183, 367, -295, 2595
0.102263, 197, 516, 2183, 367, -295, 2595
0.102397, 197, 516, 2183, 367, -295, 2595
0.102527, 197, 516, 2183, 367, -295, 2595
0.102661, -36, 352, 2165, -44, -1012, 2373
0.102796, -36, 352, 2165, -44, -1012, 2373
0.102931, -36, 352, 2165, -44, -1012, 2373
0.103066, -36, 352, 2165, -44, -1012, 2373
0.103200, -36, 352, 2165, -44, -1012, 2373
0.103335, -36, 352, 2165, -44, -1012, 2373
0.103470, -36, 352, 2165, -44, -1012, 2373
0.103604, -36, 352, 2165, -44, -1012, 2373
0.103739, -1556, 309, 1687, -378, -1183, 2955
0.103874, -1556, 309, 1687, -378, -1183, 2955
0.104008, -1556, 309, 1687, -378, -1183, 2955
0.104143, -1556, 309, 1687, -378, -1183, 2955
0.104278, -1556, 309, 1687, -378, -1183, 2955
0.104413, -1556, 309, 1687, -378, -1183, 2955
0.104547, -1556, 309, 1687, -378, -1183, 2955
0.104682, -1341, 321, 1753, -549, -1249, 4185
0.104817, -1341, 321, 1753, -549, -1249, 4185
0.104952, -1341, 321, 1753, -549, -1249, 4185
0.105086, -1341, 321, 1753, -549, -1249, 4185
0.105221, -1341, 321, 1753, -549, -1249, 4185
0.105356, -1341, 321, 1753, -549, -1249, 4185
0.105490, -1341, 321, 1753, -549, -1249, 4185
0.105625, -1341, 321, 1753, -549, -1249, 4185
0.105760, 590, 344, 2114, -566, -1557, 4776
0.105894, 590, 344, 2114, -566, -1557, 4776
0.106024, 590, 344, 2114, -566, -1557, 4776
0.106159, 590, 344, 2114, -566, -1557, 4776
0.106294, 590, 344, 2114, -566, -1557, 4776
0.106429, 590, 344, 2114, -566, -1557, 4776
0.106565, 590, 344, 2114, -566, -1557, 4776
0.106699, 2913, 381, 2525, -477, -1959, 4025
0.106834, 2913, 381, 2525, -477, -1959, 4025
0.106969, 2913, 381, 2525, -477, -1959, 4025
0.107103, 2913, 381, 2525, -477, -1959, 4025
0.107238, 2913, 381, 2525, -477, -1959, 4025
0.107373, 2913, 381, 2525, -477, -1959, 4025
0.107503, 2913, 381, 2525, -477, -1959, 4025
0.107637, 2913, 381, 2525, -477, -1959, 4025
0.107772, 4518, 422, 2826, -221, -1985, 2015
0.107907, 4518, 422, 2826, -221, -1985, 2015
0.108041, 4518, 422, 2826, -221, -1985, 2015
0.108176, 4518, 422, 2826, -221, -1985, 2015
0.108310, 4518, 422, 2826, -221, -1985, 2015
0.108440, 4518, 422, 2826, -221, -1985, 2015
0.108575, 4518, 422, 2826, -221, -1985, 2015
0.108709, 4518, 422, 2826, -221, -1985, 2015
0.108845, 4671, 428, 2774, 273, -1399, -648
0.108980, 4671, 428, 2774, 273, -1399, -648
0.109115, 4671, 428, 2774, 273, -1399, -648
0.109251, 4671, 428, 2774, 273, -1399, -648
0.109389, 4671, 428, 2774, 273, -1399, -648
0.109528, 4671, 428, 2774, 273, -1399, -648
0.109663, 4671, 428, 2774, 273, -1399, -648
0.109799, 3772, 553, 2494, 979, -399, -3143
0.109936, 3772, 553, 2494, 979, -399, -3143
0.110072, 3772, 553, 2494, 979, -399, -3143
0.110207, 3772, 553, 2494, 979, -399, -3143
0.110340, 3772, 553, 2494, 979, -399, -3143
0.110477, 3772, 553, 2494, 979, -399, -3143
0.110611, 3772, 553, 2494, 979, -399, -3143
0.110746, 2268, 535, 2427, 1805, 704, -4967
0.110881, 2268, 535, 2427, 1805, 704, -4967
0.111016, 2268, 535, 2427, 1805, 704, -4967
0.111150, 2268, 535, 2427, 1805, 704, -4967
0.111285, 2268, 535, 2427, 1805, 704, -4967
0.111420, 2268, 535, 2427, 1805, 704, -4967
0.111554, 2268, 535, 2427, 1805, 704, -4967
0.111689, 2268, 535, 2427, 1805, 704, -4967
0.111824, -847, -30, 2141, 2574, 1778, -5490
0.111959, -847, -30, 2141, 2574, 1778, -5490
0.112093, -847, -30, 2141, 2574, 1778, -5490
0.112228, -847, -30, 2141, 2574, 1778, -5490
0.112363, -847, -30, 2141, 2574, 1778, -5490
0.112497, -847, -30, 2141, 2574, 1778, -5490
0.112632, -847, -30, 2141, 2574, 1778, -5490
0.112767, -847, -30, 2141, 2574, 1778, -5490
0.112901, -3092, -136, 1343, 2914, 2482, -4038
0.113036, -3092, -136, 1343, 2914, 2482, -4038
0.113171, -3092, -136, 1343, 2914, 2482, -4038
0.113305, -3092, -136, 1343, 2914, 2482, -4038
0.113440, -3092, -136, 1343, 2914, 2482, -4038
0.113575, -3092, -136, 1343, 2914, 2482, -4038
0.113725, -3092, -136, 1343, 2914, 2482, -4038
0.113862, -1495, 486, 1367, 2705, 2420, -2071
0.113997, -1495, 486, 1367, 2705, 2420, -2071
0.114132, -1495, 486, 1367, 2705, 2420, -2071
0.114267, -1495, 486, 1367, 2705, 2420, -2071
0.114401, -1495, 486, 1367, 2705, 2420, -2071
0.114536, -1495, 486, 1367, 2705, 2420, -2071
0.114671, -1495, 486, 1367, 2705, 2420, -2071
0.114805, 610, 708, 1853, 2242, 1972, -1567
0.114940, 610, 708, 1853, 2242, 1972, -1567
0.115075, 610, 708, 1853, 2242, 1972, -1567
0.115210, 610, 708, 1853, 2242, 1972, -1567
0.115344, 610, 708, 1853, 2242, 1972, -1567
0.115479, 610, 708, 1853, 2242, 1972, -1567
0.115614, 610, 708, 1853, 2242, 1972, -1567
0.115750, 610, 708, 1853, 2242, 1972, -1567
0.115885, -59, 440, 1609, 1695, 1673, -1829
0.116020, -59, 440, 1609, 1695, 1673, -1829
0.116155, -59, 440, 1609, 1695, 1673, -1829
0.116290, -59, 440, 1609, 1695, 1673, -1829
0.116424, -59, 440, 1609, 1695, 1673, -1829
0.116559, -59, 440, 1609, 1695, 1673, -1829
0.116694, -59, 440, 1609, 1695, 1673, -1829
0.116828, -2559, 142, 1161, 1123, 1501, -1081
0.116963, -2559, 142, 1161, 1123, 1501, -1081
0.117098, -2559, 142, 1161, 1123, 1501, -1081
0.117233, -2559, 142, 1161, 1123, 1501, -1081
0.117369, -2559, 142, 1161, 1123, 1501, -1081
0.117504, -2559, 142, 1161, 1123, 1501, -1081
0.117638, -2559, 142, 1161, 1123, 1501, -1081
0.117773, -2559, 142, 1161, 1123, 1501, -1081
0.117908, -4304, 51, 1096, 637, 1184, 1214
0.118042, -4304, 51, 1096, 637, 1184, 1214
0.118177, -4304, 51, 1096, 637, 1184, 1214
0.118312, -4304, 51, 1096, 637, 1184, 1214
0.118448, -4304, 51, 1096, 637, 1184, 1214
0.118583, -4304, 51, 1096, 637, 1184, 1214
0.118717, -4304, 51, 1096, 637, 1184, 1214
0.118852, -4304, 51, 1096, 637, 1184, 1214
0.118987, -3012, 258, 1609, 264, 292, 3897
0.119121, -3012, 258, 1609, 264, 292, 3897
0.119256, -3012, 258, 1609, 264, 292, 3897
0.119391, -3012, 258, 1609, 264, 292, 3897
0.119525, -3012, 258, 1609, 264, 292, 3897
0.119660, -3012, 258, 1609, 264, 292, 3897
0.119795, -3012, 258, 1609, 264, 292, 3897
0.119929, -29, 427, 2244, -2, -1054, 5180
0.120064, -29, 427, 2244, -2, -1054, 5180
0.120199, -29, 427, 2244, -2, -1054, 5180
0.120333, -29, 427, 2244, -2, -1054, 5180
0.120468, -29, 427, 2244, -2, -1054, 5180
0.120603, -29, 427, 2244, -2, -1054, 5180
0.120737, -29, 427, 2244, -2, -1054, 5180
0.120872, -29, 427, 2244, -2, -1054, 5180
0.121007, 2046, 426, 2562, -181, -2123, 4745
0.121142, 2046, 426, 2562, -181, -2123, 4745
0.121276, 2046, 426, 2562, -181, -2123, 4745
0.121411, 2046, 426, 2562, -181, -2123, 4745
0.121546, 2046, 426, 2562, -181, -2123, 4745
0.121680, 2046, 426, 2562, -181, -2123, 4745
0.121815, 2046, 426, 2562, -181, -2123, 4745
0.121950, 3411, 455, 2527, -196, -2624, 3288
0.122084, 3411, 455, 2527, -196, -2624, 3288
0.122219, 3411, 455, 2527, -196, -2624, 3288
0.122354, 3411, 455, 2527, -196, -2624, 3288
0.122489, 3411, 455, 2527, -196, -2624, 3288
0.122624, 3411, 455, 2527, -196, -2624, 3288
0.122759, 3411, 455, 2527, -196, -2624, 3288
0.122893, 3411, 455, 2527, -196, -2624, 3288
0.123028, 4348, 472, 2252, -23, -2587, 1058
0.123162, 4348, 472, 2252, -23, -2587, 1058
0.123297, 4348, 472, 2252, -23, -2587, 1058
0.123432, 4348, 472, 2252, -23, -2587, 1058
0.123566, 4348, 472, 2252, -23, -2587, 1058
0.123701, 4348, 472, 2252, -23, -2587, 1058
0.123836, 4348, 472, 2252, -23, -2587, 1058
0.123970, 3889, 310, 2226, 318, -2055, -1517
0.124105, 3889, 310, 2226, 318, -2055, -1517
0.124240, 3889, 310, 2226, 318, -2055, -1517
0.124374, 3889, 310, 2226, 318, -2055, -1517
0.124509, 3889, 310, 2226, 318, -2055, -1517
0.124644, 3889, 310, 2226, 318, -2055, -1517
0.124778, 3889, 310, 2226, 318, -2055, -1517
0.124913, 3889, 310, 2226, 318, -2055, -1517
0.125048, 1534, 92, 2388, 943, -1169, -3319
0.125182, 1534, 92, 2388, 943, -1169, -3319
0.125317, 1534, 92, 2388, 943, -1169, -3319
0.125452, 1534, 92, 2388, 943, -1169, -3319
0.125587, 1534, 92, 2388, 943, -1169, -3319
0.125721, 1534, 92, 2388, 943, -1169, -3319
0.125856, 1534, 92, 2388, 943, -1169, -3319
0.125990, -992, 47, 1945, 1667, -158, -3411
0.126125, -992, 47, 1945, 1667, -158, -3411
0.126265, -992, 47, 1945, 1667, -158, -3411
0.126401, -992, 47, 1945, 1667, -158, -3411
0.126536, -992, 47, 1945, 1667, -158, -3411
0.126671, -992, 47, 1945, 1667, -158, -3411
0.126805, -992, 47, 1945, 1667, -158, -3411
0.126940, -992, 47, 1945, 1667, -158, -3411
0.127074, -761, 217, 949, 1848, 517, -2457
0.127209, -761, 217, 949, 1848, 517, -2457
0.127344, -761, 217, 949, 1848, 517, -2457
0.127478, -761, 217, 949, 1848, 517, -2457
0.127608, -761, 217, 949, 1848, 517, -2457
0.127743, -761, 217, 949, 1848, 517, -2457
0.127879, -761, 217, 949, 1848, 517, -2457
0.128014, 1433, 610, 921, 1276, 721, -2302
0.128148, 1433, 610, 921, 1276, 721, -2302
0.128283, 1433, 610, 921, 1276, 721, -2302
0.128418, 1433, 610, 921, 1276, 721, -2302
0.128552, 1433, 610, 921, 1276, 721, -2302
0.128687, 1433, 610, 921, 1276, 721, -2302
0.128821, 1433, 610, 921, 1276, 721, -2302
0.128956, 1433, 610, 921, 1276, 721, -2302
0.129091, 1718, 725, 1848, 627, 1037, -3199
0.129225, 1718, 725, 1848, 627, 1037, -3199
0.129360, 1718, 725, 1848, 627, 1037, -3199
0.129495, 1718, 725, 1848, 627, 1037, -3199
0.129629, 1718, 725, 1848, 627, 1037, -3199
0.129764, 1718, 725, 1848, 627, 1037, -3199
0.129898, 1718, 725, 1848, 627, 1037, -3199
0.130033, 443, 349, 1589, 238, 1664, -3691
0.130168, 443, 349, 1589, 238, 1664, -3691
0.130302, 443, 349, 1589, 238, 1664, -3691
0.130437, 443, 349, 1589, 238, 1664, -3691
0.130578, 443, 349, 1589, 238, 1664, -3691
0.130713, 443, 349, 1589, 238, 1664, -3691
0.130847, 443, 349, 1589, 238, 1664, -3691
0.130982, 443, 349, 1589, 238, 1664, -3691
0.131117, 435, 168, 481, -286, 2044, -3601
0.131251, 435, 168, 481, -286, 2044, -3601
0.131386, 435, 168, 481, -286, 2044, -3601
0.131521, 435, 168, 481, -286, 2044, -3601
0.131656, 435, 168, 481, -286, 2044, -3601
0.131790, 435, 168, 481, -286, 2044, -3601
0.131925, 435, 168, 481, -286, 2044, -3601
0.132059, 247, 233, 1273, -870, 2064, -3681
0.132194, 247, 233, 1273, -870, 2064, -3681
0.132329, 247, 233, 1273, -870, 2064, -3681
0.132463, 247, 233, 1273, -870, 2064, -3681
0.132598, 247, 233, 1273, -870, 2064, -3681
0.132733, 247, 233, 1273, -870, 2064, -3681
0.132867, 247, 233, 1273, -870, 2064, -3681
0.133002, 247, 233, 1273, -870, 2064, -3681
0.133136, -1431, 295, 3446, -591, 2091, -3230
0.133271, -1431, 295, 3446, -591, 2091, -3230
0.133406, -1431, 295, 3446, -591, 2091, -3230
0.133541, -1431, 295, 3446, -591, 2091, -3230
0.133675, -1431, 295, 3446, -591, 2091, -3230
0.133810, -1431, 295, 3446, -591, 2091, -3230
0.133945, -1431, 295, 3446, -591, 2091, -3230
0.134079, -2301, 326, 3455, 574, 1953, -1719
0.134214, -2301, 326, 3455, 574, 1953, -1719
0.134349, -2301, 326, 3455, 574, 1953, -1719
0.134484, -2301, 326, 3455, 574, 1953, -1719
0.134619, -2301, 326, 3455, 574, 1953, -1719
0.134753, -2301, 326, 3455, 574, 1953, -1719
0.134888, -2301, 326, 3455, 574, 1953, -1719
0.135023, -2301, 326, 3455, 574, 1953, -1719
0.135157, -1518, 284, 1695, 1219, 1317, -195
0.135292, -1518, 284, 1695, 1219, 1317, -195
0.135427, -1518, 284, 1695, 1219, 1317, -195
0.135562, -1518, 284, 1695, 1219, 1317, -195
0.135696, -1518, 284, 1695, 1219, 1317, -195
0.135831, -1518, 284, 1695, 1219, 1317, -195
0.135965, -1518, 284, 1695, 1219, 1317, -195
0.136100, -238, 495, 1232, 852, 330, 553
0.136235, -238, 495, 1232, 852, 330, 553
0.136369, -238, 495, 1232, 852, 330, 553
0.136504, -238, 495, 1232, 852, 330, 553
0.136639, -238, 495, 1232, 852, 330, 553
0.136773, -238, 495, 1232, 852, 330, 553
0.136908, -238, 495, 1232, 852, 330, 553
0.137042, -238, 495, 1232, 852, 330, 553
0.137177, 605, 719, 2196, 326, -577, 579
0.137312, 605, 719, 2196, 326, -577, 579
0.137446, 605, 719, 2196, 326, -577, 579
0.137581, 605, 719, 2196, 326, -577, 579
0.137716, 605, 719, 2196, 326, -577, 579
0.137850, 605, 719, 2196, 326, -577, 579
0.137985, 605, 719, 2196, 326, -577, 579
0.138120, 203, 451, 2933, 448, -1048, 375
0.138254, 203, 451, 2933, 448, -1048, 375
0.138389, 203, 451, 2933, 448, -1048, 375
0.138524, 203, 451, 2933, 448, -1048, 375
0.138659, 203, 451, 2933, 448, -1048, 375
0.138793, 203, 451, 2933, 448, -1048, 375
0.138934, 203, 451, 2933, 448, -1048, 375
0.139069, 203, 451, 2933, 448, -1048, 375
0.139204, -377, 287, 2102, 941, -1134, 541
0.139339, -377, 287, 2102, 941, -1134, 541
0.139474, -377, 287, 2102, 941, -1134, 541
0.139608, -377, 287, 2102, 941, -1134, 541
0.139743, -377, 287, 2102, 941, -1134, 541
0.139878, -377, 287, 2102, 941, -1134, 541
0.140012, -377, 287, 2102, 941, -1134, 541
0.140147, 568, 564, 654, 707, -1135, 752
0.140282, 568, 564, 654, 707, -1135, 752
0.140416, 568, 564, 654, 707, -1135, 752
0.140551, 568, 564, 654, 707, -1135, 752
0.140685, 568, 564, 654, 707, -1135, 752
0.140820, 568, 564, 654, 707, -1135, 752
0.140955, 568, 564, 654, 707, -1135, 752
0.141090, 568, 564, 654, 707, -1135, 752
0.141224, 1491, 475, 886, -271, -1149, 226
0.141359, 1491, 475, 886, -271, -1149, 226
0.141494, 1491, 475, 886, -271, -1149, 226
0.141628, 1491, 475, 886, -271, -1149, 226
0.141763, 1491, 475, 886, -271, -1149, 226
0.141898, 1491, 475, 886, -271, -1149, 226
0.142032, 1491, 475, 886, -271, -1149, 226
0.142167, 754, 198, 2677, -624, -861, -412
0.142302, 754, 198, 2677, -624, -861, -412
0.142437, 754, 198, 2677, -624, -861, -412
0.142575, 754, 198, 2677, -624, -861, -412
0.142710, 754, 198, 2677, -624, -861, -412
0.142845, 754, 198, 2677, -624, -861, -412
0.142980, 754, 198, 2677, -624, -861, -412
0.143114, 754, 198, 2677, -624, -861, -412
0.143249, 1247, 619, 3177, 103, -305, -597
0.143384, 1247, 619, 3177, 103, -305, -597
0.143519, 1247, 619, 3177, 103, -305, -597
0.143653, 1247, 619, 3177, 103, -305, -597
0.143788, 1247, 619, 3177, 103, -305, -597
0.143923, 1247, 619, 3177, 103, -305, -597
0.144057, 1247, 619, 3177, 103, -305, -597
0.144192, 1247, 619, 3177, 103, -305, -597
0.144327, 2482, 718, 1783, 604, 192, -1587
0.144462, 2482, 718, 1783, 604, 192, -1587
0.144596, 2482, 718, 1783, 604, 192, -1587
0.144731, 2482, 718, 1783, 604, 192, -1587
0.144865, 2482, 718, 1783, 604, 192, -1587
0.145000, 2482, 718, 1783, 604, 192, -1587
0.145135, 2482, 718, 1783, 604, 192, -1587
0.145269, -1600, -349, 1405, 333, 799, -2432
0.145404, -1600, -349, 1405, 333, 799, -2432
0.145539, -1600, -349, 1405, 333, 799, -2432
0.145674, -1600, -349, 1405, 333, 799, -2432
0.145808, -1600, -349, 1405, 333, 799, -2432
0.145943, -1600, -349, 1405, 333, 799, -2432
0.146078, -1600, -349, 1405, 333, 799, -2432
0.146212, -1600, -349, 1405, 333, 799, -2432
0.146347, -5724, -635, 2386, 345, 1147, -183
0.146482, -5724, -635, 2386, 345, 1147, -183
0.146617, -5724, -635, 2386, 345, 1147, -183
0.146751, -5724, -635, 2386, 345, 1147, -183
0.146885, -5724, -635, 2386, 345, 1147, -183
0.147019, -5724, -635, 2386, 345, 1147, -183
0.147153, -5724, -635, 2386, 345, 1147, -183
0.147286, -2286, 332, 2771, 889, 516, 2930
0.147421, -2286, 332, 2771, 889, 516, 2930
0.147555, -2286, 332, 2771, 889, 516, 2930
0.147690, -2286, 332, 2771, 889, 516, 2930
0.147824, -2286, 332, 2771, 889, 516, 2930
0.147959, -2286, 332, 2771, 889, 516, 2930
0.148093, -2286, 332, 2771, 889, 516, 2930
0.148228, -2286, 332, 2771, 889, 516, 2930
0.148362, 1031, 578, 2438, 985, -506, 3239
0.148497, 1031, 578, 2438, 985, -506, 3239
0.148631, 1031, 578, 2438, 985, -506, 3239
0.148766, 1031, 578, 2438, 985, -506, 3239
0.148900, 1031, 578, 2438, 985, -506, 3239
0.149035, 1031, 578, 2438, 985, -506, 3239
0.149169, 1031, 578, 2438, 985, -506, 3239
0.149304, -59, 272, 2096, 491, -1012, 2667
0.149438, -59, 272, 2096, 491, -1012, 2667
0.149573, -59, 272, 2096, 491, -1012, 2667
0.149707, -59, 272, 2096, 491, -1012, 2667
0.149842, -59, 272, 2096, 491, -1012, 2667
0.149977, -59, 272, 2096, 491, -1012, 2667
0.150111, -59, 272, 2096, 491, -1012, 2667
0.150246, -59, 272, 2096, 491, -1012, 2667
0.150380, -54, 336, 1991, 65, -1144, 3034
0.150515, -54, 336, 1991, 65, -1144, 3034
0.150650, -54, 336, 1991, 65, -1144, 3034
0.150785, -54, 336, 1991, 65, -1144, 3034
0.150919, -54, 336, 1991, 65, -1144, 3034
0.151054, -54, 336, 1991, 65, -1144, 3034
0.151188, -54, 336, 1991, 65, -1144, 3034
0.151323, 2490, 519, 2268, 3, -1386, 2656
0.151458, 2490, 519, 2268, 3, -1386, 2656
0.151593, 2490, 519, 2268, 3, -1386, 2656
0.151727, 2490, 519, 2268, 3, -1386, 2656
0.151866, 2490, 519, 2268, 3, -1386, 2656
0.152002, 2490, 519, 2268, 3, -1386, 2656
0.152136, 2490, 519, 2268, 3, -1386, 2656
0.152271, 2490, 519, 2268, 3, -1386, 2656
0.152405, 5130, 752, 2986, 357, -1742, 403
0.152540, 5130, 752, 2986, 357, -1742, 403
0.152675, 5130, 752, 2986, 357, -1742, 403
0.152810, 5130, 752, 2986, 357, -1742, 403
0.152944, 5130, 752, 2986, 357, -1742, 403
0.153079, 5130, 752, 2986, 357, -1742, 403
0.153213, 5130, 752, 2986, 357, -1742, 403
0.153348, 4364, 705, 3742, 1200, -1478, -2731
0.153483, 4364, 705, 3742, 1200, -1478, -2731
0.153618, 4364, 705, 3742, 1200, -1478, -2731
0.153752, 4364, 705, 3742, 1200, -1478, -2731
0.153887, 4364, 705, 3742, 1200, -1478, -2731
0.154022, 4364, 705, 3742, 1200, -1478, -2731
0.154156, 4364, 705, 3742, 1200, -1478, -2731
0.154291, 4364, 705, 3742, 1200, -1478, -2731
0.154425, -591, 244, 3092, 2376, -233, -4124
0.154560, -591, 244, 3092, 2376, -233, -4124
0.154695, -591, 244, 3092, 2376, -233, -4124
0.154829, -591, 244, 3092, 2376, -233, -4124
0.154964, -591, 244, 3092, 2376, -233, -4124
0.155098, -591, 244, 3092, 2376, -233, -4124
0.155233, -591, 244, 3092, 2376, -233, -4124
0.155367, -3787, 151, 1530, 3254, 909, -2446
0.155502, -3787, 151, 1530, 3254, 909, -2446
0.155637, -3787, 151, 1530, 3254, 909, -2446
0.155771, -3787, 151, 1530, 3254, 909, -2446
0.155906, -3787, 151, 1530, 3254, 909, -2446
0.156040, -3787, 151, 1530, 3254, 909, -2446
0.156175, -3787, 151, 1530, 3254, 909, -2446
0.156309, -3787, 151, 1530, 3254, 909, -2446
0.156444, -1510, 879, 2030, 3597, 972, -138
0.156578, -1510, 879, 2030, 3597, 972, -138
0.156713, -1510, 879, 2030, 3597, 972, -138
0.156848, -1510, 879, 2030, 3597, 972, -138
0.156982, -1510, 879, 2030, 3597, 972, -138
0.157117, -1510, 879, 2030, 3597, 972, -138
0.157251, -1510, 879, 2030, 3597, 972, -138
0.157386, 3634, 1902, 4158, 4121, 401, -185
0.157520, 3634, 1902, 4158, 4121, 401, -185
0.157655, 3634, 1902, 4158, 4121, 401, -185
0.157789, 3634, 1902, 4158, 4121, 401, -185
0.157924, 3634, 1902, 4158, 4121, 401, -185
0.158058, 3634, 1902, 4158, 4121, 401, -185
0.158193, 3634, 1902, 4158, 4121, 401, -185
0.158327, 3634, 1902, 4158, 4121, 401, -185
0.158462, 5508, 802, 2370, 4450, 151, -2933
0.158597, 5508, 802, 2370, 4450, 151, -2933
0.158732, 5508, 802, 2370, 4450, 151, -2933
0.158866, 5508, 802, 2370, 4450, 151, -2933
0.159001, 5508, 802, 2370, 4450, 151, -2933
0.159135, 5508, 802, 2370, 4450, 151, -2933
0.159270, 5508, 802, 2370, 4450, 151, -2933
0.159404, -170, -1211, -2339, 2886, 709, -5140
0.159539, -170, -1211, -2339, 2886, 709, -5140
0.159674, -170, -1211, -2339, 2886, 709, -5140
0.159809, -170, -1211, -2339, 2886, 709, -5140
0.159944, -170, -1211, -2339, 2886, 709, -5140
0.160080, -170, -1211, -2339, 2886, 709, -5140
0.160215, -170, -1211, -2339, 2886, 709, -5140
0.160350, -170, -1211, -2339, 2886, 709, -5140
0.160484, -6056, -486, -1451, 617, 1548, -3253
0.160619, -6056, -486, -1451, 617, 1548, -3253
0.160754, -6056, -486, -1451, 617, 1548, -3253
0.160889, -6056, -486, -1451, 617, 1548, -3253
0.161023, -6056, -486, -1451, 617, 1548, -3253
0.161158, -6056, -486, -1451, 617, 1548, -3253
0.161292, -6056, -486, -1451, 617, 1548, -3253
0.161427, -5195, 496, 2784, 239, 1788, 853
0.161562, -5195, 496, 2784, 239, 1788, 853
0.161696, -5195, 496, 2784, 239, 1788, 853
0.161831, -5195, 496, 2784, 239, 1788, 853
0.161966, -5195, 496, 2784, 239, 1788, 853
0.162100, -5195, 496, 2784, 239, 1788, 853
0.162235, -5195, 496, 2784, 239, 1788, 853
0.162370, -5195, 496, 2784, 239, 1788, 853
0.162505, -1899, 161, 3308, 912, 1103, 3368
0.162640, -1899, 161, 3308, 912, 1103, 3368
0.162774, -1899, 161, 3308, 912, 1103, 3368
0.162909, -1899, 161, 3308, 912, 1103, 3368
0.163043, -1899, 161, 3308, 912, 1103, 3368
0.163178, -1899, 161, 3308, 912, 1103, 3368
0.163313, -1899, 161, 3308, 912, 1103, 3368
0.163447, -1899, 161, 3308, 912, 1103, 3368
0.163582, 29, 129, 2097, 894, -87, 3974
0.163717, 29, 129, 2097, 894, -87, 3974
0.163851, 29, 129, 2097, 894, -87, 3974
0.163986, 29, 129, 2097, 894, -87, 3974
0.164121, 29, 129, 2097, 894, -87, 3974
0.164264, 29, 129, 2097, 894, -87, 3974
0.164400, 29, 129, 2097, 894, -87, 3974
0.164535, 2046, 441, 2345, 285, -797, 3583
0.164670, 2046, 441, 2345, 285, -797, 3583
0.164804, 2046, 441, 2345, 285, -797, 3583
0.164939, 2046, 441, 2345, 285, -797, 3583
0.165074, 2046, 441, 2345, 285, -797, 3583
0.165208, 2046, 441, 2345, 285, -797, 3583
0.165343, 2046, 441, 2345, 285, -797, 3583
0.165477, 2046, 441, 2345, 285, -797, 3583
0.165612, 5004, 854, 3194, 85, -1248, 1637
0.165747, 5004, 854, 3194, 85, -1248, 1637
0.165882, 5004, 854, 3194, 85, -1248, 1637
0.166016, 5004, 854, 3194, 85, -1248, 1637
0.166151, 5004, 854, 3194, 85, -1248, 1637
0.166286, 5004, 854, 3194, 85, -1248, 1637
0.166420, 5004, 854, 3194, 85, -1248, 1637
0.166555, 5266, 806, 3075, 738, -1835, -2061
0.166689, 5266, 806, 3075, 738, -1835, -2061
0.166824, 5266, 806, 3075, 738, -1835, -2061
0.166958, 5266, 806, 3075, 738, -1835, -2061
0.167093, 5266, 806, 3075, 738, -1835, -2061
0.167227, 5266, 806, 3075, 738, -1835, -2061
0.167362, 5266, 806, 3075, 738, -1835, -2061
0.167496, 5266, 806, 3075, 738, -1835, -2061
0.167630, -1239, -94, 1878, 1495, -1432, -4264
0.167765, -1239, -94, 1878, 1495, -1432, -4264
0.167900, -1239, -94, 1878, 1495, -1432, -4264
0.168034, -1239, -94, 1878, 1495, -1432, -4264
0.168168, -1239, -94, 1878, 1495, -1432, -4264
0.168303, -1239, -94, 1878, 1495, -1432, -4264
0.168437, -1239, -94, 1878, 1495, -1432, -4264
0.168572, -7805, -540, 432, 1637, -371, -1370
0.168707, -7805, -540, 432, 1637, -371, -1370
0.168841, -7805, -540, 432, 1637, -371, -1370
0.168976, -7805, -540, 432, 1637, -371, -1370
0.169110, -7805, -540, 432, 1637, -371, -1370
0.169245, -7805, -540, 432, 1637, -371, -1370
0.169379, -7805, -540, 432, 1637, -371, -1370
0.169514, -7805, -540, 432, 1637, -371, -1370
0.169648, -5636, 129, 363, 1122, -331, 3883
0.169783, -5636, 129, 363, 1122, -331, 3883
0.169917, -5636, 129, 363, 1122, -331, 3883
0.170052, -5636, 129, 363, 1122, -331, 3883
0.170186, -5636, 129, 363, 1122, -331, 3883
0.170320, -5636, 129, 363, 1122, -331, 3883
0.170455, -5636, 129, 363, 1122, -331, 3883
0.170594, -391, 582, 1902, 296, -1033, 6319
0.170729, -391, 582, 1902, 296, -1033, 6319
0.170864, -391, 582, 1902, 296, -1033, 6319
0.170998, -391, 582, 1902, 296, -1033, 6319
0.171133, -391, 582, 1902, 296, -1033, 6319
0.171267, -391, 582, 1902, 296, -1033, 6319
0.171402, -391, 582, 1902, 296, -1033, 6319
0.171537, -391, 582, 1902, 296, -1033, 6319
0.171671, 1027, 499, 2679, -522, -1327, 6160
0.171807, 1027, 499, 2679, -522, -1327, 6160
0.171941, 1027, 499, 2679, -522, -1327, 6160
0.172076, 1027, 499, 2679, -522, -1327, 6160
0.172211, 1027, 499, 2679, -522, -1327, 6160
0.172345, 1027, 499, 2679, -522, -1327, 6160
0.172480, 1027, 499, 2679, -522, -1327, 6160
0.172614, 709, 419, 2276, -1158, -1043, 5824
0.172749, 709, 419, 2276, -1158, -1043, 5824
0.172884, 709, 419, 2276, -1158, -1043, 5824
0.173019, 709, 419, 2276, -1158, -1043, 5824
0.173153, 709, 419, 2276, -1158, -1043, 5824
0.173288, 709, 419, 2276, -1158, -1043, 5824
0.173423, 709, 419, 2276, -1158, -1043, 5824
0.173557, 709, 419, 2276, -1158, -1043, 5824
0.173692, 819, 384, 2099, -1411, -574, 5515
0.173827, 819, 384, 2099, -1411, -574, 5515
0.173961, 819, 384, 2099, -1411, -574, 5515
0.174096, 819, 384, 2099, -1411, -574, 5515
0.174231, 819, 384, 2099, -1411, -574, 5515
0.174365, 819, 384, 2099, -1411, -574, 5515
0.174500, 819, 384, 2099, -1411, -574, 5515
0.174635, 1212, 361, 2191, -1316, -402, 4875
0.174770, 1212, 361, 2191, -1316, -402, 4875
0.174904, 1212, 361, 2191, -1316, -402, 4875
0.175039, 1212, 361, 2191, -1316, -402, 4875
0.175174, 1212, 361, 2191, -1316, -402, 4875
0.175308, 1212, 361, 2191, -1316, -402, 4875
0.175443, 1212, 361, 2191, -1316, -402, 4875
0.175577, 1212, 361, 2191, -1316, -402, 4875
0.175712, 1751, 338, 2239, -1107, -636, 3980
0.175847, 1751, 338, 2239, -1107, -636, 3980
0.175981, 1751, 338, 2239, -1107, -636, 3980
0.176116, 1751, 338, 2239, -1107, -636, 3980
0.176251, 1751, 338, 2239, -1107, -636, 3980
0.176385, 1751, 338, 2239, -1107, -636, 3980
0.176520, 1751, 338, 2239, -1107, -636, 3980
0.176659, 2458, 366, 2346, -870, -843, 2812
0.176796, 2458, 366, 2346, -870, -843, 2812
0.176931, 2458, 366, 2346, -870, -843, 2812
0.177066, 2458, 366, 2346, -870, -843, 2812
0.177200, 2458, 366, 2346, -870, -843, 2812
0.177335, 2458, 366, 2346, -870, -843, 2812
0.177469, 2458, 366, 2346, -870, -843, 2812
0.177604, 2458, 366, 2346, -870, -843, 2812
0.177739, 3508, 492, 2476, -562, -668, 1194
0.177873, 3508, 492, 2476, -562, -668, 1194
0.178008, 3508, 492, 2476, -562, -668, 1194
0.178143, 3508, 492, 2476, -562, -668, 1194
0.178277, 3508, 492, 2476, -562, -668, 1194
0.178412, 3508, 492, 2476, -562, -668, 1194
0.178547, 3508, 492, 2476, -562, -668, 1194
0.178682, 4365, 665, 2485, -162, -100, -1065
0.178816, 4365, 665, 2485, -162, -100, -1065
0.178951, 4365, 665, 2485, -162, -100, -1065
0.179086, 4365, 665, 2485, -162, -100, -1065
0.179220, 4365, 665, 2485, -162, -100, -1065
0.179355, 4365, 665, 2485, -162, -100, -1065
0.179490, 4365, 665, 2485, -162, -100, -1065
0.179624, 4365, 665, 2485, -162, -100, -1065
0.179759, 3586, 684, 2135, 216, 827, -3509
0.179894, 3586, 684, 2135, 216, 827, -3509
0.180029, 3586, 684, 2135, 216, 827, -3509
0.180163, 3586, 684, 2135, 216, 827, -3509
0.180298, 3586, 684, 2135, 216, 827, -3509
0.180432, 3586, 684, 2135, 216, 827, -3509
0.180567, 3586, 684, 2135, 216, 827, -3509
0.180702, 1725, 478, 1177, 288, 1857, -5094
0.180836, 1725, 478, 1177, 288, 1857, -5094
0.180971, 1725, 478, 1177, 288, 1857, -5094
0.181106, 1725, 478, 1177, 288, 1857, -5094
0.181240, 1725, 478, 1177, 288, 1857, -5094
0.181375, 1725, 478, 1177, 288, 1857, -5094
0.181510, 1725, 478, 1177, 288, 1857, -5094
0.181644, 1725, 478, 1177, 288, 1857, -5094
0.181779, 66, 239, 312, -259, 2618, -5519
0.181914, 66, 239, 312, -259, 2618, -5519
0.182048, 66, 239, 312, -259, 2618, -5519
0.182183, 66, 239, 312, -259, 2618, -5519
0.182318, 66, 239, 312, -259, 2618, -5519
0.182453, 66, 239, 312, -259, 2618, -5519
0.182587, 66, 239, 312, -259, 2618, -5519
0.182722, -1929, 1, 1112, -958, 3067, -4914
0.182857, -1929, 1, 1112, -958, 3067, -4914
0.182991, -1929, 1, 1112, -958, 3067, -4914
0.183126, -1929, 1, 1112, -958, 3067, -4914
0.183261, -1929, 1, 1112, -958, 3067, -4914
0.183395, -1929, 1, 1112, -958, 3067, -4914
0.183530, -1929, 1, 1112, -958, 3067, -4914
0.183664, -1929, 1, 1112, -958, 3067, -4914
0.183799, -3487, 85, 2631, -795, 3209, -2997
0.183934, -3487, 85, 2631, -795, 3209, -2997
0.184069, -3487, 85, 2631, -795, 3209, -2997
0.184203, -3487, 85, 2631, -795, 3209, -2997
0.184338, -3487, 85, 2631, -795, 3209, -2997
0.184473, -3487, 85, 2631, -795, 3209, -2997
0.184607, -3487, 85, 2631, -795, 3209, -2997
0.184742, -2772, 461, 2418, -233, 2890, -519
0.184877, -2772, 461, 2418, -233, 2890, -519
0.185011, -2772, 461, 2418, -233, 2890, -519
0.185146, -2772, 461, 2418, -233, 2890, -519
0.185281, -2772, 461, 2418, -233, 2890, -519
0.185415, -2772, 461, 2418, -233, 2890, -519
0.185550, -2772, 461, 2418, -233, 2890, -519
0.185684, -2772, 461, 2418, -233, 2890, -519
0.185819, -1335, 462, 1800, -367, 2140, 996
0.185954, -1335, 462, 1800, -367, 2140, 996
0.186088, -1335, 462, 1800, -367, 2140, 996
0.186223, -1335, 462, 1800, -367, 2140, 996
0.186358, -1335, 462, 1800, -367, 2140, 996
0.186493, -1335, 462, 1800, -367, 2140, 996
0.186627, -1335, 462, 1800, -367, 2140, 996
0.186762, -1335, 462, 1800, -367, 2140, 996
0.186897, -1809, 296, 2145, -834, 1303, 1877
0.187032, -1809, 296, 2145, -834, 1303, 1877
0.187166, -1809, 296, 2145, -834, 1303, 1877
0.187301, -1809, 296, 2145, -834, 1303, 1877
0.187436, -1809, 296, 2145, -834, 1303, 1877
0.187570, -1809, 296, 2145, -834, 1303, 1877
0.187705, -1809, 296, 2145, -834, 1303, 1877
0.187840, -2620, 309, 2226, -1071, 486, 3335
0.187974, -2620, 309, 2226, -1071, 486, 3335
0.188109, -2620, 309, 2226, -1071, 486, 3335
0.188244, -2620, 309, 2226, -1071, 486, 3335
0.188378, -2620, 309, 2226, -1071, 486, 3335
0.188513, -2620, 309, 2226, -1071, 486, 3335
0.188648, -2620, 309, 2226, -1071, 486, 3335
0.188782, -2620, 309, 2226, -1071, 486, 3335
0.188917, -1658, 331, 2026, -1170, -523, 4871
0.189052, -1658, 331, 2026, -1170, -523, 4871
0.189190, -1658, 331, 2026, -1170, -523, 4871
0.189325, -1658, 331, 2026, -1170, -523, 4871
0.189460, -1658, 331, 2026, -1170, -523, 4871
0.189595, -1658, 331, 2026, -1170, -523, 4871
0.189729, -1658, 331, 2026, -1170, -523, 4871
0.189864, -167, 367, 2099, -1279, -1531, 5494
0.189999, -167, 367, 2099, -1279, -1531, 5494
0.190133, -167, 367, 2099, -1279, -1531, 5494
0.190268, -167, 367, 2099, -1279, -1531, 5494
0.190403, -167, 367, 2099, -1279, -1531, 5494
0.190538, -167, 367, 2099, -1279, -1531, 5494
0.190672, -167, 367, 2099, -1279, -1531, 5494
0.190807, -167, 367, 2099, -1279, -1531, 5494
0.190941, 397, 408, 2220, -1482, -2139, 5432
0.191076, 397, 408, 2220, -1482, -2139, 5432
0.191211, 397, 408, 2220, -1482, -2139, 5432
0.191346, 397, 408, 2220, -1482, -2139, 5432
0.191480, 397, 408, 2220, -1482, -2139, 5432
0.191615, 397, 408, 2220, -1482, -2139, 5432
0.191750, 397, 408, 2220, -1482, -2139, 5432
0.191884, 422, 400, 2201, -1682, -2359, 5271
0.192019, 422, 400, 2201, -1682, -2359, 5271
0.192154, 422, 400, 2201, -1682, -2359, 5271
0.192288, 422, 400, 2201, -1682, -2359, 5271
0.192423, 422, 400, 2201, -1682, -2359, 5271
0.192557, 422, 400, 2201, -1682, -2359, 5271
0.192692, 422, 400, 2201, -1682, -2359, 5271
0.192827, 422, 400, 2201, -1682, -2359, 5271
0.192961, 708, 381, 2193, -1733, -2329, 5035
0.193096, 708, 381, 2193, -1733, -2329, 5035
0.193231, 708, 381, 2193, -1733, -2329, 5035
0.193365, 708, 381, 2193, -1733, -2329, 5035
0.193500, 708, 381, 2193, -1733, -2329, 5035
0.193634, 708, 381, 2193, -1733, -2329, 5035
0.193769, 708, 381, 2193, -1733, -2329, 5035
0.193904, 1286, 339, 2318, -1659, -2112, 4514
0.194038, 1286, 339, 2318, -1659, -2112, 4514
0.194173, 1286, 339, 2318, -1659, -2112, 4514
0.194308, 1286, 339, 2318, -1659, -2112, 4514
0.194445, 1286, 339, 2318, -1659, -2112, 4514
0.194580, 1286, 339, 2318, -1659, -2112, 4514
0.194715, 1286, 339, 2318, -1659, -2112, 4514
0.194850, 1286, 339, 2318, -1659, -2112, 4514
0.194984, 1924, 329, 2657, -1456, -1800, 3625
0.195119, 1924, 329, 2657, -1456, -1800, 3625
0.195254, 1924, 329, 2657, -1456, -1800, 3625
0.195388, 1924, 329, 2657, -1456, -1800, 3625
0.195523, 1924, 329, 2657, -1456, -1800, 3625
0.195657, 1924, 329, 2657, -1456, -1800, 3625
0.195792, 1924, 329, 2657, -1456, -1800, 3625
0.195926, 2184, 383, 2909, -1028, -1346, 2415
0.196061, 2184, 383, 2909, -1028, -1346, 2415
0.196195, 2184, 383, 2909, -1028, -1346, 2415
0.196330, 2184, 383, 2909, -1028, -1346, 2415
0.196464, 2184, 383, 2909, -1028, -1346, 2415
0.196599, 2184, 383, 2909, -1028, -1346, 2415
0.196733, 2184, 383, 2909, -1028, -1346, 2415
0.196867, 2184, 383, 2909, -1028, -1346, 2415
0.197002, 1669, 285, 2449, -576, -675, 1241
0.197137, 1669, 285, 2449, -576, -675, 1241
0.197271, 1669, 285, 2449, -576, -675, 1241
0.197405, 1669, 285, 2449, -576, -675, 1241
0.197540, 1669, 285, 2449, -576, -675, 1241
0.197674, 1669, 285, 2449, -576, -675, 1241
0.197809, 1669, 285, 2449, -576, -675, 1241
0.197943, 442, 112, 1619, -446, 100, 572
0.198078, 442, 112, 1619, -446, 100, 572
0.198212, 442, 112, 1619, -446, 100, 572
0.198347, 442, 112, 1619, -446, 100, 572
0.198481, 442, 112, 1619, -446, 100, 572
0.198616, 442, 112, 1619, -446, 100, 572
0.198751, 442, 112, 1619, -446, 100, 572
0.198885, 442, 112, 1619, -446, 100, 572
0.199020, -1298, 178, 1102, -679, 768, 794
0.199155, -1298, 178, 1102, -679, 768, 794
0.199290, -1298, 178, 1102, -679, 768, 794
0.199424, -1298, 178, 1102, -679, 768, 794
0.199559, -1298, 178, 1102, -679, 768, 794
0.199693, -1298, 178, 1102, -679, 768, 794
0.199828, -1298, 178, 1102, -679, 768, 794
0.199963, -2007, 362, 1173, -1129, 1090, 2014
0.200098, -2007, 362, 1173, -1129, 1090, 2014
0.200232, -2007, 362, 1173, -1129, 1090, 2014
0.200367, -2007, 362, 1173, -1129, 1090, 2014
0.200502, -2007, 362, 1173, -1129, 1090, 2014
0.200636, -2007, 362, 1173, -1129, 1090, 2014
0.200771, -2007, 362, 1173, -1129, 1090, 2014
0.200906, -2007, 362, 1173, -1129, 1090, 2014
0.201040, -703, 413, 1756, -1533, 974, 3253
0.201175, -703, 413, 1756, -1533, 974, 3253
0.201310, -703, 413, 1756, -1533, 974, 3253
0.201449, -703, 413, 1756, -1533, 974, 3253
0.201584, -703, 413, 1756, -1533, 974, 3253
0.201718, -703, 413, 1756, -1533, 974, 3253
0.201853, -703, 413, 1756, -1533, 974, 3253
0.201988, 413, 391, 2139, -1774, 749, 3561
0.202122, 413, 391, 2139, -1774, 749, 3561
0.202257, 413, 391, 2139, -1774, 749, 3561
0.202392, 413, 391, 2139, -1774, 749, 3561
0.202527, 413, 391, 2139, -1774, 749, 3561
0.202662, 413, 391, 2139, -1774, 749, 3561
0.202796, 413, 391, 2139, -1774, 749, 3561
0.202931, 413, 391, 2139, -1774, 749, 3561
0.203066, 308, 385, 2102, -1961, 671, 3488
0.203201, 308, 385, 2102, -1961, 671, 3488
0.203335, 308, 385, 2102, -1961, 671, 3488
0.203470, 308, 385, 2102, -1961, 671, 3488
0.203605, 308, 385, 2102, -1961, 671, 3488
0.203739, 308, 385, 2102, -1961, 671, 3488
0.203874, 308, 385, 2102, -1961, 671, 3488
0.204008, 215, 365, 2036, -2053, 546, 3539
0.204143, 215, 365, 2036, -2053, 546, 3539
0.204278, 215, 365, 2036, -2053, 546, 3539
0.204413, 215, 365, 2036, -2053, 546, 3539
0.204547, 215, 365, 2036, -2053, 546, 3539
0.204682, 215, 365, 2036, -2053, 546, 3539
0.204816, 215, 365, 2036, -2053, 546, 3539
0.204951, 215, 365, 2036, -2053, 546, 3539
0.205086, -69, 348, 1950, -2028, 259, 3585
0.205221, -69, 348, 1950, -2028, 259, 3585
0.205355, -69, 348, 1950, -2028, 259, 3585
0.205490, -69, 348, 1950, -2028, 259, 3585
0.205624, -69, 348, 1950, -2028, 259, 3585
0.205759, -69, 348, 1950, -2028, 259, 3585
0.205894, -69, 348, 1950, -2028, 259, 3585
0.206028, -483, 354, 1816, -2027, -138, 3839
0.206163, -483, 354, 1816, -2027, -138, 3839
0.206298, -483, 354, 1816, -2027, -138, 3839
0.206433, -483, 354, 1816, -2027, -138, 3839
0.206568, -483, 354, 1816, -2027, -138, 3839
0.206702, -483, 354, 1816, -2027, -138, 3839
0.206837, -483, 354, 1816, -2027, -138, 3839
0.206972, -483, 354, 1816, -2027, -138, 3839
0.207106, -1, 350, 1865, -2088, -577, 4201
0.207241, -1, 350, 1865, -2088, -577, 4201
0.207376, -1, 350, 1865, -2088, -577, 4201
0.207510, -1, 350, 1865, -2088, -577, 4201
0.207645, -1, 350, 1865, -2088, -577, 4201
0.207780, -1, 350, 1865, -2088, -577, 4201
0.207914, -1, 350, 1865, -2088, -577, 4201
0.208049, -1, 350, 1865, -2088, -577, 4201
0.208184, 1026, 333, 2042, -2168, -861, 4120
0.208318, 1026, 333, 2042, -2168, -861, 4120
0.208453, 1026, 333, 2042, -2168, -861, 4120
0.208588, 1026, 333, 2042, -2168, -861, 4120
0.208722, 1026, 333, 2042, -2168, -861, 4120
0.208857, 1026, 333, 2042, -2168, -861, 4120
0.208992, 1026, 333, 2042, -2168, -861, 4120
0.209126, 2942, 349, 2252, -2223, -948, 3261
0.209261, 2942, 349, 2252, -2223, -948, 3261
0.209396, 2942, 349, 2252, -2223, -948, 3261
0.209530, 2942, 349, 2252, -2223, -948, 3261
0.209665, 2942, 349, 2252, -2223, -948, 3261
0.209801, 2942, 349, 2252, -2223, -948, 3261
0.209935, 2942, 349, 2252, -2223, -948, 3261
0.210070, 2942, 349, 2252, -2223, -948, 3261
0.210205, 6230, 442, 2681, -2107, -872, 846
0.210340, 6230, 442, 2681, -2107, -872, 846
0.210475, 6230, 442, 2681, -2107, -872, 846
0.210610, 6230, 442, 2681, -2107, -872, 846
0.210744, 6230, 442, 2681, -2107, -872, 846
0.210879, 6230, 442, 2681, -2107, -872, 846
0.211014, 6230, 442, 2681, -2107, -872, 846
0.211148, 7786, 500, 3189, -1643, -325, -3451
0.211283, 7786, 500, 3189, -1643, -325, -3451
0.211418, 7786, 500, 3189, -1643, -325, -3451
0.211553, 7786, 500, 3189, -1643, -325, -3451
0.211687, 7786, 500, 3189, -1643, -325, -3451
0.211822, 7786, 500, 3189, -1643, -325, -3451
0.211957, 7786, 500, 3189, -1643, -325, -3451
0.212091, 7786, 500, 3189, -1643, -325, -3451
0.212226, 5502, 53, 3000, -774, 858, -7824
0.212361, 5502, 53, 3000, -774, 858, -7824
0.212495, 5502, 53, 3000, -774, 858, -7824
0.212630, 5502, 53, 3000, -774, 858, -7824
0.212765, 5502, 53, 3000, -774, 858, -7824
0.212899, 5502, 53, 3000, -774, 858, -7824
0.213034, 5502, 53, 3000, -774, 858, -7824
0.213169, 1956, -481, 1824, 175, 2191, -10321
0.213304, 1956, -481, 1824, 175, 2191, -10321
0.213438, 1956, -481, 1824, 175, 2191, -10321
0.213573, 1956, -481, 1824, 175, 2191, -10321
0.213708, 1956, -481, 1824, 175, 2191, -10321
0.213842, 1956, -481, 1824, 175, 2191, -10321
0.213983, 1956, -481, 1824, 175, 2191, -10321
0.214118, 1956, -481, 1824, 175, 2191, -10321
0.214253, -206, 125, 574, 596, 3126, -10887
0.214388, -206, 125, 574, 596, 3126, -10887
0.214523, -206, 125, 574, 596, 3126, -10887
0.214658, -206, 125, 574, 596, 3126, -10887
0.214792, -206, 125, 574, 596, 3126, -10887
0.214927, -206, 125, 574, 596, 3126, -10887
0.215061, -206, 125, 574, 596, 3126, -10887
0.215196, -625, 904, 358, 298, 3644, -10406
0.215330, -625, 904, 358, 298, 3644, -10406
0.215465, -625, 904, 358, 298, 3644, -10406
0.215599, -625, 904, 358, 298, 3644, -10406
0.215734, -625, 904, 358, 298, 3644, -10406
0.215868, -625, 904, 358, 298, 3644, -10406
0.216003, -625, 904, 358, 298, 3644, -10406
0.216137, -625, 904, 358, 298, 3644, -10406
0.216272, -1150, 551, 1051, -311, 4001, -9627
0.216407, -1150, 551, 1051, -311, 4001, -9627
0.216541, -1150, 551, 1051, -311, 4001, -9627
0.216676, -1150, 551, 1051, -311, 4001, -9627
0.216810, -1150, 551, 1051, -311, 4001, -9627
0.216945, -1150, 551, 1051, -311, 4001, -9627
0.217079, -1150, 551, 1051, -311, 4001, -9627
0.217214, -3933, -44, 1733, -756, 4401, -7949
0.217349, -3933, -44, 1733, -756, 4401, -7949
0.217483, -3933, -44, 1733, -756, 4401, -7949
0.217618, -3933, -44, 1733, -756, 4401, -7949
0.217752, -3933, -44, 1733, -756, 4401, -7949
0.217887, -3933, -44, 1733, -756, 4401, -7949
0.218021, -3933, -44, 1733, -756, 4401, -7949
0.218156, -3933, -44, 1733, -756, 4401, -7949
0.218291, -6050, -6, 2342, -779, 4549, -4368
0.218425, -6050, -6, 2342, -779, 4549, -4368
0.218560, -6050, -6, 2342, -779, 4549, -4368
0.218695, -6050, -6, 2342, -779, 4549, -4368
0.218829, -6050, -6, 2342, -779, 4549, -4368
0.218964, -6050, -6, 2342, -779, 4549, -4368
0.219099, -6050, -6, 2342, -779, 4549, -4368
0.219233, -3858, 441, 2625, -510, 3775, -529
0.219368, -3858, 441, 2625, -510, 3775, -529
0.219502, -3858, 441, 2625, -510, 3775, -529
0.219637, -3858, 441, 2625, -510, 3775, -529
0.219771, -3858, 441, 2625, -510, 3775, -529
0.219906, -3858, 441, 2625, -510, 3775, -529
0.220041, -3858, 441, 2625, -510, 3775, -529
0.220175, -3858, 441, 2625, -510, 3775, -529
0.220310, -525, 572, 2507, -467, 2146, 1208
0.220444, -525, 572, 2507, -467, 2146, 1208
0.220579, -525, 572, 2507, -467, 2146, 1208
0.220714, -525, 572, 2507, -467, 2146, 1208
0.220848, -525, 572, 2507, -467, 2146, 1208
0.220983, -525, 572, 2507, -467, 2146, 1208
0.221118, -525, 572, 2507, -467, 2146, 1208
0.221252, 1363, 451, 2622, -655, 385, 1086
0.221387, 1363, 451, 2622, -655, 385, 1086
0.221522, 1363, 451, 2622, -655, 385, 1086
0.221657, 1363, 451, 2622, -655, 385, 1086
0.221791, 1363, 451, 2622, -655, 385, 1086
0.221926, 1363, 451, 2622, -655, 385, 1086
0.222061, 1363, 451, 2622, -655, 385, 1086
0.222195, 1363, 451, 2622, -655, 385, 1086
0.222330, 2669, 465, 2902, -533, -927, 7
0.222465, 2669, 465, 2902, -533, -927, 7
0.222600, 2669, 465, 2902, -533, -927, 7
0.222735, 2669, 465, 2902, -533, -927, 7
0.222869, 2669, 465, 2902, -533, -927, 7
0.223004, 2669, 465, 2902, -533, -927, 7
0.223139, 2669, 465, 2902, -533, -927, 7
0.223273, 2445, 429, 2750, 42, -1516, -1625
0.223408, 2445, 429, 2750, 42, -1516, -1625
0.223543, 2445, 429, 2750, 42, -1516, -1625
0.223677, 2445, 429, 2750, 42, -1516, -1625
0.223812, 2445, 429, 2750, 42, -1516, -1625
0.223947, 2445, 429, 2750, 42, -1516, -1625
0.224081, 2445, 429, 2750, 42, -1516, -1625
0.224216, 2445, 429, 2750, 42, -1516, -1625
0.224351, 384, 287, 1889, 664, -1491, -2665
0.224485, 384, 287, 1889, 664, -1491, -2665
0.224620, 384, 287, 1889, 664, -1491, -2665
0.224755, 384, 287, 1889, 664, -1491, -2665
0.224890, 384, 287, 1889, 664, -1491, -2665
0.225024, 384, 287, 1889, 664, -1491, -2665
0.225159, 384, 287, 1889, 664, -1491, -2665
0.225293, -1094, 226, 1264, 885, -1176, -2314
0.225428, -1094, 226, 1264, 885, -1176, -2314
0.225563, -1094, 226, 1264, 885, -1176, -2314
0.225698, -1094, 226, 1264, 885, -1176, -2314
0.225833, -1094, 226, 1264, 885, -1176, -2314
0.225967, -1094, 226, 1264, 885, -1176, -2314
0.226102, -1094, 226, 1264, 885, -1176, -2314
0.226237, -1094, 226, 1264, 885, -1176, -2314
0.226375, -466, 309, 1604, 810, -867, -1463
0.226513, -466, 309, 1604, 810, -867, -1463
0.226647, -466, 309, 1604, 810, -867, -1463
0.226782, -466, 309, 1604, 810, -867, -1463
0.226917, -466, 309, 1604, 810, -867, -1463
0.227051, -466, 309, 1604, 810, -867, -1463
0.227186, -466, 309, 1604, 810, -867, -1463
0.227321, 402, 333, 2001, 689, -581, -1210
0.227456, 402, 333, 2001, 689, -581, -1210
0.227590, 402, 333, 2001, 689, -581, -1210
0.227725, 402, 333, 2001, 689, -581, -1210
0.227860, 402, 333, 2001, 689, -581, -1210
0.227994, 402, 333, 2001, 689, -581, -1210
0.228129, 402, 333, 2001, 689, -581, -1210
0.228264, 402, 333, 2001, 689, -581, -1210
0.228398, 567, 349, 2224, 585, -165, -1322
0.228533, 567, 349, 2224, 585, -165, -1322
0.228668, 567, 349, 2224, 585, -165, -1322
0.228802, 567, 349, 2224, 585, -165, -1322
0.228937, 567, 349, 2224, 585, -165, -1322
0.229072, 567, 349, 2224, 585, -165, -1322
0.229206, 567, 349, 2224, 585, -165, -1322
0.229341, 1467, 526, 2824, 793, 312, -1610
0.229476, 1467, 526, 2824, 793, 312, -1610
0.229611, 1467, 526, 2824, 793, 312, -1610
0.229746, 1467, 526, 2824, 793, 312, -1610
0.229880, 1467, 526, 2824, 793, 312, -1610
0.230015, 1467, 526, 2824, 793, 312, -1610
0.230149, 1467, 526, 2824, 793, 312, -1610
0.230284, 1467, 526, 2824, 793, 312, -1610
0.230419, 2491, 726, 3281, 1430, 716, -2609
0.230554, 2491, 726, 3281, 1430, 716, -2609
0.230689, 2491, 726, 3281, 1430, 716, -2609
0.230824, 2491, 726, 3281, 1430, 716, -2609
0.230958, 2491, 726, 3281, 1430, 716, -2609
0.231093, 2491, 726, 3281, 1430, 716, -2609
0.231228, 2491, 726, 3281, 1430, 716, -2609
0.231362, 2491, 726, 3281, 1430, 716, -2609
0.231497, 2094, 835, 3135, 2242, 1058, -4009
0.231632, 2094, 835, 3135, 2242, 1058, -4009
0.231767, 2094, 835, 3135, 2242, 1058, -4009
0.231901, 2094, 835, 3135, 2242, 1058, -4009
0.232036, 2094, 835, 3135, 2242, 1058, -4009
0.232170, 2094, 835, 3135, 2242, 1058, -4009
0.232305, 2094, 835, 3135, 2242, 1058, -4009
0.232440, 1282, 841, 2900, 3062, 1344, -4902
0.232575, 1282, 841, 2900, 3062, 1344, -4902
0.232709, 1282, 841, 2900, 3062, 1344, -4902
0.232844, 1282, 841, 2900, 3062, 1344, -4902
0.232979, 1282, 841, 2900, 3062, 1344, -4902
0.233113, 1282, 841, 2900, 3062, 1344, -4902
0.233248, 1282, 841, 2900, 3062, 1344, -4902
0.233383, 1282, 841, 2900, 3062, 1344, -4902
0.233517, 3416, 1602, 3620, 4123, 1418, -5745
0.233652, 3416, 1602, 3620, 4123, 1418, -5745
0.233787, 3416, 1602, 3620, 4123, 1418, -5745
0.233921, 3416, 1602, 3620, 4123, 1418, -5745
0.234056, 3416, 1602, 3620, 4123, 1418, -5745
0.234191, 3416, 1602, 3620, 4123, 1418, -5745
0.234326, 3416, 1602, 3620, 4123, 1418, -5745
0.234461, 6837, 2388, 4922, 5791, 1417, -8468
0.234595, 6837, 2388, 4922, 5791, 1417, -8468
0.234730, 6837, 2388, 4922, 5791, 1417, -8468
0.234865, 6837, 2388, 4922, 5791, 1417, -8468
0.234999, 6837, 2388, 4922, 5791, 1417, -8468
0.235134, 6837, 2388, 4922, 5791, 1417, -8468
0.235269, 6837, 2388, 4922, 5791, 1417, -8468
0.235403, 6837, 2388, 4922, 5791, 1417, -8468
0.235538, 4776, 1325, 3410, 7441, 1973, -12429
0.235673, 4776, 1325, 3410, 7441, 1973, -12429
0.235807, 4776, 1325, 3410, 7441, 1973, -12429
0.235942, 4776, 1325, 3410, 7441, 1973, -12429
0.236076, 4776, 1325, 3410, 7441, 1973, -12429
0.236211, 4776, 1325, 3410, 7441, 1973, -12429
0.236346, 4776, 1325, 3410, 7441, 1973, -12429
0.236480, -5785, -1273, -2122, 7145, 2993, -13150
0.236615, -5785, -1273, -2122, 7145, 2993, -13150
0.236750, -5785, -1273, -2122, 7145, 2993, -13150
0.236885, -5785, -1273, -2122, 7145, 2993, -13150
0.237019, -5785, -1273, -2122, 7145, 2993, -13150
0.237154, -5785, -1273, -2122, 7145, 2993, -13150
0.237289, -5785, -1273, -2122, 7145, 2993, -13150
0.237423, -5785, -1273, -2122, 7145, 2993, -13150
0.237558, -16149, -3090, -5069, 4228, 3342, -6483
0.237693, -16149, -3090, -5069, 4228, 3342, -6483
0.237827, -16149, -3090, -5069, 4228, 3342, -6483
0.237962, -16149, -3090, -5069, 4228, 3342, -6483
0.238097, -16149, -3090, -5069, 4228, 3342, -6483
0.238231, -16149, -3090, -5069, 4228, 3342, -6483
0.238366, -16149, -3090, -5069, 4228, 3342, -6483
0.238505, -11198, -1468, -934, 1417, 1814, 3782
0.238642, -11198, -1468, -934, 1417, 1814, 3782
0.238777, -11198, -1468, -934, 1417, 1814, 3782
0.238912, -11198, -1468, -934, 1417, 1814, 3782
0.239046, -11198, -1468, -934, 1417, 1814, 3782
0.239181, -11198, -1468, -934, 1417, 1814, 3782
0.239315, -11198, -1468, -934, 1417, 1814, 3782
0.239450, -11198, -1468, -934, 1417, 1814, 3782
0.239585, 391, 931, 3443, 455, -755, 8037
0.239720, 391, 931, 3443, 455, -755, 8037
0.239854, 391, 931, 3443, 455, -755, 8037
0.239989, 391, 931, 3443, 455, -755, 8037
0.240124, 391, 931, 3443, 455, -755, 8037
0.240258, 391, 931, 3443, 455, -755, 8037
0.240393, 391, 931, 3443, 455, -755, 8037
0.240528, 1689, 828, 2991, -317, -2092, 6708
0.240663, 1689, 828, 2991, -317, -2092, 6708
0.240797, 1689, 828, 2991, -317, -2092, 6708
0.240932, 1689, 828, 2991, -317, -2092, 6708
0.241066, 1689, 828, 2991, -317, -2092, 6708
0.241201, 1689, 828, 2991, -317, -2092, 6708
0.241336, 1689, 828, 2991, -317, -2092, 6708
0.241470, 1689, 828, 2991, -317, -2092, 6708
0.241605, -478, 224, 1775, -1346, -2091, 6163
0.241740, -478, 224, 1775, -1346, -2091, 6163
0.241875, -478, 224, 1775, -1346, -2091, 6163
0.242009, -478, 224, 1775, -1346, -2091, 6163
0.242144, -478, 224, 1775, -1346, -2091, 6163
0.242278, -478, 224, 1775, -1346, -2091, 6163
0.242413, -478, 224, 1775, -1346, -2091, 6163
0.242548, -37, 333, 2074, -1710, -2044, 6374
0.242683, -37, 333, 2074, -1710, -2044, 6374
0.242817, -37, 333, 2074, -1710, -2044, 6374
0.242952, -37, 333, 2074, -1710, -2044, 6374
0.243086, -37, 333, 2074, -1710, -2044, 6374
0.243221, -37, 333, 2074, -1710, -2044, 6374
0.243355, -37, 333, 2074, -1710, -2044, 6374
0.243490, -37, 333, 2074, -1710, -2044, 6374
0.243625, -51, 307, 2090, -1524, -2931, 6083
0.243759, -51, 307, 2090, -1524, -2931, 6083
0.243894, -51, 307, 2090, -1524, -2931, 6083
0.244029, -51, 307, 2090, -1524, -2931, 6083
0.244163, -51, 307, 2090, -1524, -2931, 6083
0.244298, -51, 307, 2090, -1524, -2931, 6083
0.244433, -51, 307, 2090, -1524, -2931, 6083
0.244567, -40, 182, 1764, -1129, -4516, 5875
0.244702, -40, 182, 1764, -1129, -4516, 5875
0.244837, -40, 182, 1764, -1129, -4516, 5875
0.244971, -40, 182, 1764, -1129, -4516, 5875
0.245106, -40, 182, 1764, -1129, -4516, 5875
0.245240, -40, 182, 1764, -1129, -4516, 5875
0.245375, -40, 182, 1764, -1129, -4516, 5875
0.245509, -40, 182, 1764, -1129, -4516, 5875
0.245644, 440, 274, 1901, -881, -5126, 5845
0.245779, 440, 274, 1901, -881, -5126, 5845
0.245914, 440, 274, 1901, -881, -5126, 5845
0.246048, 440, 274, 1901, -881, -5126, 5845
0.246183, 440, 274, 1901, -881, -5126, 5845
0.246317, 440, 274, 1901, -881, -5126, 5845
0.246452, 440, 274, 1901, -881, -5126, 5845
0.246587, 639, 330, 2037, -1008, -4384, 5826
0.246722, 639, 330, 2037, -1008, -4384, 5826
0.246856, 639, 330, 2037, -1008, -4384, 5826
0.246991, 639, 330, 2037, -1008, -4384, 5826
0.247126, 639, 330, 2037, -1008, -4384, 5826
0.247260, 639, 330, 2037, -1008, -4384, 5826
0.247395, 639, 330, 2037, -1008, -4384, 5826
0.247529, 639, 330, 2037, -1008, -4384, 5826
0.247664, 616, 307, 1968, -1212, -3214, 5761
0.247799, 616, 307, 1968, -1212, -3214, 5761
0.247933, 616, 307, 1968, -1212, -3214, 5761
0.248068, 616, 307, 1968, -1212, -3214, 5761
0.248202, 616, 307, 1968, -1212, -3214, 5761
0.248337, 616, 307, 1968, -1212, -3214, 5761
0.248472, 616, 307, 1968, -1212, -3214, 5761
0.248606, 590, 346, 2025, -1351, -1931, 5603
0.248741, 590, 346, 2025, -1351, -1931, 5603
0.248876, 590, 346, 2025, -1351, -1931, 5603
0.249010, 590, 346, 2025, -1351, -1931, 5603
0.249145, 590, 346, 2025, -1351, -1931, 5603
0.249280, 590, 346, 2025, -1351, -1931, 5603
0.249414, 590, 346, 2025, -1351, -1931, 5603
0.249549, 590, 346, 2025, -1351, -1931, 5603
0.249684, 496, 374, 2100, -1556, -804, 5416
0.249818, 496, 374, 2100, -1556, -804, 5416
0.249953, 496, 374, 2100, -1556, -804, 5416
0.250088, 496, 374, 2100, -1556, -804, 5416
0.250222, 496, 374, 2100, -1556, -804, 5416
0.250357, 496, 374, 2100, -1556, -804, 5416
0.250492, 496, 374, 2100, -1556, -804, 5416
0.250626, 412, 347, 2076, -1773, -200, 5231
0.250765, 412, 347, 2076, -1773, -200, 5231
0.250900, 412, 347, 2076, -1773, -200, 5231
0.251035, 412, 347, 2076, -1773, -200, 5231
0.251169, 412, 347, 2076, -1773, -200, 5231
0.251304, 412, 347, 2076, -1773, -200, 5231
0.251438, 412, 347, 2076, -1773, -200, 5231
0.251573, 412, 347, 2076, -1773, -200, 5231
0.251708, 457, 326, 2061, -1897, 65, 4991
0.251843, 457, 326, 2061, -1897, 65, 4991
0.251977, 457, 326, 2061, -1897, 65, 4991
0.252112, 457, 326, 2061, -1897, 65, 4991
0.252247, 457, 326, 2061, -1897, 65, 4991
0.252381, 457, 326, 2061, -1897, 65, 4991
0.252516, 457, 326, 2061, -1897, 65, 4991
0.252650, 457, 326, 2061, -1897, 65, 4991
0.252785, 700, 308, 2065, -1970, 165, 4673
0.252920, 700, 308, 2065, -1970, 165, 4673
0.253054, 700, 308, 2065, -1970, 165, 4673
0.253189, 700, 308, 2065, -1970, 165, 4673
0.253324, 700, 308, 2065, -1970, 165, 4673
0.253458, 700, 308, 2065, -1970, 165, 4673
0.253593, 700, 308, 2065, -1970, 165, 4673
0.253727, 1311, 312, 1998, -2050, 74, 4177
0.253862, 1311, 312, 1998, -2050, 74, 4177
0.253997, 1311, 312, 1998, -2050, 74, 4177
0.254132, 1311, 312, 1998, -2050, 74, 4177
0.254266, 1311, 312, 1998, -2050, 74, 4177
0.254401, 1311, 312, 1998, -2050, 74, 4177
0.254536, 1311, 312, 1998, -2050, 74, 4177
0.254670, 1311, 312, 1998, -2050, 74, 4177
0.254805, 2909, 430, 1988, -2125, -84, 3150
0.254940, 2909, 430, 1988, -2125, -84, 3150
0.255074, 2909, 430, 1988, -2125, -84, 3150
0.255209, 2909, 430, 1988, -2125, -84, 3150
0.255344, 2909, 430, 1988, -2125, -84, 3150
0.255478, 2909, 430, 1988, -2125, -84, 3150
0.255613, 2909, 430, 1988, -2125, -84, 3150
0.255747, 4728, 499, 2385, -2051, -127, 948
0.255882, 4728, 499, 2385, -2051, -127, 948
0.256017, 4728, 499, 2385, -2051, -127, 948
0.256152, 4728, 499, 2385, -2051, -127, 948
0.256286, 4728, 499, 2385, -2051, -127, 948
0.256421, 4728, 499, 2385, -2051, -127, 948
0.256556, 4728, 499, 2385, -2051, -127, 948
0.256690, 4728, 499, 2385, -2051, -127, 948
0.256825, 3166, 256, 2431, -1670, 227, -1735
0.256960, 3166, 256, 2431, -1670, 227, -1735
0.257094, 3166, 256, 2431, -1670, 227, -1735
0.257229, 3166, 256, 2431, -1670, 227, -1735
0.257363, 3166, 256, 2431, -1670, 227, -1735
0.257498, 3166, 256, 2431, -1670, 227, -1735
0.257633, 3166, 256, 2431, -1670, 227, -1735
0.257767, 1307, 271, 920, -1447, 783, -2923
0.257902, 1307, 271, 920, -1447, 783, -2923
0.258037, 1307, 271, 920, -1447, 783, -2923
0.258171, 1307, 271, 920, -1447, 783, -2923
0.258306, 1307, 271, 920, -1447, 783, -2923
0.258444, 1307, 271, 920, -1447, 783, -2923
0.258579, 1307, 271, 920, -1447, 783, -2923
0.258714, 1307, 271, 920, -1447, 783, -2923
0.258848, 3483, 436, 166, -1923, 980, -3744
0.258983, 3483, 436, 166, -1923, 980, -3744
0.259118, 3483, 436, 166, -1923, 980, -3744
0.259252, 3483, 436, 166, -1923, 980, -3744
0.259387, 3483, 436, 166, -1923, 980, -3744
0.259522, 3483, 436, 166, -1923, 980, -3744
0.259656, 3483, 436, 166, -1923, 980, -3744
0.259791, 3397, 145, 2388, -2153, 1214, -5899
0.259927, 3397, 145, 2388, -2153, 1214, -5899
0.260070, 3397, 145, 2388, -2153, 1214, -5899
0.260211, 3397, 145, 2388, -2153, 1214, -5899
0.260349, 3397, 145, 2388, -2153, 1214, -5899
0.260484, 3397, 145, 2388, -2153, 1214, -5899
0.260620, 3397, 145, 2388, -2153, 1214, -5899
0.260756, 3397, 145, 2388, -2153, 1214, -5899
0.260896, -1946, -42, 4005, -1011, 2052, -6608
0.261043, -1946, -42, 4005, -1011, 2052, -6608
0.261183, -1946, -42, 4005, -1011, 2052, -6608
0.261322, -1946, -42, 4005, -1011, 2052, -6608
0.261457, -1946, -42, 4005, -1011, 2052, -6608
0.261595, -1946, -42, 4005, -1011, 2052, -6608
0.261731, -1946, -42, 4005, -1011, 2052, -6608
0.261868, -5299, 152, 2713, 578, 2814, -3807
0.262005, -5299, 152, 2713, 578, 2814, -3807
0.262142, -5299, 152, 2713, 578, 2814, -3807
0.262277, -5299, 152, 2713, 578, 2814, -3807
0.262415, -5299, 152, 2713, 578, 2814, -3807
0.262556, -5299, 152, 2713, 578, 2814, -3807
0.262693, -5299, 152, 2713, 578, 2814, -3807
0.262830, -758, 527, 1816, 1236, 2433, -887
0.262965, -758, 527, 1816, 1236, 2433, -887
0.263100, -758, 527, 1816, 1236, 2433, -887
0.263235, -758, 527, 1816, 1236, 2433, -887
0.263402, -758, 527, 1816, 1236, 2433, -887
0.263544, -758, 527, 1816, 1236, 2433, -887
0.263679, -758, 527, 1816, 1236, 2433, -887
0.263814, 4822, 636, 2765, 1129, 1309, -1776
0.263950, 4822, 636, 2765, 1129, 1309, -1776
0.264085, 4822, 636, 2765, 1129, 1309, -1776
0.264220, 4822, 636, 2765, 1129, 1309, -1776
0.264354, 4822, 636, 2765, 1129, 1309, -1776
0.264489, 4822, 636, 2765, 1129, 1309, -1776
0.264624, 4822, 636, 2765, 1129, 1309, -1776
0.264758, 4822, 636, 2765, 1129, 1309, -1776
0.264893, 3916, 458, 3051, 1027, 673, -4767
0.265027, 3916, 458, 3051, 1027, 673, -4767
0.265162, 3916, 458, 3051, 1027, 673, -4767
0.265296, 3916, 458, 3051, 1027, 673, -4767
0.265431, 3916, 458, 3051, 1027, 673, -4767
0.265565, 3916, 458, 3051, 1027, 673, -4767
0.265700, 3916, 458, 3051, 1027, 673, -4767
0.265834, -239, 267, 1991, 1257, 890, -6125
0.265969, -239, 267, 1991, 1257, 890, -6125
0.266104, -239, 267, 1991, 1257, 890, -6125
0.266238, -239, 267, 1991, 1257, 890, -6125
0.266373, -239, 267, 1991, 1257, 890, -6125
0.266508, -239, 267, 1991, 1257, 890, -6125
0.266643, -239, 267, 1991, 1257, 890, -6125
0.266777, -239, 267, 1991, 1257, 890, -6125
0.266912, -4138, 164, 1130, 1580, 1520, -4894
0.267047, -4138, 164, 1130, 1580, 1520, -4894
0.267181, -4138, 164, 1130, 1580, 1520, -4894
0.267316, -4138, 164, 1130, 1580, 1520, -4894
0.267450, -4138, 164, 1130, 1580, 1520, -4894
0.267585, -4138, 164, 1130, 1580, 1520, -4894
0.267719, -4138, 164, 1130, 1580, 1520, -4894
0.267854, -4138, 164, 1130, 1580, 1520, -4894
0.267988, -5644, 268, 1063, 1544, 1680, -1679
0.268123, -5644, 268, 1063, 1544, 1680, -1679
0.268258, -5644, 268, 1063, 1544, 1680, -1679
0.268392, -5644, 268, 1063, 1544, 1680, -1679
0.268527, -5644, 268, 1063, 1544, 1680, -1679
0.268661, -5644, 268, 1063, 1544, 1680, -1679
0.268797, -5644, 268, 1063, 1544, 1680, -1679
0.268933, -3442, 363, 1600, 1075, 926, 1693
0.269072, -3442, 363, 1600, 1075, 926, 1693
0.269211, -3442, 363, 1600, 1075, 926, 1693
0.269348, -3442, 363, 1600, 1075, 926, 1693
0.269486, -3442, 363, 1600, 1075, 926, 1693
0.269625, -3442, 363, 1600, 1075, 926, 1693
0.269761, -3442, 363, 1600, 1075, 926, 1693
0.269891, 153, 459, 2226, 400, -161, 3175
0.270026, 153, 459, 2226, 400, -161, 3175
0.270162, 153, 459, 2226, 400, -161, 3175
0.270292, 153, 459, 2226, 400, -161, 3175
0.270427, 153, 459, 2226, 400, -161, 3175
0.270561, 153, 459, 2226, 400, -161, 3175
0.270696, 153, 459, 2226, 400, -161, 3175
0.270830, 153, 459, 2226, 400, -161, 3175
0.270965, 2346, 483, 2488, -215, -886, 2553
0.271099, 2346, 483, 2488, -215, -886, 2553
0.271234, 2346, 483, 2488, -215, -886, 2553
0.271369, 2346, 483, 2488, -215, -886, 2553
0.271503, 2346, 483, 2488, -215, -886, 2553
0.271638, 2346, 483, 2488, -215, -886, 2553
0.271772, 2346, 483, 2488, -215, -886, 2553
0.271906, 2346, 483, 2488, -215, -886, 2553
0.272041, 3103, 365, 2570, -477, -1101, 916
0.272175, 3103, 365, 2570, -477, -1101, 916
0.272310, 3103, 365, 2570, -477, -1101, 916
0.272444, 3103, 365, 2570, -477, -1101, 916
0.272579, 3103, 365, 2570, -477, -1101, 916
0.272713, 3103, 365, 2570, -477, -1101, 916
0.272848, 3103, 365, 2570, -477, -1101, 916
0.272982, 3857, 428, 2622, -222, -1083, -1163
0.273117, 3857, 428, 2622, -222, -1083, -1163
0.273251, 3857, 428, 2622, -222, -1083, -1163
0.273386, 3857, 428, 2622, -222, -1083, -1163
0.273520, 3857, 428, 2622, -222, -1083, -1163
0.273655, 3857, 428, 2622, -222, -1083, -1163
0.273789, 3857, 428, 2622, -222, -1083, -1163
0.273923, 3857, 428, 2622, -222, -1083, -1163
0.274058, 3704, 521, 2449, 327, -953, -3625
0.274193, 3704, 521, 2449, 327, -953, -3625
0.274327, 3704, 521, 2449, 327, -953, -3625
0.274462, 3704, 521, 2449, 327, -953, -3625
0.274596, 3704, 521, 2449, 327, -953, -3625
0.274731, 3704, 521, 2449, 327, -953, -3625
0.274865, 3704, 521, 2449, 327, -953, -3625
0.274999, 1648, 466, 2217, 869, -542, -5481
0.275136, 1648, 466, 2217, 869, -542, -5481
0.275272, 1648, 466, 2217, 869, -542, -5481
0.275407, 1648, 466, 2217, 869, -542, -5481
0.275541, 1648, 466, 2217, 869, -542, -5481
0.275676, 1648, 466, 2217, 869, -542, -5481
0.275828, 1648, 466, 2217, 869, -542, -5481
0.275964, 1648, 466, 2217, 869, -542, -5481
0.276099, 222, 750, 2439, 1547, 83, -5948
0.276234, 222, 750, 2439, 1547, 83, -5948
0.276371, 222, 750, 2439, 1547, 83, -5948
0.276505, 222, 750, 2439, 1547, 83, -5948
0.276640, 222, 750, 2439, 1547, 83, -5948
0.276774, 222, 750, 2439, 1547, 83, -5948
0.276909, 222, 750, 2439, 1547, 83, -5948
0.277043, -2335, 513, 1761, 2133, 905, -5361
0.277178, -2335, 513, 1761, 2133, 905, -5361
0.277312, -2335, 513, 1761, 2133, 905, -5361
0.277447, -2335, 513, 1761, 2133, 905, -5361
0.277581, -2335, 513, 1761, 2133, 905, -5361
0.277716, -2335, 513, 1761, 2133, 905, -5361
0.277850, -2335, 513, 1761, 2133, 905, -5361
0.277984, -2335, 513, 1761, 2133, 905, -5361
0.278119, -7445, -516, -111, 1668, 1755, -2364
0.278254, -7445, -516, -111, 1668, 1755, -2364
0.278388, -7445, -516, -111, 1668, 1755, -2364
0.278523, -7445, -516, -111, 1668, 1755, -2364
0.278657, -7445, -516, -111, 1668, 1755, -2364
0.278792, -7445, -516, -111, 1668, 1755, -2364
0.278926, -7445, -516, -111, 1668, 1755, -2364
0.279061, -6692, -368, 294, 477, 1646, 2983
0.279195, -6692, -368, 294, 477, 1646, 2983
0.279330, -6692, -368, 294, 477, 1646, 2983
0.279464, -6692, -368, 294, 477, 1646, 2983
0.279599, -6692, -368, 294, 477, 1646, 2983
0.279733, -6692, -368, 294, 477, 1646, 2983
0.279868, -6692, -368, 294, 477, 1646, 2983
0.280002, -6692, -368, 294, 477, 1646, 2983
0.280137, -638, 524, 2376, -359, 551, 6084
0.280271, -638, 524, 2376, -359, 551, 6084
0.280406, -638, 524, 2376, -359, 551, 6084
0.280540, -638, 524, 2376, -359, 551, 6084
0.280675, -638, 524, 2376, -359, 551, 6084
0.280809, -638, 524, 2376, -359, 551, 6084
0.280944, -638, 524, 2376, -359, 551, 6084
0.281078, 1205, 575, 2661, -1000, -402, 5770
0.281213, 1205, 575, 2661, -1000, -402, 5770
0.281347, 1205, 575, 2661, -1000, -402, 5770
0.281482, 1205, 575, 2661, -1000, -402, 5770
0.281616, 1205, 575, 2661, -1000, -402, 5770
0.281751, 1205, 575, 2661, -1000, -402, 5770
0.281885, 1205, 575, 2661, -1000, -402, 5770
0.282020, 1205, 575, 2661, -1000, -402, 5770
0.282154, 416, 298, 1977, -1573, -945, 5216
0.282289, 416, 298, 1977, -1573, -945, 5216
0.282421, 416, 298, 1977, -1573, -945, 5216
0.282558, 416, 298, 1977, -1573, -945, 5216
0.282695, 416, 298, 1977, -1573, -945, 5216
0.282830, 416, 298, 1977, -1573, -945, 5216
0.282964, 416, 298, 1977, -1573, -945, 5216
0.283099, 779, 307, 2025, -1763, -1159, 5023
0.283233, 779, 307, 2025, -1763, -1159, 5023
0.283368, 779, 307, 2025, -1763, -1159, 5023
0.283502, 779, 307, 2025, -1763, -1159, 5023
0.283637, 779, 307, 2025, -1763, -1159, 5023
0.283771, 779, 307, 2025, -1763, -1159, 5023
0.283906, 779, 307, 2025, -1763, -1159, 5023
0.284040, 779, 307, 2025, -1763, -1159, 5023
0.284174, 979, 344, 2277, -1654, -1361, 4477
0.284309, 979, 344, 2277, -1654, -1361, 4477
0.284443, 979, 344, 2277, -1654, -1361, 4477
0.284578, 979, 344, 2277, -1654, -1361, 4477
0.284712, 979, 344, 2277, -1654, -1361, 4477
0.284847, 979, 344, 2277, -1654, -1361, 4477
0.284981, 979, 344, 2277, -1654, -1361, 4477
0.285115, 1541, 314, 2298, -1343, -1911, 3758
0.285250, 1541, 314, 2298, -1343, -1911, 3758
0.285384, 1541, 314, 2298, -1343, -1911, 3758
0.285519, 1541, 314, 2298, -1343, -1911, 3758
0.285653, 1541, 314, 2298, -1343, -1911, 3758
0.285788, 1541, 314, 2298, -1343, -1911, 3758
0.285922, 1541, 314, 2298, -1343, -1911, 3758
0.286056, 1541, 314, 2298, -1343, -1911, 3758
0.286191, 3496, 394, 2291, -1020, -2202, 2460
0.286325, 3496, 394, 2291, -1020, -2202, 2460
0.286460, 3496, 394, 2291, -1020, -2202, 2460
0.286594, 3496, 394, 2291, -1020, -2202, 2460
0.286729, 3496, 394, 2291, -1020, -2202, 2460
0.286863, 3496, 394, 2291, -1020, -2202, 2460
0.286998, 3496, 394, 2291, -1020, -2202, 2460
0.287132, 5624, 532, 2626, -836, -1776, -76
0.287267, 5624, 532, 2626, -836, -1776, -76
0.287401, 5624, 532, 2626, -836, -1776, -76
0.287537, 5624, 532, 2626, -836, -1776, -76
0.287673, 5624, 532, 2626, -836, -1776, -76
0.287808, 5624, 532, 2626, -836, -1776, -76
0.287942, 5624, 532, 2626, -836, -1776, -76
0.288077, 5624, 532, 2626, -836, -1776, -76
0.288224, 6502, 655, 3119, -331, -767, -3682
0.288360, 6502, 655, 3119, -331, -767, -3682
0.288494, 6502, 655, 3119, -331, -767, -3682
0.288629, 6502, 655, 3119, -331, -767, -3682
0.288763, 6502, 655, 3119, -331, -767, -3682
0.288893, 6502, 655, 3119, -331, -767, -3682
0.289028, 6502, 655, 3119, -331, -767, -3682
0.289162, 4279, 327, 1671, 250, 814, -7179
0.289297, 4279, 327, 1671, 250, 814, -7179
0.289431, 4279, 327, 1671, 250, 814, -7179
0.289565, 4279, 327, 1671, 250, 814, -7179
0.289700, 4279, 327, 1671, 250, 814, -7179
0.289834, 4279, 327, 1671, 250, 814, -7179
0.289969, 4279, 327, 1671, 250, 814, -7179
0.290103, 4279, 327, 1671, 250, 814, -7179
0.290237, 687, -301, -647, -247, 2392, -8825
0.290372, 687, -301, -647, -247, 2392, -8825
0.290507, 687, -301, -647, -247, 2392, -8825
0.290642, 687, -301, -647, -247, 2392, -8825
0.290776, 687, -301, -647, -247, 2392, -8825
0.290910, 687, -301, -647, -247, 2392, -8825
0.291045, 687, -301, -647, -247, 2392, -8825
0.291179, -588, -26, -34, -1311, 3291, -8673
0.291314, -588, -26, -34, -1311, 3291, -8673
0.291449, -588, -26, -34, -1311, 3291, -8673
0.291583, -588, -26, -34, -1311, 3291, -8673
0.291718, -588, -26, -34, -1311, 3291, -8673
0.291852, -588, -26, -34, -1311, 3291, -8673
0.291987, -588, -26, -34, -1311, 3291, -8673
0.292121, -588, -26, -34, -1311, 3291, -8673
0.292256, -3982, 431, 2907, -1440, 4092, -7488
0.292390, -3982, 431, 2907, -1440, 4092, -7488
0.292525, -3982, 431, 2907, -1440, 4092, -7488
0.292659, -3982, 431, 2907, -1440, 4092, -7488
0.292793, -3982, 431, 2907, -1440, 4092, -7488
0.292928, -3982, 431, 2907, -1440, 4092, -7488
0.293063, -3982, 431, 2907, -1440, 4092, -7488
0.293197, -8915, 231, 3834, -500, 4844, -3551
0.293332, -8915, 231, 3834, -500, 4844, -3551
0.293466, -8915, 231, 3834, -500, 4844, -3551
0.293601, -8915, 231, 3834, -500, 4844, -3551
0.293735, -8915, 231, 3834, -500, 4844, -3551
0.293870, -8915, 231, 3834, -500, 4844, -3551
0.294004, -8915, 231, 3834, -500, 4844, -3551
0.294138, -8915, 231, 3834, -500, 4844, -3551
0.294273, -6984, 332, 1970, 154, 4340, 2292
0.294407, -6984, 332, 1970, 154, 4340, 2292
0.294542, -6984, 332, 1970, 154, 4340, 2292
0.294677, -6984, 332, 1970, 154, 4340, 2292
0.294811, -6984, 332, 1970, 154, 4340, 2292
0.294946, -6984, 332, 1970, 154, 4340, 2292
0.295081, -6984, 332, 1970, 154, 4340, 2292
0.295215, -6984, 332, 1970, 154, 4340, 2292
0.295350, -1339, 556, 1513, -576, 2551, 5498
0.295485, -1339, 556, 1513, -576, 2551, 5498
0.295619, -1339, 556, 1513, -576, 2551, 5498
0.295754, -1339, 556, 1513, -576, 2551, 5498
0.295888, -1339, 556, 1513, -576, 2551, 5498
0.296023, -1339, 556, 1513, -576, 2551, 5498
0.296158, -1339, 556, 1513, -576, 2551, 5498
0.296292, 547, 496, 2469, -1786, 623, 5594
0.296427, 547, 496, 2469, -1786, 623, 5594
0.296562, 547, 496, 2469, -1786, 623, 5594
0.296697, 547, 496, 2469, -1786, 623, 5594
0.296831, 547, 496, 2469, -1786, 623, 5594
0.296966, 547, 496, 2469, -1786, 623, 5594
0.297100, 547, 496, 2469, -1786, 623, 5594
0.297235, 547, 496, 2469, -1786, 623, 5594
0.297370, 25, 390, 2289, -2418, -838, 5342
0.297504, 25, 390, 2289, -2418, -838, 5342
0.297639, 25, 390, 2289, -2418, -838, 5342
0.297774, 25, 390, 2289, -2418, -838, 5342
0.297908, 25, 390, 2289, -2418, -838, 5342
0.298043, 25, 390, 2289, -2418, -838, 5342
0.298177, 25, 390, 2289, -2418, -838, 5342
0.298312, 53, 302, 1891, -2529, -1779, 5400
0.298448, 53, 302, 1891, -2529, -1779, 5400
0.298583, 53, 302, 1891, -2529, -1779, 5400
0.298717, 53, 302, 1891, -2529, -1779, 5400
0.298852, 53, 302, 1891, -2529, -1779, 5400
0.298986, 53, 302, 1891, -2529, -1779, 5400
0.299121, 53, 302, 1891, -2529, -1779, 5400
0.299256, 53, 302, 1891, -2529, -1779, 5400
0.299390, 324, 295, 2008, -2400, -2208, 5327
0.299520, 324, 295, 2008, -2400, -2208, 5327
0.299655, 324, 295, 2008, -2400, -2208, 5327
0.299790, 324, 295, 2008, -2400, -2208, 5327
0.299925, 324, 295, 2008, -2400, -2208, 5327
0.300060, 324, 295, 2008, -2400, -2208, 5327
0.300195, 324, 295, 2008, -2400, -2208, 5327
0.300329, 416, 297, 2115, -2282, -2293, 5237
0.300464, 416, 297, 2115, -2282, -2293, 5237
0.300607, 416, 297, 2115, -2282, -2293, 5237
0.300742, 416, 297, 2115, -2282, -2293, 5237
0.300876, 416, 297, 2115, -2282, -2293, 5237
0.301012, 416, 297, 2115, -2282, -2293, 5237
0.301146, 416, 297, 2115, -2282, -2293, 5237
0.301281, 416, 297, 2115, -2282, -2293, 5237
0.301415, 554, 287, 2139, -2218, -2179, 5165
0.301550, 554, 287, 2139, -2218, -2179, 5165
0.301685, 554, 287, 2139, -2218, -2179, 5165
0.301820, 554, 287, 2139, -2218, -2179, 5165
0.301954, 554, 287, 2139, -2218, -2179, 5165
0.302089, 554, 287, 2139, -2218, -2179, 5165
0.302224, 554, 287, 2139, -2218, -2179, 5165
0.302358, 854, 313, 2287, -2124, -1805, 4943
0.302494, 854, 313, 2287, -2124, -1805, 4943
0.302629, 854, 313, 2287, -2124, -1805, 4943
0.302763, 854, 313, 2287, -2124, -1805, 4943
0.302898, 854, 313, 2287, -2124, -1805, 4943
0.303033, 854, 313, 2287, -2124, -1805, 4943
0.303167, 854, 313, 2287, -2124, -1805, 4943
0.303302, 854, 313, 2287, -2124, -1805, 4943
0.303436, 1659, 360, 2657, -1911, -1273, 4411
0.303571, 1659, 360, 2657, -1911, -1273, 4411
0.303706, 1659, 360, 2657, -1911, -1273, 4411
0.303840, 1659, 360, 2657, -1911, -1273, 4411
0.303975, 1659, 360, 2657, -1911, -1273, 4411
0.304110, 1659, 360, 2657, -1911, -1273, 4411
0.304244, 1659, 360, 2657, -1911, -1273, 4411
0.304379, 3383, 496, 3410, -1369, -776, 3171
0.304514, 3383, 496, 3410, -1369, -776, 3171
0.304649, 3383, 496, 3410, -1369, -776, 3171
0.304783, 3383, 496, 3410, -1369, -776, 3171
0.304918, 3383, 496, 3410, -1369, -776, 3171
0.305052, 3383, 496, 3410, -1369, -776, 3171
0.305187, 3383, 496, 3410, -1369, -776, 3171
0.305322, 3383, 496, 3410, -1369, -776, 3171
0.305456, 5401, 687, 4329, -269, -258, 725
0.305591, 5401, 687, 4329, -269, -258, 725
0.305726, 5401, 687, 4329, -269, -258, 725
0.305861, 5401, 687, 4329, -269, -258, 725
0.305995, 5401, 687, 4329, -269, -258, 725
0.306130, 5401, 687, 4329, -269, -258, 725
0.306265, 5401, 687, 4329, -269, -258, 725
0.306399, 6269, 681, 4107, 1264, 457, -2698
0.306534, 6269, 681, 4107, 1264, 457, -2698
0.306669, 6269, 681, 4107, 1264, 457, -2698
0.306804, 6269, 681, 4107, 1264, 457, -2698
0.306939, 6269, 681, 4107, 1264, 457, -2698
0.307073, 6269, 681, 4107, 1264, 457, -2698
0.307208, 6269, 681, 4107, 1264, 457, -2698
0.307343, 6269, 681, 4107, 1264, 457, -2698
0.307477, 5588, 483, 1634, 2275, 1310, -6303
0.307612, 5588, 483, 1634, 2275, 1310, -6303
0.307747, 5588, 483, 1634, 2275, 1310, -6303
0.307881, 5588, 483, 1634, 2275, 1310, -6303
0.308016, 5588, 483, 1634, 2275, 1310, -6303
0.308151, 5588, 483, 1634, 2275, 1310, -6303
0.308285, 5588, 483, 1634, 2275, 1310, -6303
0.308420, 2469, 6, -135, 1953, 2266, -8974
0.308555, 2469, 6, -135, 1953, 2266, -8974
0.308689, 2469, 6, -135, 1953, 2266, -8974
0.308824, 2469, 6, -135, 1953, 2266, -8974
0.308959, 2469, 6, -135, 1953, 2266, -8974
0.309093, 2469, 6, -135, 1953, 2266, -8974
0.309228, 2469, 6, -135, 1953, 2266, -8974
0.309363, 2469, 6, -135, 1953, 2266, -8974
0.309497, -522, 422, 2607, 1991, 3284, -9342
0.309632, -522, 422, 2607, 1991, 3284, -9342
0.309767, -522, 422, 2607, 1991, 3284, -9342
0.309901, -522, 422, 2607, 1991, 3284, -9342
0.310036, -522, 422, 2607, 1991, 3284, -9342
0.310170, -522, 422, 2607, 1991, 3284, -9342
0.310305, -522, 422, 2607, 1991, 3284, -9342
0.310446, 1029, 1950, 5822, 4212, 4058, -8735
0.310581, 1029, 1950, 5822, 4212, 4058, -8735
0.310716, 1029, 1950, 5822, 4212, 4058, -8735
0.310850, 1029, 1950, 5822, 4212, 4058, -8735
0.310985, 1029, 1950, 5822, 4212, 4058, -8735
0.311120, 1029, 1950, 5822, 4212, 4058, -8735
0.311254, 1029, 1950, 5822, 4212, 4058, -8735
0.311389, 1029, 1950, 5822, 4212, 4058, -8735
0.311524, 803, 439, 2118, 6078, 4617, -9224
0.311659, 803, 439, 2118, 6078, 4617, -9224
0.311793, 803, 439, 2118, 6078, 4617, -9224
0.311928, 803, 439, 2118, 6078, 4617, -9224
0.312062, 803, 439, 2118, 6078, 4617, -9224
0.312197, 803, 439, 2118, 6078, 4617, -9224
0.312332, 803, 439, 2118, 6078, 4617, -9224
0.312466, -4131, -2249, -4317, 4243, 4533, -8417
0.312601, -4131, -2249, -4317, 4243, 4533, -8417
0.312736, -4131, -2249, -4317, 4243, 4533, -8417
0.312882, -4131, -2249, -4317, 4243, 4533, -8417
0.313018, -4131, -2249, -4317, 4243, 4533, -8417
0.313152, -4131, -2249, -4317, 4243, 4533, -8417
0.313287, -4131, -2249, -4317, 4243, 4533, -8417
0.313421, -4131, -2249, -4317, 4243, 4533, -8417
0.313556, -4718, -764, -3845, 333, 3305, -5081
0.313691, -4718, -764, -3845, 333, 3305, -5081
0.313826, -4718, -764, -3845, 333, 3305, -5081
0.313960, -4718, -764, -3845, 333, 3305, -5081
0.314095, -4718, -764, -3845, 333, 3305, -5081
0.314230, -4718, -764, -3845, 333, 3305, -5081
0.314364, -4718, -764, -3845, 333, 3305, -5081
0.314499, -966, 1073, 350, -2388, 1883, -2732
0.314634, -966, 1073, 350, -2388, 1883, -2732
0.314769, -966, 1073, 350, -2388, 1883, -2732
0.314903, -966, 1073, 350, -2388, 1883, -2732
0.315038, -966, 1073, 350, -2388, 1883, -2732
0.315173, -966, 1073, 350, -2388, 1883, -2732
0.315307, -966, 1073, 350, -2388, 1883, -2732
0.315442, -966, 1073, 350, -2388, 1883, -2732
0.315577, -604, 444, 2191, -3371, 987, -2387
0.315712, -604, 444, 2191, -3371, 987, -2387
0.315846, -604, 444, 2191, -3371, 987, -2387
0.315981, -604, 444, 2191, -3371, 987, -2387
0.316115, -604, 444, 2191, -3371, 987, -2387
0.316250, -604, 444, 2191, -3371, 987, -2387
0.316385, -604, 444, 2191, -3371, 987, -2387
0.316519, -2517, 115, 3102, -2987, 777, -1351
0.316654, -2517, 115, 3102, -2987, 777, -1351
0.316789, -2517, 115, 3102, -2987, 777, -1351
0.316924, -2517, 115, 3102, -2987, 777, -1351
0.317058, -2517, 115, 3102, -2987, 777, -1351
0.317193, -2517, 115, 3102, -2987, 777, -1351
0.317327, -2517, 115, 3102, -2987, 777, -1351
0.317462, -2517, 115, 3102, -2987, 777, -1351
0.317596, -2061, 460, 3273, -2129, 1147, 732
0.317731, -2061, 460, 3273, -2129, 1147, 732
0.317866, -2061, 460, 3273, -2129, 1147, 732
0.318001, -2061, 460, 3273, -2129, 1147, 732
0.318135, -2061, 460, 3273, -2129, 1147, 732
0.318270, -2061, 460, 3273, -2129, 1147, 732
0.318404, -2061, 460, 3273, -2129, 1147, 732
0.318539, -1176, 379, 2465, -1775, 683, 2024
0.318674, -1176, 379, 2465, -1775, 683, 2024
0.318809, -1176, 379, 2465, -1775, 683, 2024
0.318943, -1176, 379, 2465, -1775, 683, 2024
0.319078, -1176, 379, 2465, -1775, 683, 2024
0.319212, -1176, 379, 2465, -1775, 683, 2024
0.319347, -1176, 379, 2465, -1775, 683, 2024
0.319481, -1176, 379, 2465, -1775, 683, 2024
0.319616, -2052, 193, 2291, -1536, -812, 2828
0.319751, -2052, 193, 2291, -1536, -812, 2828
0.319886, -2052, 193, 2291, -1536, -812, 2828
0.320020, -2052, 193, 2291, -1536, -812, 2828
0.320156, -2052, 193, 2291, -1536, -812, 2828
0.320291, -2052, 193, 2291, -1536, -812, 2828
0.320425, -2052, 193, 2291, -1536, -812, 2828
0.320560, -2052, 193, 2291, -1536, -812, 2828
0.320694, -1634, 282, 2371, -1208, -1863, 4146
0.320829, -1634, 282, 2371, -1208, -1863, 4146
0.320964, -1634, 282, 2371, -1208, -1863, 4146
0.321098, -1634, 282, 2371, -1208, -1863, 4146
0.321233, -1634, 282, 2371, -1208, -1863, 4146
0.321368, -1634, 282, 2371, -1208, -1863, 4146
0.321502, -1634, 282, 2371, -1208, -1863, 4146
0.321637, 1140, 349, 2048, -1211, -2409, 4756
0.321772, 1140, 349, 2048, -1211, -2409, 4756
0.321906, 1140, 349, 2048, -1211, -2409, 4756
0.322041, 1140, 349, 2048, -1211, -2409, 4756
0.322175, 1140, 349, 2048, -1211, -2409, 4756
0.322310, 1140, 349, 2048, -1211, -2409, 4756
0.322445, 1140, 349, 2048, -1211, -2409, 4756
0.322579, 1140, 349, 2048, -1211, -2409, 4756
0.322714, 3346, 531, 2127, -1445, -2572, 3591
0.322849, 3346, 531, 2127, -1445, -2572, 3591
0.322983, 3346, 531, 2127, -1445, -2572, 3591
0.323118, 3346, 531, 2127, -1445, -2572, 3591
0.323252, 3346, 531, 2127, -1445, -2572, 3591
0.323387, 3346, 531, 2127, -1445, -2572, 3591
0.323522, 3346, 531, 2127, -1445, -2572, 3591
0.323656, 3560, 763, 2545, -1534, -1685, 1517
0.323791, 3560, 763, 2545, -1534, -1685, 1517
0.323926, 3560, 763, 2545, -1534, -1685, 1517
0.324060, 3560, 763, 2545, -1534, -1685, 1517
0.324195, 3560, 763, 2545, -1534, -1685, 1517
0.324330, 3560, 763, 2545, -1534, -1685, 1517
0.324464, 3560, 763, 2545, -1534, -1685, 1517
0.324599, 3560, 763, 2545, -1534, -1685, 1517
0.324733, 2370, 553, 2169, -1456, -158, -243
0.324873, 2370, 553, 2169, -1456, -158, -243
0.325008, 2370, 553, 2169, -1456, -158, -243
0.325143, 2370, 553, 2169, -1456, -158, -243
0.325278, 2370, 553, 2169, -1456, -158, -243
0.325412, 2370, 553, 2169, -1456, -158, -243
0.325547, 2370, 553, 2169, -1456, -158, -243
0.325681, 1117, 249, 1231, -1509, 1068, -1257
0.325816, 1117, 249, 1231, -1509, 1068, -1257
0.325951, 1117, 249, 1231, -1509, 1068, -1257
0.326086, 1117, 249, 1231, -1509, 1068, -1257
0.326220, 1117, 249, 1231, -1509, 1068, -1257
0.326355, 1117, 249, 1231, -1509, 1068, -1257
0.326490, 1117, 249, 1231, -1509, 1068, -1257
0.326625, 1117, 249, 1231, -1509, 1068, -1257
0.326759, 415, 400, 1140, -1799, 1808, -1731
0.326894, 415, 400, 1140, -1799, 1808, -1731
0.327029, 415, 400, 1140, -1799, 1808, -1731
0.327164, 415, 400, 1140, -1799, 1808, -1731
0.327298, 415, 400, 1140, -1799, 1808, -1731
0.327433, 415, 400, 1140, -1799, 1808, -1731
0.327567, 415, 400, 1140, -1799, 1808, -1731
0.327702, -574, 500, 2182, -1929, 2278, -1667
0.327837, -574, 500, 2182, -1929, 2278, -1667
0.327971, -574, 500, 2182, -1929, 2278, -1667
0.328106, -574, 500, 2182, -1929, 2278, -1667
0.328240, -574, 500, 2182, -1929, 2278, -1667
0.328375, -574, 500, 2182, -1929, 2278, -1667
0.328510, -574, 500, 2182, -1929, 2278, -1667
0.328644, -574, 500, 2182, -1929, 2278, -1667
0.328779, -1783, 292, 2988, -1503, 2524, -820
0.328914, -1783, 292, 2988, -1503, 2524, -820
0.329048, -1783, 292, 2988, -1503, 2524, -820
0.329183, -1783, 292, 2988, -1503, 2524, -820
0.329318, -1783, 292, 2988, -1503, 2524, -820
0.329452, -1783, 292, 2988, -1503, 2524, -820
0.329587, -1783, 292, 2988, -1503, 2524, -820
0.329721, -1395, 189, 2458, -922, 2372, 476
0.329856, -1395, 189, 2458, -922, 2372, 476
0.329991, -1395, 189, 2458, -922, 2372, 476
0.330126, -1395, 189, 2458, -922, 2372, 476
0.330261, -1395, 189, 2458, -922, 2372, 476
0.330395, -1395, 189, 2458, -922, 2372, 476
0.330530, -1395, 189, 2458, -922, 2372, 476
0.330665, -1395, 189, 2458, -922, 2372, 476
0.330799, 1588, 499, 1586, -906, 1692, 942
0.330934, 1588, 499, 1586, -906, 1692, 942
0.331069, 1588, 499, 1586, -906, 1692, 942
0.331203, 1588, 499, 1586, -906, 1692, 942
0.331338, 1588, 499, 1586, -906, 1692, 942
0.331473, 1588, 499, 1586, -906, 1692, 942
0.331607, 1588, 499, 1586, -906, 1692, 942
0.331742, 5509, 883, 1526, -1457, 738, -902
0.331877, 5509, 883, 1526, -1457, 738, -902
0.332011, 5509, 883, 1526, -1457, 738, -902
0.332146, 5509, 883, 1526, -1457, 738, -902
0.332281, 5509, 883, 1526, -1457, 738, -902
0.332415, 5509, 883, 1526, -1457, 738, -902
0.332550, 5509, 883, 1526, -1457, 738, -902
0.332684, 5509, 883, 1526, -1457, 738, -902
0.332819, 4464, 311, 2105, -1891, 351, -4403
0.332954, 4464, 311, 2105, -1891, 351, -4403
0.333089, 4464, 311, 2105, -1891, 351, -4403
0.333224, 4464, 311, 2105, -1891, 351, -4403
0.333358, 4464, 311, 2105, -1891, 351, -4403
0.333493, 4464, 311, 2105, -1891, 351, -4403
0.333627, 4464, 311, 2105, -1891, 351, -4403
0.333762, -4490, -745, 2318, -1447, 1033, -5218
0.333897, -4490, -745, 2318, -1447, 1033, -5218
0.334032, -4490, -745, 2318, -1447, 1033, -5218
0.334166, -4490, -745, 2318, -1447, 1033, -5218
0.334301, -4490, -745, 2318, -1447, 1033, -5218
0.334436, -4490, -745, 2318, -1447, 1033, -5218
0.334571, -4490, -745, 2318, -1447, 1033, -5218
0.334705, -4490, -745, 2318, -1447, 1033, -5218
0.334840, -10137, -643, 1796, -361, 1632, -506
0.334975, -10137, -643, 1796, -361, 1632, -506
0.335110, -10137, -643, 1796, -361, 1632, -506
0.335244, -10137, -643, 1796, -361, 1632, -506
0.335379, -10137, -643, 1796, -361, 1632, -506
0.335514, -10137, -643, 1796, -361, 1632, -506
0.335649, -10137, -643, 1796, -361, 1632, -506
0.335783, -4768, 319, 1803, 262, 789, 5137
0.335918, -4768, 319, 1803, 262, 789, 5137
0.336053, -4768, 319, 1803, 262, 789, 5137
0.336188, -4768, 319, 1803, 262, 789, 5137
0.336322, -4768, 319, 1803, 262, 789, 5137
0.336457, -4768, 319, 1803, 262, 789, 5137
0.336592, -4768, 319, 1803, 262, 789, 5137
0.336726, -4768, 319, 1803, 262, 789, 5137
0.336861, 1107, 579, 2430, -56, -813, 6551
0.336996, 1107, 579, 2430, -56, -813, 6551
0.337136, 1107, 579, 2430, -56, -813, 6551
0.337271, 1107, 579, 2430, -56, -813, 6551
0.337405, 1107, 579, 2430, -56, -813, 6551
0.337540, 1107, 579, 2430, -56, -813, 6551
0.337675, 1107, 579, 2430, -56, -813, 6551
0.337809, 1272, 344, 2481, -863, -1761, 5663
0.337944, 1272, 344, 2481, -863, -1761, 5663
0.338079, 1272, 344, 2481, -863, -1761, 5663
0.338213, 1272, 344, 2481, -863, -1761, 5663
0.338348, 1272, 344, 2481, -863, -1761, 5663
0.338483, 1272, 344, 2481, -863, -1761, 5663
0.338617, 1272, 344, 2481, -863, -1761, 5663
0.338751, 1272, 344, 2481, -863, -1761, 5663
0.338885, 633, 286, 2128, -1419, -1861, 5269
0.339019, 633, 286, 2128, -1419, -1861, 5269
0.339154, 633, 286, 2128, -1419, -1861, 5269
0.339289, 633, 286, 2128, -1419, -1861, 5269
0.339423, 633, 286, 2128, -1419, -1861, 5269
0.339558, 633, 286, 2128, -1419, -1861, 5269
0.339692, 633, 286, 2128, -1419, -1861, 5269
0.339826, 806, 275, 1999, -1429, -1633, 4903
0.339961, 806, 275, 1999, -1429, -1633, 4903
0.340096, 806, 275, 1999, -1429, -1633, 4903
0.340230, 806, 275, 1999, -1429, -1633, 4903
0.340364, 806, 275, 1999, -1429, -1633, 4903
0.340499, 806, 275, 1999, -1429, -1633, 4903
0.340633, 806, 275, 1999, -1429, -1633, 4903
0.340768, 806, 275, 1999, -1429, -1633, 4903
0.340902, 791, 297, 1942, -1233, -1491, 4331
0.341037, 791, 297, 1942, -1233, -1491, 4331
0.341171, 791, 297, 1942, -1233, -1491, 4331
0.341306, 791, 297, 1942, -1233, -1491, 4331
0.341440, 791, 297, 1942, -1233, -1491, 4331
0.341575, 791, 297, 1942, -1233, -1491, 4331
0.341709, 791, 297, 1942, -1233, -1491, 4331
0.341844, 791, 297, 1942, -1233, -1491, 4331
0.341978, 1040, 283, 1908, -1181, -1423, 3883
0.342113, 1040, 283, 1908, -1181, -1423, 3883
0.342247, 1040, 283, 1908, -1181, -1423, 3883
0.342382, 1040, 283, 1908, -1181, -1423, 3883
0.342517, 1040, 283, 1908, -1181, -1423, 3883
0.342652, 1040, 283, 1908, -1181, -1423, 3883
0.342786, 1040, 283, 1908, -1181, -1423, 3883
0.342921, 2235, 326, 2063, -1245, -1174, 3194
0.343056, 2235, 326, 2063, -1245, -1174, 3194
0.343190, 2235, 326, 2063, -1245, -1174, 3194
0.343325, 2235, 326, 2063, -1245, -1174, 3194
0.343460, 2235, 326, 2063, -1245, -1174, 3194
0.343594, 2235, 326, 2063, -1245, -1174, 3194
0.343729, 2235, 326, 2063, -1245, -1174, 3194
0.343863, 2235, 326, 2063, -1245, -1174, 3194
0.343998, 3258, 379, 2255, -1258, -641, 1651
0.344133, 3258, 379, 2255, -1258, -641, 1651
0.344268, 3258, 379, 2255, -1258, -641, 1651
0.344402, 3258, 379, 2255, -1258, -641, 1651
0.344537, 3258, 379, 2255, -1258, -641, 1651
0.344672, 3258, 379, 2255, -1258, -641, 1651
0.344806, 3258, 379, 2255, -1258, -641, 1651
0.344941, 2546, 333, 2552, -1070, 210, -170
0.345076, 2546, 333, 2552, -1070, 210, -170
0.345210, 2546, 333, 2552, -1070, 210, -170
0.345345, 2546, 333, 2552, -1070, 210, -170
0.345480, 2546, 333, 2552, -1070, 210, -170
0.345614, 2546, 333, 2552, -1070, 210, -170
0.345749, 2546, 333, 2552, -1070, 210, -170
0.345884, 2546, 333, 2552, -1070, 210, -170
0.346018, 2475, 529, 3329, -408, 1110, -1450
0.346153, 2475, 529, 3329, -408, 1110, -1450
0.346288, 2475, 529, 3329, -408, 1110, -1450
0.346422, 2475, 529, 3329, -408, 1110, -1450
0.346558, 2475, 529, 3329, -408, 1110, -1450
0.346692, 2475, 529, 3329, -408, 1110, -1450
0.346827, 2475, 529, 3329, -408, 1110, -1450
0.346962, 3972, 976, 4647, 1031, 1755, -3162
0.347096, 3972, 976, 4647, 1031, 1755, -3162
0.347231, 3972, 976, 4647, 1031, 1755, -3162
0.347366, 3972, 976, 4647, 1031, 1755, -3162
0.347500, 3972, 976, 4647, 1031, 1755, -3162
0.347635, 3972, 976, 4647, 1031, 1755, -3162
0.347770, 3972, 976, 4647, 1031, 1755, -3162
0.347904, 3972, 976, 4647, 1031, 1755, -3162
0.348039, 3092, 911, 5011, 3111, 2357, -5517
0.348174, 3092, 911, 5011, 3111, 2357, -5517
0.348308, 3092, 911, 5011, 3111, 2357, -5517
0.348443, 3092, 911, 5011, 3111, 2357, -5517
0.348577, 3092, 911, 5011, 3111, 2357, -5517
0.348712, 3092, 911, 5011, 3111, 2357, -5517
0.348847, 3092, 911, 5011, 3111, 2357, -5517
0.348981, -1340, 23, 2500, 4641, 2955, -6320
0.349116, -1340, 23, 2500, 4641, 2955, -6320
0.349251, -1340, 23, 2500, 4641, 2955, -6320
0.349390, -1340, 23, 2500, 4641, 2955, -6320
0.349525, -1340, 23, 2500, 4641, 2955, -6320
0.349659, -1340, 23, 2500, 4641, 2955, -6320
0.349794, -1340, 23, 2500, 4641, 2955, -6320
0.349928, -1340, 23, 2500, 4641, 2955, -6320
0.350063, -2650, 242, 179, 4721, 2834, -4675
0.350198, -2650, 242, 179, 4721, 2834, -4675
0.350333, -2650, 242, 179, 4721, 2834, -4675
0.350468, -2650, 242, 179, 4721, 2834, -4675
0.350602, -2650, 242, 179, 4721, 2834, -4675
0.350737, -2650, 242, 179, 4721, 2834, -4675
0.350872, -2650, 242, 179, 4721, 2834, -4675
0.351006, 1218, 1689, 1378, 4211, 1874, -3668
0.351141, 1218, 1689, 1378, 4211, 1874, -3668
0.351276, 1218, 1689, 1378, 4211, 1874, -3668
0.351410, 1218, 1689, 1378, 4211, 1874, -3668
0.351545, 1218, 1689, 1378, 4211, 1874, -3668
0.351680, 1218, 1689, 1378, 4211, 1874, -3668
0.351814, 1218, 1689, 1378, 4211, 1874, -3668
0.351949, 1218, 1689, 1378, 4211, 1874, -3668
0.352084, 88, 755, 2065, 3826, 1414, -4413
0.352218, 88, 755, 2065, 3826, 1414, -4413
0.352353, 88, 755, 2065, 3826, 1414, -4413
0.352488, 88, 755, 2065, 3826, 1414, -4413
0.352622, 88, 755, 2065, 3826, 1414, -4413
0.352757, 88, 755, 2065, 3826, 1414, -4413
0.352892, 88, 755, 2065, 3826, 1414, -4413
0.353026, -5673, -1367, -277, 3036, 1543, -2802
0.353162, -5673, -1367, -277, 3036, 1543, -2802
0.353297, -5673, -1367, -277, 3036, 1543, -2802
0.353431, -5673, -1367, -277, 3036, 1543, -2802
0.353566, -5673, -1367, -277, 3036, 1543, -2802
0.353701, -5673, -1367, -277, 3036, 1543, -2802
0.353836, -5673, -1367, -277, 3036, 1543, -2802
0.353971, -5673, -1367, -277, 3036, 1543, -2802
0.354105, -6142, -945, -1124, 1631, 1153, 1622
0.354240, -6142, -945, -1124, 1631, 1153, 1622
0.354375, -6142, -945, -1124, 1631, 1153, 1622
0.354510, -6142, -945, -1124, 1631, 1153, 1622
0.354645, -6142, -945, -1124, 1631, 1153, 1622
0.354780, -6142, -945, -1124, 1631, 1153, 1622
0.354914, -6142, -945, -1124, 1631, 1153, 1622
0.355049, -2699, 338, 1050, 308, 381, 4886
0.355184, -2699, 338, 1050, 308, 381, 4886
0.355319, -2699, 338, 1050, 308, 381, 4886
0.355454, -2699, 338, 1050, 308, 381, 4886
0.355588, -2699, 338, 1050, 308, 381, 4886
0.355723, -2699, 338, 1050, 308, 381, 4886
0.355858, -2699, 338, 1050, 308, 381, 4886
0.355992, -2699, 338, 1050, 308, 381, 4886
0.356127, -583, 452, 2309, -451, -630, 5926
0.356262, -583, 452, 2309, -451, -630, 5926
0.356397, -583, 452, 2309, -451, -630, 5926
0.356531, -583, 452, 2309, -451, -630, 5926
0.356666, -583, 452, 2309, -451, -630, 5926
0.356801, -583, 452, 2309, -451, -630, 5926
0.356935, -583, 452, 2309, -451, -630, 5926
0.357070, 38, 276, 2028, -832, -1664, 6075
0.357205, 38, 276, 2028, -832, -1664, 6075
0.357339, 38, 276, 2028, -832, -1664, 6075
0.357474, 38, 276, 2028, -832, -1664, 6075
0.357609, 38, 276, 2028, -832, -1664, 6075
0.357743, 38, 276, 2028, -832, -1664, 6075
0.357878, 38, 276, 2028, -832, -1664, 6075
0.358013, 38, 276, 2028, -832, -1664, 6075
0.358148, 262, 308, 2028, -1077, -2083, 6045
0.358282, 262, 308, 2028, -1077, -2083, 6045
0.358417, 262, 308, 2028, -1077, -2083, 6045
0.358552, 262, 308, 2028, -1077, -2083, 6045
0.358687, 262, 308, 2028, -1077, -2083, 6045
0.358821, 262, 308, 2028, -1077, -2083, 6045
0.358956, 262, 308, 2028, -1077, -2083, 6045
0.359091, 296, 288, 2079, -1181, -2310, 5898
0.359226, 296, 288, 2079, -1181, -2310, 5898
0.359360, 296, 288, 2079, -1181, -2310, 5898
0.359495, 296, 288, 2079, -1181, -2310, 5898
0.359630, 296, 288, 2079, -1181, -2310, 5898
0.359764, 296, 288, 2079, -1181, -2310, 5898
0.359899, 296, 288, 2079, -1181, -2310, 5898
0.360034, 296, 288, 2079, -1181, -2310, 5898
0.360168, 267, 252, 1955, -1102, -2817, 5683
0.360303, 267, 252, 1955, -1102, -2817, 5683
0.360438, 267, 252, 1955, -1102, -2817, 5683
0.360572, 267, 252, 1955, -1102, -2817, 5683
0.360707, 267, 252, 1955, -1102, -2817, 5683
0.360842, 267, 252, 1955, -1102, -2817, 5683
0.360976, 267, 252, 1955, -1102, -2817, 5683
0.361111, 445, 294, 1986, -1014, -3044, 5481
0.361246, 445, 294, 1986, -1014, -3044, 5481
0.361380, 445, 294, 1986, -1014, -3044, 5481
0.361515, 445, 294, 1986, -1014, -3044, 5481
0.361657, 445, 294, 1986, -1014, -3044, 5481
0.361792, 445, 294, 1986, -1014, -3044, 5481
0.361927, 445, 294, 1986, -1014, -3044, 5481
0.362062, 445, 294, 1986, -1014, -3044, 5481
0.362196, 771, 326, 2073, -1062, -2711, 5229
0.362331, 771, 326, 2073, -1062, -2711, 5229
0.362466, 771, 326, 2073, -1062, -2711, 5229
0.362601, 771, 326, 2073, -1062, -2711, 5229
0.362735, 771, 326, 2073, -1062, -2711, 5229
0.362870, 771, 326, 2073, -1062, -2711, 5229
0.363005, 771, 326, 2073, -1062, -2711, 5229
0.363139, 986, 299, 2008, -1203, -2110, 4846
0.363274, 986, 299, 2008, -1203, -2110, 4846
0.363409, 986, 299, 2008, -1203, -2110, 4846
0.363544, 986, 299, 2008, -1203, -2110, 4846
0.363678, 986, 299, 2008, -1203, -2110, 4846
0.363813, 986, 299, 2008, -1203, -2110, 4846
0.363947, 986, 299, 2008, -1203, -2110, 4846
0.364082, 986, 299, 2008, -1203, -2110, 4846
0.364217, 1414, 254, 1798, -1421, -1394, 4303
0.364351, 1414, 254, 1798, -1421, -1394, 4303
0.364486, 1414, 254, 1798, -1421, -1394, 4303
0.364621, 1414, 254, 1798, -1421, -1394, 4303
0.364755, 1414, 254, 1798, -1421, -1394, 4303
0.364890, 1414, 254, 1798, -1421, -1394, 4303
0.365025, 1414, 254, 1798, -1421, -1394, 4303
