Time, ax, ay, az, gx, gy, gz
0.000015, 733, 303, 2626, -35, -163, 2365
0.000181, 733, 303, 2626, -35, -163, 2365
0.000320, 733, 303, 2626, -35, -163, 2365
0.000458, 733, 303, 2626, -35, -163, 2365
0.000595, 733, 303, 2626, -35, -163, 2365
0.000733, 733, 303, 2626, -35, -163, 2365
0.000873, 733, 303, 2626, -35, -163, 2365
0.001005, 934, 43, 3603, 389, -423, 1705
0.001144, 934, 43, 3603, 389, -423, 1705
0.001280, 934, 43, 3603, 389, -423, 1705
0.001417, 934, 43, 3603, 389, -423, 1705
0.001554, 934, 43, 3603, 389, -423, 1705
0.001691, 934, 43, 3603, 389, -423, 1705
0.001830, 934, 43, 3603, 389, -423, 1705
0.001967, -235, 407, 4474, 1619, -563, 1217
0.002104, -235, 407, 4474, 1619, -563, 1217
0.002240, -235, 407, 4474, 1619, -563, 1217
0.002377, -235, 407, 4474, 1619, -563, 1217
0.002514, -235, 407, 4474, 1619, -563, 1217
0.002651, -235, 407, 4474, 1619, -563, 1217
0.002788, -235, 407, 4474, 1619, -563, 1217
0.002925, -235, 407, 4474, 1619, -563, 1217
0.003061, -2550, 1619, 4817, 3232, -634, 1800
0.003198, -2550, 1619, 4817, 3232, -634, 1800
0.003335, -2550, 1619, 4817, 3232, -634, 1800
0.003472, -2550, 1619, 4817, 3232, -634, 1800
0.003609, -2550, 1619, 4817, 3232, -634, 1800
0.003746, -2550, 1619, 4817, 3232, -634, 1800
0.003882, -2550, 1619, 4817, 3232, -634, 1800
0.004019, -1288, 490, 2266, 4056, -930, 3355
0.004156, -1288, 490, 2266, 4056, -930, 3355
0.004293, -1288, 490, 2266, 4056, -930, 3355
0.004430, -1288, 490, 2266, 4056, -930, 3355
0.004567, -1288, 490, 2266, 4056, -930, 3355
0.004703, -1288, 490, 2266, 4056, -930, 3355
0.004840, -1288, 490, 2266, 4056, -930, 3355
0.004977, -1288, 490, 2266, 4056, -930, 3355
0.005114, 3614, -2151, -1000, 2815, -1711, 3224
0.005254, 3614, -2151, -1000, 2815, -1711, 3224
0.005391, 3614, -2151, -1000, 2815, -1711, 3224
0.005528, 3614, -2151, -1000, 2815, -1711, 3224
0.005665, 3614, -2151, -1000, 2815, -1711, 3224
0.005802, 3614, -2151, -1000, 2815, -1711, 3224
0.005939, 3614, -2151, -1000, 2815, -1711, 3224
0.006076, 3226, -771, 104, 1041, -2372, 688
0.006213, 3226, -771, 104, 1041, -2372, 688
0.006352, 3226, -771, 104, 1041, -2372, 688
0.006491, 3226, -771, 104, 1041, -2372, 688
0.006628, 3226, -771, 104, 1041, -2372, 688
0.006765, 3226, -771, 104, 1041, -2372, 688
0.006902, 3226, -771, 104, 1041, -2372, 688
0.007038, -1173, 1338, 2593, 788, -1800, -480
0.007175, -1173, 1338, 2593, 788, -1800, -480
0.007312, -1173, 1338, 2593, 788, -1800, -480
0.007449, -1173, 1338, 2593, 788, -1800, -480
0.007586, -1173, 1338, 2593, 788, -1800, -480
0.007723, -1173, 1338, 2593, 788, -1800, -480
0.007859, -1173, 1338, 2593, 788, -1800, -480
0.007996, -1173, 1338, 2593, 788, -1800, -480
0.008133, -2454, 1236, 4255, 1880, -408, 644
0.008270, -2454, 1236, 4255, 1880, -408, 644
0.008407, -2454, 1236, 4255, 1880, -408, 644
0.008543, -2454, 1236, 4255, 1880, -408, 644
0.008680, -2454, 1236, 4255, 1880, -408, 644
0.008817, -2454, 1236, 4255, 1880, -408, 644
0.008953, -2454, 1236, 4255, 1880, -408, 644
0.009090, -48, -53, 2358, 2995, 41, 1857
0.009227, -48, -53, 2358, 2995, 41, 1857
0.009364, -48, -53, 2358, 2995, 41, 1857
0.009501, -48, -53, 2358, 2995, 41, 1857
0.009638, -48, -53, 2358, 2995, 41, 1857
0.009774, -48, -53, 2358, 2995, 41, 1857
0.009912, -48, -53, 2358, 2995, 41, 1857
0.010049, -48, -53, 2358, 2995, 41, 1857
0.010186, 3184, -1396, -1682, 1757, -672, 1351
0.010323, 3184, -1396, -1682, 1757, -672, 1351
0.010459, 3184, -1396, -1682, 1757, -672, 1351
0.010596, 3184, -1396, -1682, 1757, -672, 1351
0.010733, 3184, -1396, -1682, 1757, -672, 1351
0.010869, 3184, -1396, -1682, 1757, -672, 1351
0.011006, 3184, -1396, -1682, 1757, -672, 1351
0.011143, 1870, -118, -962, -692, -1268, -666
0.011280, 1870, -118, -962, -692, -1268, -666
0.011417, 1870, -118, -962, -692, -1268, -666
0.011553, 1870, -118, -962, -692, -1268, -666
0.011690, 1870, -118, -962, -692, -1268, -666
0.011827, 1870, -118, -962, -692, -1268, -666
0.011963, 1870, -118, -962, -692, -1268, -666
0.012100, -1730, 953, 1458, -1465, -833, -1133
0.012236, -1730, 953, 1458, -1465, -833, -1133
0.012373, -1730, 953, 1458, -1465, -833, -1133
0.012510, -1730, 953, 1458, -1465, -833, -1133
0.012678, -1730, 953, 1458, -1465, -833, -1133
0.012822, -1730, 953, 1458, -1465, -833, -1133
0.012959, -1730, 953, 1458, -1465, -833, -1133
0.013096, -1730, 953, 1458, -1465, -833, -1133
0.013232, -1182, -60, 2193, -1237, 199, 149
0.013369, -1182, -60, 2193, -1237, 199, 149
0.013506, -1182, -60, 2193, -1237, 199, 149
0.013643, -1182, -60, 2193, -1237, 199, 149
0.013780, -1182, -60, 2193, -1237, 199, 149
0.013917, -1182, -60, 2193, -1237, 199, 149
0.014054, -1182, -60, 2193, -1237, 199, 149
0.014190, 871, -273, 1943, -1059, 652, 633
0.014327, 871, -273, 1943, -1059, 652, 633
0.014464, 871, -273, 1943, -1059, 652, 633
0.014601, 871, -273, 1943, -1059, 652, 633
0.014737, 871, -273, 1943, -1059, 652, 633
0.014874, 871, -273, 1943, -1059, 652, 633
0.015011, 871, -273, 1943, -1059, 652, 633
0.015148, 621, 431, 1233, -1427, 469, 274
0.015285, 621, 431, 1233, -1427, 469, 274
0.015421, 621, 431, 1233, -1427, 469, 274
0.015558, 621, 431, 1233, -1427, 469, 274
0.015695, 621, 431, 1233, -1427, 469, 274
0.015831, 621, 431, 1233, -1427, 469, 274
0.015968, 621, 431, 1233, -1427, 469, 274
0.016105, 621, 431, 1233, -1427, 469, 274
0.016241, 182, 270, 1687, -2008, 239, 68
0.016378, 182, 270, 1687, -2008, 239, 68
0.016515, 182, 270, 1687, -2008, 239, 68
0.016652, 182, 270, 1687, -2008, 239, 68
0.016788, 182, 270, 1687, -2008, 239, 68
0.016925, 182, 270, 1687, -2008, 239, 68
0.017062, 182, 270, 1687, -2008, 239, 68
0.017199, 730, -363, 2698, -1771, 27, -180
0.017336, 730, -363, 2698, -1771, 27, -180
0.017473, 730, -363, 2698, -1771, 27, -180
0.017609, 730, -363, 2698, -1771, 27, -180
0.017746, 730, -363, 2698, -1771, 27, -180
0.017883, 730, -363, 2698, -1771, 27, -180
0.018020, 730, -363, 2698, -1771, 27, -180
0.018157, 730, -363, 2698, -1771, 27, -180
0.018293, 1139, -423, 2850, -1067, -129, -684
0.018430, 1139, -423, 2850, -1067, -129, -684
0.018567, 1139, -423, 2850, -1067, -129, -684
0.018704, 1139, -423, 2850, -1067, -129, -684
0.018840, 1139, -423, 2850, -1067, -129, -684
0.018977, 1139, -423, 2850, -1067, -129, -684
0.019114, 1139, -423, 2850, -1067, -129, -684
0.019250, 1288, -42, 2365, -569, 38, -1374
0.019387, 1288, -42, 2365, -569, 38, -1374
0.019524, 1288, -42, 2365, -569, 38, -1374
0.019661, 1288, -42, 2365, -569, 38, -1374
0.019798, 1288, -42, 2365, -569, 38, -1374
0.019934, 1288, -42, 2365, -569, 38, -1374
0.020071, 1288, -42, 2365, -569, 38, -1374
0.020208, 1114, 205, 1857, -383, 519, -2174
0.020345, 1114, 205, 1857, -383, 519, -2174
0.020481, 1114, 205, 1857, -383, 519, -2174
0.020618, 1114, 205, 1857, -383, 519, -2174
0.020755, 1114, 205, 1857, -383, 519, -2174
0.020892, 1114, 205, 1857, -383, 519, -2174
0.021028, 1114, 205, 1857, -383, 519, -2174
0.021165, 1114, 205, 1857, -383, 519, -2174
0.021302, 377, 56, 1795, -374, 1053, -2720
0.021439, 377, 56, 1795, -374, 1053, -2720
0.021575, 377, 56, 1795, -374, 1053, -2720
0.021712, 377, 56, 1795, -374, 1053, -2720
0.021849, 377, 56, 1795, -374, 1053, -2720
0.021986, 377, 56, 1795, -374, 1053, -2720
0.022123, 377, 56, 1795, -374, 1053, -2720
0.022259, -260, -103, 2069, -320, 1546, -2759
0.022396, -260, -103, 2069, -320, 1546, -2759
0.022533, -260, -103, 2069, -320, 1546, -2759
0.022670, -260, -103, 2069, -320, 1546, -2759
0.022806, -260, -103, 2069, -320, 1546, -2759
0.022943, -260, -103, 2069, -320, 1546, -2759
0.023080, -260, -103, 2069, -320, 1546, -2759
0.023217, -260, -103, 2069, -320, 1546, -2759
0.023353, -270, -59, 2185, -193, 1952, -2548
0.023490, -270, -59, 2185, -193, 1952, -2548
0.023627, -270, -59, 2185, -193, 1952, -2548
0.023764, -270, -59, 2185, -193, 1952, -2548
0.023900, -270, -59, 2185, -193, 1952, -2548
0.024037, -270, -59, 2185, -193, 1952, -2548
0.024174, -270, -59, 2185, -193, 1952, -2548
0.024311, -249, -35, 2141, -138, 2128, -2383
0.024447, -249, -35, 2141, -138, 2128, -2383
0.024584, -249, -35, 2141, -138, 2128, -2383
0.024721, -249, -35, 2141, -138, 2128, -2383
0.024858, -249, -35, 2141, -138, 2128, -2383
0.024994, -249, -35, 2141, -138, 2128, -2383
0.025131, -249, -35, 2141, -138, 2128, -2383
0.025268, -640, -133, 2311, -133, 2058, -2172
0.025411, -640, -133, 2311, -133, 2058, -2172
0.025548, -640, -133, 2311, -133, 2058, -2172
0.025685, -640, -133, 2311, -133, 2058, -2172
0.025823, -640, -133, 2311, -133, 2058, -2172
0.025959, -640, -133, 2311, -133, 2058, -2172
0.026096, -640, -133, 2311, -133, 2058, -2172
0.026233, -640, -133, 2311, -133, 2058, -2172
0.026370, -967, -184, 2736, 48, 1824, -1738
0.026507, -967, -184, 2736, 48, 1824, -1738
0.026643, -967, -184, 2736, 48, 1824, -1738
0.026780, -967, -184, 2736, 48, 1824, -1738
0.026917, -967, -184, 2736, 48, 1824, -1738
0.027053, -967, -184, 2736, 48, 1824, -1738
0.027190, -967, -184, 2736, 48, 1824, -1738
0.027327, -1255, -101, 2999, 449, 1436, -1154
0.027464, -1255, -101, 2999, 449, 1436, -1154
0.027600, -1255, -101, 2999, 449, 1436, -1154
0.027737, -1255, -101, 2999, 449, 1436, -1154
0.027874, -1255, -101, 2999, 449, 1436, -1154
0.028011, -1255, -101, 2999, 449, 1436, -1154
0.028147, -1255, -101, 2999, 449, 1436, -1154
0.028284, -1255, -101, 2999, 449, 1436, -1154
0.028421, -2060, 4, 2868, 879, 926, -279
0.028558, -2060, 4, 2868, 879, 926, -279
0.028694, -2060, 4, 2868, 879, 926, -279
0.028831, -2060, 4, 2868, 879, 926, -279
0.028968, -2060, 4, 2868, 879, 926, -279
0.029104, -2060, 4, 2868, 879, 926, -279
0.029241, -2060, 4, 2868, 879, 926, -279
0.029378, -1865, 57, 2702, 1130, 276, 956
0.029515, -1865, 57, 2702, 1130, 276, 956
0.029651, -1865, 57, 2702, 1130, 276, 956
0.029788, -1865, 57, 2702, 1130, 276, 956
0.029925, -1865, 57, 2702, 1130, 276, 956
0.030062, -1865, 57, 2702, 1130, 276, 956
0.030199, -1865, 57, 2702, 1130, 276, 956
0.030335, -922, 116, 2816, 1255, -481, 1792
0.030472, -922, 116, 2816, 1255, -481, 1792
0.030609, -922, 116, 2816, 1255, -481, 1792
0.030746, -922, 116, 2816, 1255, -481, 1792
0.030883, -922, 116, 2816, 1255, -481, 1792
0.031019, -922, 116, 2816, 1255, -481, 1792
0.031156, -922, 116, 2816, 1255, -481, 1792
0.031293, -922, 116, 2816, 1255, -481, 1792
0.031429, -1518, -53, 3148, 1562, -1078, 2379
0.031566, -1518, -53, 3148, 1562, -1078, 2379
0.031703, -1518, -53, 3148, 1562, -1078, 2379
0.031840, -1518, -53, 3148, 1562, -1078, 2379
0.031976, -1518, -53, 3148, 1562, -1078, 2379
0.032113, -1518, -53, 3148, 1562, -1078, 2379
0.032250, -1518, -53, 3148, 1562, -1078, 2379
0.032386, -170, -268, 1886, 1728, -1590, 3147
0.032523, -170, -268, 1886, 1728, -1590, 3147
0.032660, -170, -268, 1886, 1728, -1590, 3147
0.032797, -170, -268, 1886, 1728, -1590, 3147
0.032934, -170, -268, 1886, 1728, -1590, 3147
0.033070, -170, -268, 1886, 1728, -1590, 3147
0.033207, -170, -268, 1886, 1728, -1590, 3147
0.033344, -170, -268, 1886, 1728, -1590, 3147
0.033480, 3129, 246, -604, 643, -2170, 2422
0.033617, 3129, 246, -604, 643, -2170, 2422
0.033754, 3129, 246, -604, 643, -2170, 2422
0.033891, 3129, 246, -604, 643, -2170, 2422
0.034028, 3129, 246, -604, 643, -2170, 2422
0.034165, 3129, 246, -604, 643, -2170, 2422
0.034301, 3129, 246, -604, 643, -2170, 2422
0.034438, 1952, 573, 202, -1025, -2167, 364
0.034575, 1952, 573, 202, -1025, -2167, 364
0.034712, 1952, 573, 202, -1025, -2167, 364
0.034849, 1952, 573, 202, -1025, -2167, 364
0.034986, 1952, 573, 202, -1025, -2167, 364
0.035122, 1952, 573, 202, -1025, -2167, 364
0.035259, 1952, 573, 202, -1025, -2167, 364
0.035396, 1952, 573, 202, -1025, -2167, 364
0.035533, -1356, 78, 2744, -1229, -1184, -66
0.035670, -1356, 78, 2744, -1229, -1184, -66
0.035806, -1356, 78, 2744, -1229, -1184, -66
0.035943, -1356, 78, 2744, -1229, -1184, -66
0.036080, -1356, 78, 2744, -1229, -1184, -66
0.036216, -1356, 78, 2744, -1229, -1184, -66
0.036353, -1356, 78, 2744, -1229, -1184, -66
0.036490, -1142, -154, 2992, -357, -148, 1132
0.036627, -1142, -154, 2992, -357, -148, 1132
0.036764, -1142, -154, 2992, -357, -148, 1132
0.036901, -1142, -154, 2992, -357, -148, 1132
0.037037, -1142, -154, 2992, -357, -148, 1132
0.037174, -1142, -154, 2992, -357, -148, 1132
0.037311, -1142, -154, 2992, -357, -148, 1132
0.037448, 937, -192, 3253, 400, 82, 1520
0.037585, 937, -192, 3253, 400, 82, 1520
0.037721, 937, -192, 3253, 400, 82, 1520
0.037858, 937, -192, 3253, 400, 82, 1520
0.037999, 937, -192, 3253, 400, 82, 1520
0.038136, 937, -192, 3253, 400, 82, 1520
0.038273, 937, -192, 3253, 400, 82, 1520
0.038409, 937, -192, 3253, 400, 82, 1520
0.038546, 1536, -83, 3810, 1348, -72, 763
0.038683, 1536, -83, 3810, 1348, -72, 763
0.038819, 1536, -83, 3810, 1348, -72, 763
0.038956, 1536, -83, 3810, 1348, -72, 763
0.039093, 1536, -83, 3810, 1348, -72, 763
0.039229, 1536, -83, 3810, 1348, -72, 763
0.039366, 1536, -83, 3810, 1348, -72, 763
0.039502, 1449, 218, 1301, 1671, -201, -245
0.039639, 1449, 218, 1301, 1671, -201, -245
0.039776, 1449, 218, 1301, 1671, -201, -245
0.039912, 1449, 218, 1301, 1671, -201, -245
0.040049, 1449, 218, 1301, 1671, -201, -245
0.040185, 1449, 218, 1301, 1671, -201, -245
0.040322, 1449, 218, 1301, 1671, -201, -245
0.040459, 1449, 218, 1301, 1671, -201, -245
0.040595, 1172, 106, -874, 461, -298, -1338
0.040732, 1172, 106, -874, 461, -298, -1338
0.040869, 1172, 106, -874, 461, -298, -1338
0.041005, 1172, 106, -874, 461, -298, -1338
0.041142, 1172, 106, -874, 461, -298, -1338
0.041278, 1172, 106, -874, 461, -298, -1338
0.041415, 1172, 106, -874, 461, -298, -1338
0.041552, -1273, 13, 1470, -549, 23, -1652
0.041688, -1273, 13, 1470, -549, 23, -1652
0.041828, -1273, 13, 1470, -549, 23, -1652
0.041960, -1273, 13, 1470, -549, 23, -1652
0.042097, -1273, 13, 1470, -549, 23, -1652
0.042233, -1273, 13, 1470, -549, 23, -1652
0.042370, -1273, 13, 1470, -549, 23, -1652
0.042507, -4169, 471, 4641, 146, 818, -38
0.042644, -4169, 471, 4641, 146, 818, -38
0.042781, -4169, 471, 4641, 146, 818, -38
0.042917, -4169, 471, 4641, 146, 818, -38
0.043054, -4169, 471, 4641, 146, 818, -38
0.043186, -4169, 471, 4641, 146, 818, -38
0.043323, -4169, 471, 4641, 146, 818, -38
0.043459, -4169, 471, 4641, 146, 818, -38
0.043596, -3548, 289, 4664, 1751, 1114, 2730
0.043733, -3548, 289, 4664, 1751, 1114, 2730
0.043870, -3548, 289, 4664, 1751, 1114, 2730
0.044006, -3548, 289, 4664, 1751, 1114, 2730
0.044143, -3548, 289, 4664, 1751, 1114, 2730
0.044280, -3548, 289, 4664, 1751, 1114, 2730
0.044417, -3548, 289, 4664, 1751, 1114, 2730
0.044553, 264, -449, 3026, 2504, 17, 4200
0.044690, 264, -449, 3026, 2504, 17, 4200
0.044827, 264, -449, 3026, 2504, 17, 4200
0.044964, 264, -449, 3026, 2504, 17, 4200
0.045100, 264, -449, 3026, 2504, 17, 4200
0.045237, 264, -449, 3026, 2504, 17, 4200
0.045374, 264, -449, 3026, 2504, 17, 4200
0.045511, 264, -449, 3026, 2504, 17, 4200
0.045647, 1695, 395, 2761, 2371, -1605, 3375
0.045784, 1695, 395, 2761, 2371, -1605, 3375
0.045922, 1695, 395, 2761, 2371, -1605, 3375
0.046058, 1695, 395, 2761, 2371, -1605, 3375
0.046195, 1695, 395, 2761, 2371, -1605, 3375
0.046332, 1695, 395, 2761, 2371, -1605, 3375
0.046469, 1695, 395, 2761, 2371, -1605, 3375
0.046605, 698, 607, 2336, 2262, -2428, 2228
0.046742, 698, 607, 2336, 2262, -2428, 2228
0.046879, 698, 607, 2336, 2262, -2428, 2228
0.047016, 698, 607, 2336, 2262, -2428, 2228
0.047152, 698, 607, 2336, 2262, -2428, 2228
0.047289, 698, 607, 2336, 2262, -2428, 2228
0.047426, 698, 607, 2336, 2262, -2428, 2228
0.047563, 1602, -766, 839, 1856, -2453, 1517
0.047699, 1602, -766, 839, 1856, -2453, 1517
0.047836, 1602, -766, 839, 1856, -2453, 1517
0.047973, 1602, -766, 839, 1856, -2453, 1517
0.048110, 1602, -766, 839, 1856, -2453, 1517
0.048246, 1602, -766, 839, 1856, -2453, 1517
0.048383, 1602, -766, 839, 1856, -2453, 1517
0.048520, 1602, -766, 839, 1856, -2453, 1517
0.048656, 1892, -296, 424, 1181, -2092, 380
0.048793, 1892, -296, 424, 1181, -2092, 380
0.048930, 1892, -296, 424, 1181, -2092, 380
0.049067, 1892, -296, 424, 1181, -2092, 380
0.049203, 1892, -296, 424, 1181, -2092, 380
0.049340, 1892, -296, 424, 1181, -2092, 380
0.049477, 1892, -296, 424, 1181, -2092, 380
0.049613, 449, 723, 1713, 668, -1196, -490
0.049750, 449, 723, 1713, 668, -1196, -490
0.049888, 449, 723, 1713, 668, -1196, -490
0.050024, 449, 723, 1713, 668, -1196, -490
0.050161, 449, 723, 1713, 668, -1196, -490
0.050298, 449, 723, 1713, 668, -1196, -490
0.050434, 449, 723, 1713, 668, -1196, -490
0.050571, 449, 723, 1713, 668, -1196, -490
0.050708, -1023, 264, 3619, 1080, 105, -374
0.050849, -1023, 264, 3619, 1080, 105, -374
0.050986, -1023, 264, 3619, 1080, 105, -374
0.051123, -1023, 264, 3619, 1080, 105, -374
0.051260, -1023, 264, 3619, 1080, 105, -374
0.051397, -1023, 264, 3619, 1080, 105, -374
0.051533, -1023, 264, 3619, 1080, 105, -374
0.051670, -1579, -506, 3036, 2216, 842, 534
0.051807, -1579, -506, 3036, 2216, 842, 534
0.051944, -1579, -506, 3036, 2216, 842, 534
0.052081, -1579, -506, 3036, 2216, 842, 534
0.052217, -1579, -506, 3036, 2216, 842, 534
0.052354, -1579, -506, 3036, 2216, 842, 534
0.052491, -1579, -506, 3036, 2216, 842, 534
0.052627, -1579, -506, 3036, 2216, 842, 534
0.052764, 30, -528, -26, 2035, 578, 1322
0.052901, 30, -528, -26, 2035, 578, 1322
0.053038, 30, -528, -26, 2035, 578, 1322
0.053175, 30, -528, -26, 2035, 578, 1322
0.053312, 30, -528, -26, 2035, 578, 1322
0.053448, 30, -528, -26, 2035, 578, 1322
0.053585, 30, -528, -26, 2035, 578, 1322
0.053720, 1428, 82, -807, 286, -58, 916
0.053855, 1428, 82, -807, 286, -58, 916
0.053990, 1428, 82, -807, 286, -58, 916
0.054124, 1428, 82, -807, 286, -58, 916
0.054259, 1428, 82, -807, 286, -58, 916
0.054393, 1428, 82, -807, 286, -58, 916
0.054528, 1428, 82, -807, 286, -58, 916
0.054662, 438, 239, 1340, -1036, -275, 61
0.054797, 438, 239, 1340, -1036, -275, 61
0.054932, 438, 239, 1340, -1036, -275, 61
0.055066, 438, 239, 1340, -1036, -275, 61
0.055201, 438, 239, 1340, -1036, -275, 61
0.055335, 438, 239, 1340, -1036, -275, 61
0.055470, 438, 239, 1340, -1036, -275, 61
0.055604, 438, 239, 1340, -1036, -275, 61
0.055739, -1267, 125, 2751, -1045, 27, 194
0.055873, -1267, 125, 2751, -1045, 27, 194
0.056008, -1267, 125, 2751, -1045, 27, 194
0.056143, -1267, 125, 2751, -1045, 27, 194
0.056277, -1267, 125, 2751, -1045, 27, 194
0.056412, -1267, 125, 2751, -1045, 27, 194
0.056547, -1267, 125, 2751, -1045, 27, 194
0.056681, -1267, 125, 2751, -1045, 27, 194
0.056816, -1332, 103, 2917, -515, 197, 1159
0.056950, -1332, 103, 2917, -515, 197, 1159
0.057085, -1332, 103, 2917, -515, 197, 1159
0.057220, -1332, 103, 2917, -515, 197, 1159
0.057354, -1332, 103, 2917, -515, 197, 1159
0.057489, -1332, 103, 2917, -515, 197, 1159
0.057623, -1332, 103, 2917, -515, 197, 1159
0.057758, -590, 275, 3530, 84, -222, 1897
0.057893, -590, 275, 3530, 84, -222, 1897
0.058028, -590, 275, 3530, 84, -222, 1897
0.058162, -590, 275, 3530, 84, -222, 1897
0.058297, -590, 275, 3530, 84, -222, 1897
0.058428, -590, 275, 3530, 84, -222, 1897
0.058564, -590, 275, 3530, 84, -222, 1897
0.058699, -590, 275, 3530, 84, -222, 1897
0.058833, 162, 312, 3382, 782, -1053, 2138
0.058968, 162, 312, 3382, 782, -1053, 2138
0.059102, 162, 312, 3382, 782, -1053, 2138
0.059237, 162, 312, 3382, 782, -1053, 2138
0.059371, 162, 312, 3382, 782, -1053, 2138
0.059505, 162, 312, 3382, 782, -1053, 2138
0.059640, 162, 312, 3382, 782, -1053, 2138
0.059776, 2038, -468, 1709, 943, -1905, 1623
0.059920, 2038, -468, 1709, 943, -1905, 1623
0.060054, 2038, -468, 1709, 943, -1905, 1623
0.060189, 2038, -468, 1709, 943, -1905, 1623
0.060323, 2038, -468, 1709, 943, -1905, 1623
0.060458, 2038, -468, 1709, 943, -1905, 1623
0.060592, 2038, -468, 1709, 943, -1905, 1623
0.060726, 2038, -468, 1709, 943, -1905, 1623
0.060861, 2425, -571, 939, 514, -2253, 44
0.060995, 2425, -571, 939, 514, -2253, 44
0.061130, 2425, -571, 939, 514, -2253, 44
0.061264, 2425, -571, 939, 514, -2253, 44
0.061399, 2425, -571, 939, 514, -2253, 44
0.061533, 2425, -571, 939, 514, -2253, 44
0.061667, 2425, -571, 939, 514, -2253, 44
0.061802, -261, 290, 1847, 367, -1648, -994
0.061937, -261, 290, 1847, 367, -1648, -994
0.062071, -261, 290, 1847, 367, -1648, -994
0.062206, -261, 290, 1847, 367, -1648, -994
0.062341, -261, 290, 1847, 367, -1648, -994
0.062475, -261, 290, 1847, 367, -1648, -994
0.062610, -261, 290, 1847, 367, -1648, -994
0.062744, -261, 290, 1847, 367, -1648, -994
0.062879, -1035, 260, 3090, 858, -470, -405
0.063014, -1035, 260, 3090, 858, -470, -405
0.063148, -1035, 260, 3090, 858, -470, -405
0.063283, -1035, 260, 3090, 858, -470, -405
0.063418, -1035, 260, 3090, 858, -470, -405
0.063552, -1035, 260, 3090, 858, -470, -405
0.063687, -1035, 260, 3090, 858, -470, -405
0.063832, 1300, -119, 2609, 1529, 300, -71
0.063968, 1300, -119, 2609, 1529, 300, -71
0.064103, 1300, -119, 2609, 1529, 300, -71
0.064237, 1300, -119, 2609, 1529, 300, -71
0.064372, 1300, -119, 2609, 1529, 300, -71
0.064507, 1300, -119, 2609, 1529, 300, -71
0.064641, 1300, -119, 2609, 1529, 300, -71
0.064776, 1300, -119, 2609, 1529, 300, -71
0.064911, 1610, 135, 791, 1262, 422, -1084
0.065045, 1610, 135, 791, 1262, 422, -1084
0.065180, 1610, 135, 791, 1262, 422, -1084
0.065315, 1610, 135, 791, 1262, 422, -1084
0.065449, 1610, 135, 791, 1262, 422, -1084
0.065584, 1610, 135, 791, 1262, 422, -1084
0.065719, 1610, 135, 791, 1262, 422, -1084
0.065854, -580, 153, 744, 272, 473, -1713
0.065988, -580, 153, 744, 272, 473, -1713
0.066123, -580, 153, 744, 272, 473, -1713
0.066258, -580, 153, 744, 272, 473, -1713
0.066392, -580, 153, 744, 272, 473, -1713
0.066527, -580, 153, 744, 272, 473, -1713
0.066661, -580, 153, 744, 272, 473, -1713
0.066796, -580, 153, 744, 272, 473, -1713
0.066931, -634, -196, 2370, -17, 622, -1233
0.067066, -634, -196, 2370, -17, 622, -1233
0.067200, -634, -196, 2370, -17, 622, -1233
0.067335, -634, -196, 2370, -17, 622, -1233
0.067470, -634, -196, 2370, -17, 622, -1233
0.067604, -634, -196, 2370, -17, 622, -1233
0.067739, -634, -196, 2370, -17, 622, -1233
0.067873, 62, -76, 3307, 578, 700, -1033
0.068008, 62, -76, 3307, 578, 700, -1033
0.068143, 62, -76, 3307, 578, 700, -1033
0.068278, 62, -76, 3307, 578, 700, -1033
0.068412, 62, -76, 3307, 578, 700, -1033
0.068547, 62, -76, 3307, 578, 700, -1033
0.068681, 62, -76, 3307, 578, 700, -1033
0.068816, 62, -76, 3307, 578, 700, -1033
0.068951, -2446, 443, 3163, 1324, 762, -595
0.069085, -2446, 443, 3163, 1324, 762, -595
0.069220, -2446, 443, 3163, 1324, 762, -595
0.069355, -2446, 443, 3163, 1324, 762, -595
0.069489, -2446, 443, 3163, 1324, 762, -595
0.069624, -2446, 443, 3163, 1324, 762, -595
0.069758, -2446, 443, 3163, 1324, 762, -595
0.069893, -2296, 94, 2948, 1828, 524, 1169
0.070028, -2296, 94, 2948, 1828, 524, 1169
0.070163, -2296, 94, 2948, 1828, 524, 1169
0.070297, -2296, 94, 2948, 1828, 524, 1169
0.070432, -2296, 94, 2948, 1828, 524, 1169
0.070567, -2296, 94, 2948, 1828, 524, 1169
0.070701, -2296, 94, 2948, 1828, 524, 1169
0.070836, -2296, 94, 2948, 1828, 524, 1169
0.070970, 1773, -489, 2129, 1858, -368, 1798
0.071105, 1773, -489, 2129, 1858, -368, 1798
0.071240, 1773, -489, 2129, 1858, -368, 1798
0.071374, 1773, -489, 2129, 1858, -368, 1798
0.071509, 1773, -489, 2129, 1858, -368, 1798
0.071644, 1773, -489, 2129, 1858, -368, 1798
0.071778, 1773, -489, 2129, 1858, -368, 1798
0.071914, 2283, -65, 1025, 1296, -1188, 293
0.072048, 2283, -65, 1025, 1296, -1188, 293
0.072183, 2283, -65, 1025, 1296, -1188, 293
0.072318, 2283, -65, 1025, 1296, -1188, 293
0.072452, 2283, -65, 1025, 1296, -1188, 293
0.072587, 2283, -65, 1025, 1296, -1188, 293
0.072721, 2283, -65, 1025, 1296, -1188, 293
0.072856, 2283, -65, 1025, 1296, -1188, 293
0.072991, 119, 202, 663, 538, -1128, -768
0.073126, 119, 202, 663, 538, -1128, -768
0.073260, 119, 202, 663, 538, -1128, -768
0.073395, 119, 202, 663, 538, -1128, -768
0.073529, 119, 202, 663, 538, -1128, -768
0.073664, 119, 202, 663, 538, -1128, -768
0.073799, 119, 202, 663, 538, -1128, -768
0.073934, -878, -143, 656, -189, -527, -590
0.074069, -878, -143, 656, -189, -527, -590
0.074203, -878, -143, 656, -189, -527, -590
0.074338, -878, -143, 656, -189, -527, -590
0.074473, -878, -143, 656, -189, -527, -590
0.074607, -878, -143, 656, -189, -527, -590
0.074742, -878, -143, 656, -189, -527, -590
0.074876, -878, -143, 656, -189, -527, -590
0.075011, -1532, -283, 1528, -635, -12, 155
0.075146, -1532, -283, 1528, -635, -12, 155
0.075280, -1532, -283, 1528, -635, -12, 155
0.075415, -1532, -283, 1528, -635, -12, 155
0.075550, -1532, -283, 1528, -635, -12, 155
0.075685, -1532, -283, 1528, -635, -12, 155
0.075820, -1532, -283, 1528, -635, -12, 155
0.075954, -2008, -134, 3117, -434, 214, 1356
0.076089, -2008, -134, 3117, -434, 214, 1356
0.076224, -2008, -134, 3117, -434, 214, 1356
0.076358, -2008, -134, 3117, -434, 214, 1356
0.076499, -2008, -134, 3117, -434, 214, 1356
0.076634, -2008, -134, 3117, -434, 214, 1356
0.076769, -2008, -134, 3117, -434, 214, 1356
0.076904, -2008, -134, 3117, -434, 214, 1356
0.077038, -770, -223, 2714, 22, 85, 2469
0.077173, -770, -223, 2714, 22, 85, 2469
0.077308, -770, -223, 2714, 22, 85, 2469
0.077442, -770, -223, 2714, 22, 85, 2469
0.077577, -770, -223, 2714, 22, 85, 2469
0.077712, -770, -223, 2714, 22, 85, 2469
0.077847, -770, -223, 2714, 22, 85, 2469
0.077982, 1491, -240, 9, -544, -507, 2394
0.078117, 1491, -240, 9, -544, -507, 2394
0.078251, 1491, -240, 9, -544, -507, 2394
0.078386, 1491, -240, 9, -544, -507, 2394
0.078521, 1491, -240, 9, -544, -507, 2394
0.078655, 1491, -240, 9, -544, -507, 2394
0.078790, 1491, -240, 9, -544, -507, 2394
0.078924, 1491, -240, 9, -544, -507, 2394
0.079059, 1569, 338, -578, -2229, -1092, 1224
0.079195, 1569, 338, -578, -2229, -1092, 1224
0.079330, 1569, 338, -578, -2229, -1092, 1224
0.079465, 1569, 338, -578, -2229, -1092, 1224
0.079600, 1569, 338, -578, -2229, -1092, 1224
0.079734, 1569, 338, -578, -2229, -1092, 1224
0.079869, 1569, 338, -578, -2229, -1092, 1224
0.080004, -40, 574, 1110, -3445, -949, 571
0.080139, -40, 574, 1110, -3445, -949, 571
0.080274, -40, 574, 1110, -3445, -949, 571
0.080408, -40, 574, 1110, -3445, -949, 571
0.080543, -40, 574, 1110, -3445, -949, 571
0.080678, -40, 574, 1110, -3445, -949, 571
0.080813, -40, 574, 1110, -3445, -949, 571
0.080947, -40, 574, 1110, -3445, -949, 571
0.081082, 220, -88, 2550, -3580, -246, 711
0.081217, 220, -88, 2550, -3580, -246, 711
0.081351, 220, -88, 2550, -3580, -246, 711
0.081486, 220, -88, 2550, -3580, -246, 711
0.081621, 220, -88, 2550, -3580, -246, 711
0.081755, 220, -88, 2550, -3580, -246, 711
0.081891, 220, -88, 2550, -3580, -246, 711
0.082026, 220, -88, 2550, -3580, -246, 711
0.082160, 942, -369, 3172, -2893, 251, 523
0.082295, 942, -369, 3172, -2893, 251, 523
0.082430, 942, -369, 3172, -2893, 251, 523
0.082564, 942, -369, 3172, -2893, 251, 523
0.082699, 942, -369, 3172, -2893, 251, 523
0.082834, 942, -369, 3172, -2893, 251, 523
0.082969, 942, -369, 3172, -2893, 251, 523
0.083104, -46, 139, 2391, -2250, 332, 212
0.083238, -46, 139, 2391, -2250, 332, 212
0.083373, -46, 139, 2391, -2250, 332, 212
0.083508, -46, 139, 2391, -2250, 332, 212
0.083642, -46, 139, 2391, -2250, 332, 212
0.083777, -46, 139, 2391, -2250, 332, 212
0.083912, -46, 139, 2391, -2250, 332, 212
0.084046, -46, 139, 2391, -2250, 332, 212
0.084181, -840, 229, 1821, -2235, 260, 440
0.084316, -840, 229, 1821, -2235, 260, 440
0.084450, -840, 229, 1821, -2235, 260, 440
0.084585, -840, 229, 1821, -2235, 260, 440
0.084719, -840, 229, 1821, -2235, 260, 440
0.084854, -840, 229, 1821, -2235, 260, 440
0.084988, -840, 229, 1821, -2235, 260, 440
0.085123, -841, 13, 2280, -2184, 100, 955
0.085258, -841, 13, 2280, -2184, 100, 955
0.085392, -841, 13, 2280, -2184, 100, 955
0.085527, -841, 13, 2280, -2184, 100, 955
0.085661, -841, 13, 2280, -2184, 100, 955
0.085796, -841, 13, 2280, -2184, 100, 955
0.085931, -841, 13, 2280, -2184, 100, 955
0.086066, -841, 13, 2280, -2184, 100, 955
0.086200, -446, -38, 2808, -1902, -49, 1462
0.086335, -446, -38, 2808, -1902, -49, 1462
0.086470, -446, -38, 2808, -1902, -49, 1462
0.086604, -446, -38, 2808, -1902, -49, 1462
0.086739, -446, -38, 2808, -1902, -49, 1462
0.086874, -446, -38, 2808, -1902, -49, 1462
0.087008, -446, -38, 2808, -1902, -49, 1462
0.087143, 570, -167, 3236, -1471, -35, 1603
0.087278, 570, -167, 3236, -1471, -35, 1603
0.087412, 570, -167, 3236, -1471, -35, 1603
0.087547, 570, -167, 3236, -1471, -35, 1603
0.087681, 570, -167, 3236, -1471, -35, 1603
0.087816, 570, -167, 3236, -1471, -35, 1603
0.087951, 570, -167, 3236, -1471, -35, 1603
0.088085, 570, -167, 3236, -1471, -35, 1603
0.088220, 1340, -223, 3292, -846, 36, 1042
0.088355, 1340, -223, 3292, -846, 36, 1042
0.088489, 1340, -223, 3292, -846, 36, 1042
0.088624, 1340, -223, 3292, -846, 36, 1042
0.088759, 1340, -223, 3292, -846, 36, 1042
0.088893, 1340, -223, 3292, -846, 36, 1042
0.089028, 1340, -223, 3292, -846, 36, 1042
0.089162, 689, 14, 3166, -194, 61, 203
0.089297, 689, 14, 3166, -194, 61, 203
0.089440, 689, 14, 3166, -194, 61, 203
0.089575, 689, 14, 3166, -194, 61, 203
0.089710, 689, 14, 3166, -194, 61, 203
0.089845, 689, 14, 3166, -194, 61, 203
0.089980, 689, 14, 3166, -194, 61, 203
0.090114, 689, 14, 3166, -194, 61, 203
0.090249, -786, 354, 2999, 482, 86, -35
0.090384, -786, 354, 2999, 482, 86, -35
0.090518, -786, 354, 2999, 482, 86, -35
0.090653, -786, 354, 2999, 482, 86, -35
0.090788, -786, 354, 2999, 482, 86, -35
0.090922, -786, 354, 2999, 482, 86, -35
0.091057, -786, 354, 2999, 482, 86, -35
0.091191, -556, 274, 2307, 886, 45, 403
0.091326, -556, 274, 2307, 886, 45, 403
0.091461, -556, 274, 2307, 886, 45, 403
0.091595, -556, 274, 2307, 886, 45, 403
0.091730, -556, 274, 2307, 886, 45, 403
0.091864, -556, 274, 2307, 886, 45, 403
0.091999, -556, 274, 2307, 886, 45, 403
0.092134, -556, 274, 2307, 886, 45, 403
0.092268, 989, -58, 1994, 855, -119, 416
0.092403, 989, -58, 1994, 855, -119, 416
0.092538, 989, -58, 1994, 855, -119, 416
0.092672, 989, -58, 1994, 855, -119, 416
0.092807, 989, -58, 1994, 855, -119, 416
0.092941, 989, -58, 1994, 855, -119, 416
0.093076, 989, -58, 1994, 855, -119, 416
0.093210, 837, -99, 1685, 640, -206, -260
0.093345, 837, -99, 1685, 640, -206, -260
0.093480, 837, -99, 1685, 640, -206, -260
0.093614, 837, -99, 1685, 640, -206, -260
0.093749, 837, -99, 1685, 640, -206, -260
0.093884, 837, -99, 1685, 640, -206, -260
0.094019, 837, -99, 1685, 640, -206, -260
0.094153, 837, -99, 1685, 640, -206, -260
0.094288, -393, 53, 1024, 155, -8, -536
0.094423, -393, 53, 1024, 155, -8, -536
0.094557, -393, 53, 1024, 155, -8, -536
0.094692, -393, 53, 1024, 155, -8, -536
0.094827, -393, 53, 1024, 155, -8, -536
0.094961, -393, 53, 1024, 155, -8, -536
0.095096, -393, 53, 1024, 155, -8, -536
0.095230, -710, 86, 1633, -252, 291, -140
0.095365, -710, 86, 1633, -252, 291, -140
0.095500, -710, 86, 1633, -252, 291, -140
0.095634, -710, 86, 1633, -252, 291, -140
0.095769, -710, 86, 1633, -252, 291, -140
0.095904, -710, 86, 1633, -252, 291, -140
0.096038, -710, 86, 1633, -252, 291, -140
0.096173, -710, 86, 1633, -252, 291, -140
0.096307, -672, 183, 2572, -183, 438, 370
0.096442, -672, 183, 2572, -183, 438, 370
0.096577, -672, 183, 2572, -183, 438, 370
0.096711, -672, 183, 2572, -183, 438, 370
0.096846, -672, 183, 2572, -183, 438, 370
0.096981, -672, 183, 2572, -183, 438, 370
0.097115, -672, 183, 2572, -183, 438, 370
0.097250, -299, 388, 2452, 14, 401, 792
0.097385, -299, 388, 2452, 14, 401, 792
0.097519, -299, 388, 2452, 14, 401, 792
0.097654, -299, 388, 2452, 14, 401, 792
0.097788, -299, 388, 2452, 14, 401, 792
0.097923, -299, 388, 2452, 14, 401, 792
0.098057, -299, 388, 2452, 14, 401, 792
0.098191, -299, 388, 2452, 14, 401, 792
0.098325, 779, 317, 2233, 61, 130, 802
0.098459, 779, 317, 2233, 61, 130, 802
0.098593, 779, 317, 2233, 61, 130, 802
0.098727, 779, 317, 2233, 61, 130, 802
0.098861, 779, 317, 2233, 61, 130, 802
0.098995, 779, 317, 2233, 61, 130, 802
0.099129, 779, 317, 2233, 61, 130, 802
0.099263, 908, 230, 2935, 264, -197, 267
0.099397, 908, 230, 2935, 264, -197, 267
0.099531, 908, 230, 2935, 264, -197, 267
0.099665, 908, 230, 2935, 264, -197, 267
0.099799, 908, 230, 2935, 264, -197, 267
0.099933, 908, 230, 2935, 264, -197, 267
0.100067, 908, 230, 2935, 264, -197, 267
0.100201, 908, 230, 2935, 264, -197, 267
0.100335, -342, 354, 3808, 1091, -270, -36
0.100469, -342, 354, 3808, 1091, -270, -36
0.100603, -342, 354, 3808, 1091, -270, -36
0.100737, -342, 354, 3808, 1091, -270, -36
0.100871, -342, 354, 3808, 1091, -270, -36
0.101005, -342, 354, 3808, 1091, -270, -36
0.101139, -342, 354, 3808, 1091, -270, -36
0.101273, -342, 354, 3808, 1091, -270, -36
0.101407, -677, 92, 3145, 2142, -184, 357
0.101541, -677, 92, 3145, 2142, -184, 357
0.101675, -677, 92, 3145, 2142, -184, 357
0.101817, -677, 92, 3145, 2142, -184, 357
0.101948, -677, 92, 3145, 2142, -184, 357
0.102083, -677, 92, 3145, 2142, -184, 357
0.102217, -677, 92, 3145, 2142, -184, 357
0.102352, 74, -171, 1851, 2447, -279, 669
0.102487, 74, -171, 1851, 2447, -279, 669
0.102621, 74, -171, 1851, 2447, -279, 669
0.102756, 74, -171, 1851, 2447, -279, 669
0.102898, 74, -171, 1851, 2447, -279, 669
0.103033, 74, -171, 1851, 2447, -279, 669
0.103168, 74, -171, 1851, 2447, -279, 669
0.103303, 74, -171, 1851, 2447, -279, 669
0.103438, -209, 425, 2093, 2261, -497, 621
0.103572, -209, 425, 2093, 2261, -497, 621
0.103707, -209, 425, 2093, 2261, -497, 621
0.103842, -209, 425, 2093, 2261, -497, 621
0.103976, -209, 425, 2093, 2261, -497, 621
0.104112, -209, 425, 2093, 2261, -497, 621
0.104248, -209, 425, 2093, 2261, -497, 621
0.104383, -102, 370, 1752, 2119, -502, 813
0.104518, -102, 370, 1752, 2119, -502, 813
0.104652, -102, 370, 1752, 2119, -502, 813
0.104787, -102, 370, 1752, 2119, -502, 813
0.104922, -102, 370, 1752, 2119, -502, 813
0.105056, -102, 370, 1752, 2119, -502, 813
0.105191, -102, 370, 1752, 2119, -502, 813
0.105325, -102, 370, 1752, 2119, -502, 813
0.105460, 1471, -440, 359, 1332, -407, 528
0.105595, 1471, -440, 359, 1332, -407, 528
0.105730, 1471, -440, 359, 1332, -407, 528
0.105865, 1471, -440, 359, 1332, -407, 528
0.106000, 1471, -440, 359, 1332, -407, 528
0.106135, 1471, -440, 359, 1332, -407, 528
0.106269, 1471, -440, 359, 1332, -407, 528
0.106404, 727, 19, 920, 384, -351, -390
0.106539, 727, 19, 920, 384, -351, -390
0.106673, 727, 19, 920, 384, -351, -390
0.106808, 727, 19, 920, 384, -351, -390
0.106943, 727, 19, 920, 384, -351, -390
0.107072, 727, 19, 920, 384, -351, -390
0.107209, 727, 19, 920, 384, -351, -390
0.107344, 727, 19, 920, 384, -351, -390
0.107479, -300, 68, 1721, 85, -64, -447
0.107614, -300, 68, 1721, 85, -64, -447
0.107749, -300, 68, 1721, 85, -64, -447
0.107884, -300, 68, 1721, 85, -64, -447
0.108027, -300, 68, 1721, 85, -64, -447
0.108174, -300, 68, 1721, 85, -64, -447
0.108323, -300, 68, 1721, 85, -64, -447
0.108462, 2123, -637, 789, -274, 303, -549
0.108604, 2123, -637, 789, -274, 303, -549
0.108740, 2123, -637, 789, -274, 303, -549
0.108875, 2123, -637, 789, -274, 303, -549
0.109010, 2123, -637, 789, -274, 303, -549
0.109144, 2123, -637, 789, -274, 303, -549
0.109279, 2123, -637, 789, -274, 303, -549
0.109413, 3913, -150, -256, -1147, 382, -2308
0.109548, 3913, -150, -256, -1147, 382, -2308
0.109683, 3913, -150, -256, -1147, 382, -2308
0.109818, 3913, -150, -256, -1147, 382, -2308
0.109955, 3913, -150, -256, -1147, 382, -2308
0.110089, 3913, -150, -256, -1147, 382, -2308
0.110224, 3913, -150, -256, -1147, 382, -2308
0.110359, 3913, -150, -256, -1147, 382, -2308
0.110493, 2860, 170, 364, -2152, 780, -4560
0.110628, 2860, 170, 364, -2152, 780, -4560
0.110763, 2860, 170, 364, -2152, 780, -4560
0.110898, 2860, 170, 364, -2152, 780, -4560
0.111032, 2860, 170, 364, -2152, 780, -4560
0.111167, 2860, 170, 364, -2152, 780, -4560
0.111302, 2860, 170, 364, -2152, 780, -4560
0.111436, 658, -73, 1794, -2319, 1953, -5742
0.111571, 658, -73, 1794, -2319, 1953, -5742
0.111706, 658, -73, 1794, -2319, 1953, -5742
0.111841, 658, -73, 1794, -2319, 1953, -5742
0.111975, 658, -73, 1794, -2319, 1953, -5742
0.112110, 658, -73, 1794, -2319, 1953, -5742
0.112245, 658, -73, 1794, -2319, 1953, -5742
0.112379, 658, -73, 1794, -2319, 1953, -5742
0.112514, -479, -95, 2047, -1709, 3108, -5657
0.112649, -479, -95, 2047, -1709, 3108, -5657
0.112778, -479, -95, 2047, -1709, 3108, -5657
0.112909, -479, -95, 2047, -1709, 3108, -5657
0.113045, -479, -95, 2047, -1709, 3108, -5657
0.113181, -479, -95, 2047, -1709, 3108, -5657
0.113316, -479, -95, 2047, -1709, 3108, -5657
0.113450, -427, -131, 1883, -1329, 3640, -5111
0.113585, -427, -131, 1883, -1329, 3640, -5111
0.113720, -427, -131, 1883, -1329, 3640, -5111
0.113856, -427, -131, 1883, -1329, 3640, -5111
0.113991, -427, -131, 1883, -1329, 3640, -5111
0.114125, -427, -131, 1883, -1329, 3640, -5111
0.114260, -427, -131, 1883, -1329, 3640, -5111
0.114395, -427, -131, 1883, -1329, 3640, -5111
0.114529, -664, -162, 2146, -1238, 3739, -4613
0.114664, -664, -162, 2146, -1238, 3739, -4613
0.114799, -664, -162, 2146, -1238, 3739, -4613
0.114933, -664, -162, 2146, -1238, 3739, -4613
0.115068, -664, -162, 2146, -1238, 3739, -4613
0.115203, -664, -162, 2146, -1238, 3739, -4613
0.115337, -664, -162, 2146, -1238, 3739, -4613
0.115493, -1163, -191, 2325, -1107, 3588, -4020
0.115633, -1163, -191, 2325, -1107, 3588, -4020
0.115768, -1163, -191, 2325, -1107, 3588, -4020
0.115903, -1163, -191, 2325, -1107, 3588, -4020
0.116037, -1163, -191, 2325, -1107, 3588, -4020
0.116172, -1163, -191, 2325, -1107, 3588, -4020
0.116307, -1163, -191, 2325, -1107, 3588, -4020
0.116441, -1163, -191, 2325, -1107, 3588, -4020
0.116576, -2666, -221, 2512, -917, 3181, -3016
0.116711, -2666, -221, 2512, -917, 3181, -3016
0.116846, -2666, -221, 2512, -917, 3181, -3016
0.116980, -2666, -221, 2512, -917, 3181, -3016
0.117115, -2666, -221, 2512, -917, 3181, -3016
0.117250, -2666, -221, 2512, -917, 3181, -3016
0.117385, -2666, -221, 2512, -917, 3181, -3016
0.117519, -4869, -20, 3124, -584, 2587, -840
0.117654, -4869, -20, 3124, -584, 2587, -840
0.117789, -4869, -20, 3124, -584, 2587, -840
0.117924, -4869, -20, 3124, -584, 2587, -840
0.118058, -4869, -20, 3124, -584, 2587, -840
0.118193, -4869, -20, 3124, -584, 2587, -840
0.118328, -4869, -20, 3124, -584, 2587, -840
0.118463, -4869, -20, 3124, -584, 2587, -840
0.118597, -3382, -232, 3556, -136, 1653, 2073
0.118732, -3382, -232, 3556, -136, 1653, 2073
0.118867, -3382, -232, 3556, -136, 1653, 2073
0.119002, -3382, -232, 3556, -136, 1653, 2073
0.119136, -3382, -232, 3556, -136, 1653, 2073
0.119271, -3382, -232, 3556, -136, 1653, 2073
0.119405, -3382, -232, 3556, -136, 1653, 2073
0.119540, 773, -704, 3141, 120, 259, 3245
0.119675, 773, -704, 3141, 120, 259, 3245
0.119810, 773, -704, 3141, 120, 259, 3245
0.119945, 773, -704, 3141, 120, 259, 3245
0.120079, 773, -704, 3141, 120, 259, 3245
0.120214, 773, -704, 3141, 120, 259, 3245
0.120349, 773, -704, 3141, 120, 259, 3245
0.120483, 773, -704, 3141, 120, 259, 3245
0.120618, 1762, 100, 2010, -72, -1065, 2166
0.120753, 1762, 100, 2010, -72, -1065, 2166
0.120888, 1762, 100, 2010, -72, -1065, 2166
0.121022, 1762, 100, 2010, -72, -1065, 2166
0.121157, 1762, 100, 2010, -72, -1065, 2166
0.121292, 1762, 100, 2010, -72, -1065, 2166
0.121427, 1762, 100, 2010, -72, -1065, 2166
0.121564, 1080, 775, 1350, -690, -1586, 919
0.121703, 1080, 775, 1350, -690, -1586, 919
0.121839, 1080, 775, 1350, -690, -1586, 919
0.121973, 1080, 775, 1350, -690, -1586, 919
0.122108, 1080, 775, 1350, -690, -1586, 919
0.122243, 1080, 775, 1350, -690, -1586, 919
0.122377, 1080, 775, 1350, -690, -1586, 919
0.122512, 1080, 775, 1350, -690, -1586, 919
0.122647, 723, 185, 2371, -955, -1210, 212
0.122782, 723, 185, 2371, -955, -1210, 212
0.122916, 723, 185, 2371, -955, -1210, 212
0.123051, 723, 185, 2371, -955, -1210, 212
0.123186, 723, 185, 2371, -955, -1210, 212
0.123320, 723, 185, 2371, -955, -1210, 212
0.123455, 723, 185, 2371, -955, -1210, 212
0.123590, -645, -86, 3493, -276, -466, 32
0.123725, -645, -86, 3493, -276, -466, 32
0.123860, -645, -86, 3493, -276, -466, 32
0.123994, -645, -86, 3493, -276, -466, 32
0.124129, -645, -86, 3493, -276, -466, 32
0.124264, -645, -86, 3493, -276, -466, 32
0.124398, -645, -86, 3493, -276, -466, 32
0.124533, -645, -86, 3493, -276, -466, 32
0.124668, -2526, 254, 3544, 795, 182, 948
0.124802, -2526, 254, 3544, 795, 182, 948
0.124937, -2526, 254, 3544, 795, 182, 948
0.125072, -2526, 254, 3544, 795, 182, 948
0.125207, -2526, 254, 3544, 795, 182, 948
0.125341, -2526, 254, 3544, 795, 182, 948
0.125476, -2526, 254, 3544, 795, 182, 948
0.125611, -2526, 254, 3544, 795, 182, 948
0.125745, -1526, -32, 2375, 1404, 330, 2543
0.125880, -1526, -32, 2375, 1404, 330, 2543
0.126015, -1526, -32, 2375, 1404, 330, 2543
0.126149, -1526, -32, 2375, 1404, 330, 2543
0.126284, -1526, -32, 2375, 1404, 330, 2543
0.126419, -1526, -32, 2375, 1404, 330, 2543
0.126553, -1526, -32, 2375, 1404, 330, 2543
0.126688, 1854, -283, 854, 894, -197, 2859
0.126823, 1854, -283, 854, 894, -197, 2859
0.126958, 1854, -283, 854, 894, -197, 2859
0.127092, 1854, -283, 854, 894, -197, 2859
0.127227, 1854, -283, 854, 894, -197, 2859
0.127362, 1854, -283, 854, 894, -197, 2859
0.127496, 1854, -283, 854, 894, -197, 2859
0.127631, 1854, -283, 854, 894, -197, 2859
0.127765, 3225, 312, 1231, -149, -737, 1185
0.127900, 3225, 312, 1231, -149, -737, 1185
0.128041, 3225, 312, 1231, -149, -737, 1185
0.128176, 3225, 312, 1231, -149, -737, 1185
0.128311, 3225, 312, 1231, -149, -737, 1185
0.128445, 3225, 312, 1231, -149, -737, 1185
0.128580, 3225, 312, 1231, -149, -737, 1185
0.128714, 2750, 265, 2333, -449, -469, -880
0.128849, 2750, 265, 2333, -449, -469, -880
0.128984, 2750, 265, 2333, -449, -469, -880
0.129118, 2750, 265, 2333, -449, -469, -880
0.129253, 2750, 265, 2333, -449, -469, -880
0.129387, 2750, 265, 2333, -449, -469, -880
0.129522, 2750, 265, 2333, -449, -469, -880
0.129657, 2750, 265, 2333, -449, -469, -880
0.129791, 1456, -174, 1979, -160, 344, -2306
0.129926, 1456, -174, 1979, -160, 344, -2306
0.130061, 1456, -174, 1979, -160, 344, -2306
0.130195, 1456, -174, 1979, -160, 344, -2306
0.130330, 1456, -174, 1979, -160, 344, -2306
0.130464, 1456, -174, 1979, -160, 344, -2306
0.130599, 1456, -174, 1979, -160, 344, -2306
0.130733, -906, -68, 1375, 28, 919, -2722
0.130868, -906, -68, 1375, 28, 919, -2722
0.131003, -906, -68, 1375, 28, 919, -2722
0.131137, -906, -68, 1375, 28, 919, -2722
0.131272, -906, -68, 1375, 28, 919, -2722
0.131406, -906, -68, 1375, 28, 919, -2722
0.131541, -906, -68, 1375, 28, 919, -2722
0.131676, -906, -68, 1375, 28, 919, -2722
0.131810, -3513, -59, 1728, 109, 1060, -1469
0.131945, -3513, -59, 1728, 109, 1060, -1469
0.132080, -3513, -59, 1728, 109, 1060, -1469
0.132214, -3513, -59, 1728, 109, 1060, -1469
0.132349, -3513, -59, 1728, 109, 1060, -1469
0.132483, -3513, -59, 1728, 109, 1060, -1469
0.132618, -3513, -59, 1728, 109, 1060, -1469
0.132752, -3903, -246, 2063, 139, 736, 1030
0.132887, -3903, -246, 2063, 139, 736, 1030
0.133022, -3903, -246, 2063, 139, 736, 1030
0.133156, -3903, -246, 2063, 139, 736, 1030
0.133291, -3903, -246, 2063, 139, 736, 1030
0.133426, -3903, -246, 2063, 139, 736, 1030
0.133560, -3903, -246, 2063, 139, 736, 1030
0.133695, -3903, -246, 2063, 139, 736, 1030
0.133830, -1980, 234, 2163, 52, -166, 3154
0.133965, -1980, 234, 2163, 52, -166, 3154
0.134100, -1980, 234, 2163, 52, -166, 3154
0.134234, -1980, 234, 2163, 52, -166, 3154
0.134369, -1980, 234, 2163, 52, -166, 3154
0.134503, -1980, 234, 2163, 52, -166, 3154
0.134638, -1980, 234, 2163, 52, -166, 3154
0.134773, 1181, 375, 2352, -186, -1291, 3809
0.134907, 1181, 375, 2352, -186, -1291, 3809
0.135042, 1181, 375, 2352, -186, -1291, 3809
0.135177, 1181, 375, 2352, -186, -1291, 3809
0.135311, 1181, 375, 2352, -186, -1291, 3809
0.135446, 1181, 375, 2352, -186, -1291, 3809
0.135581, 1181, 375, 2352, -186, -1291, 3809
0.135715, 1181, 375, 2352, -186, -1291, 3809
0.135850, 3286, -109, 3099, -287, -1949, 2494
0.135984, 3286, -109, 3099, -287, -1949, 2494
0.136119, 3286, -109, 3099, -287, -1949, 2494
0.136254, 3286, -109, 3099, -287, -1949, 2494
0.136388, 3286, -109, 3099, -287, -1949, 2494
0.136523, 3286, -109, 3099, -287, -1949, 2494
0.136657, 3286, -109, 3099, -287, -1949, 2494
0.136792, 967, -7, 3430, 395, -1844, 701
0.136927, 967, -7, 3430, 395, -1844, 701
0.137061, 967, -7, 3430, 395, -1844, 701
0.137196, 967, -7, 3430, 395, -1844, 701
0.137331, 967, -7, 3430, 395, -1844, 701
0.137465, 967, -7, 3430, 395, -1844, 701
0.137600, 967, -7, 3430, 395, -1844, 701
0.137734, 967, -7, 3430, 395, -1844, 701
0.137869, -2185, 70, 2107, 1198, -1368, 876
0.138004, -2185, 70, 2107, 1198, -1368, 876
0.138139, -2185, 70, 2107, 1198, -1368, 876
0.138273, -2185, 70, 2107, 1198, -1368, 876
0.138408, -2185, 70, 2107, 1198, -1368, 876
0.138542, -2185, 70, 2107, 1198, -1368, 876
0.138677, -2185, 70, 2107, 1198, -1368, 876
0.138812, -1101, -127, 738, 1046, -1189, 2248
0.138946, -1101, -127, 738, 1046, -1189, 2248
0.139081, -1101, -127, 738, 1046, -1189, 2248
0.139216, -1101, -127, 738, 1046, -1189, 2248
0.139350, -1101, -127, 738, 1046, -1189, 2248
0.139485, -1101, -127, 738, 1046, -1189, 2248
0.139620, -1101, -127, 738, 1046, -1189, 2248
0.139754, -1101, -127, 738, 1046, -1189, 2248
0.139889, 1859, -75, 759, 273, -1388, 2387
0.140023, 1859, -75, 759, 273, -1388, 2387
0.140158, 1859, -75, 759, 273, -1388, 2387
0.140293, 1859, -75, 759, 273, -1388, 2387
0.140427, 1859, -75, 759, 273, -1388, 2387
0.140566, 1859, -75, 759, 273, -1388, 2387
0.140701, 1859, -75, 759, 273, -1388, 2387
0.140835, 1728, 305, 2037, -223, -1284, 1176
0.140970, 1728, 305, 2037, -223, -1284, 1176
0.141105, 1728, 305, 2037, -223, -1284, 1176
0.141239, 1728, 305, 2037, -223, -1284, 1176
0.141374, 1728, 305, 2037, -223, -1284, 1176
0.141509, 1728, 305, 2037, -223, -1284, 1176
0.141643, 1728, 305, 2037, -223, -1284, 1176
0.141778, 1728, 305, 2037, -223, -1284, 1176
0.141913, 482, 156, 2615, -25, -559, 376
0.142048, 482, 156, 2615, -25, -559, 376
0.142182, 482, 156, 2615, -25, -559, 376
0.142317, 482, 156, 2615, -25, -559, 376
0.142452, 482, 156, 2615, -25, -559, 376
0.142586, 482, 156, 2615, -25, -559, 376
0.142721, 482, 156, 2615, -25, -559, 376
0.142855, 892, -77, 1331, 110, 198, 145
0.142990, 892, -77, 1331, 110, 198, 145
0.143125, 892, -77, 1331, 110, 198, 145
0.143259, 892, -77, 1331, 110, 198, 145
0.143394, 892, -77, 1331, 110, 198, 145
0.143528, 892, -77, 1331, 110, 198, 145
0.143663, 892, -77, 1331, 110, 198, 145
0.143797, 892, -77, 1331, 110, 198, 145
0.143932, 1816, 230, -55, -717, 492, -518
0.144067, 1816, 230, -55, -717, 492, -518
0.144202, 1816, 230, -55, -717, 492, -518
0.144336, 1816, 230, -55, -717, 492, -518
0.144471, 1816, 230, -55, -717, 492, -518
0.144605, 1816, 230, -55, -717, 492, -518
0.144740, 1816, 230, -55, -717, 492, -518
0.144875, 2167, 275, 295, -2025, 688, -1803
0.145009, 2167, 275, 295, -2025, 688, -1803
0.145144, 2167, 275, 295, -2025, 688, -1803
0.145279, 2167, 275, 295, -2025, 688, -1803
0.145413, 2167, 275, 295, -2025, 688, -1803
0.145548, 2167, 275, 295, -2025, 688, -1803
0.145682, 2167, 275, 295, -2025, 688, -1803
0.145818, 2167, 275, 295, -2025, 688, -1803
0.145953, 711, 76, 1676, -2615, 1228, -2868
0.146087, 711, 76, 1676, -2615, 1228, -2868
0.146222, 711, 76, 1676, -2615, 1228, -2868
0.146357, 711, 76, 1676, -2615, 1228, -2868
0.146491, 711, 76, 1676, -2615, 1228, -2868
0.146626, 711, 76, 1676, -2615, 1228, -2868
0.146760, 711, 76, 1676, -2615, 1228, -2868
0.146895, 711, 76, 1676, -2615, 1228, -2868
0.147029, -493, -254, 2407, -2347, 1851, -2856
0.147164, -493, -254, 2407, -2347, 1851, -2856
0.147299, -493, -254, 2407, -2347, 1851, -2856
0.147433, -493, -254, 2407, -2347, 1851, -2856
0.147568, -493, -254, 2407, -2347, 1851, -2856
0.147703, -493, -254, 2407, -2347, 1851, -2856
0.147837, -493, -254, 2407, -2347, 1851, -2856
0.147972, -904, -364, 2701, -1789, 2144, -2340
0.148107, -904, -364, 2701, -1789, 2144, -2340
0.148241, -904, -364, 2701, -1789, 2144, -2340
0.148376, -904, -364, 2701, -1789, 2144, -2340
0.148510, -904, -364, 2701, -1789, 2144, -2340
0.148645, -904, -364, 2701, -1789, 2144, -2340
0.148779, -904, -364, 2701, -1789, 2144, -2340
0.148914, -904, -364, 2701, -1789, 2144, -2340
0.149048, -2802, -232, 3220, -1075, 2039, -1321
0.149183, -2802, -232, 3220, -1075, 2039, -1321
0.149318, -2802, -232, 3220, -1075, 2039, -1321
0.149452, -2802, -232, 3220, -1075, 2039, -1321
0.149587, -2802, -232, 3220, -1075, 2039, -1321
0.149721, -2802, -232, 3220, -1075, 2039, -1321
0.149857, -2802, -232, 3220, -1075, 2039, -1321
0.149991, -3314, -387, 3237, -367, 1490, 676
0.150125, -3314, -387, 3237, -367, 1490, 676
0.150259, -3314, -387, 3237, -367, 1490, 676
0.150393, -3314, -387, 3237, -367, 1490, 676
0.150527, -3314, -387, 3237, -367, 1490, 676
0.150660, -3314, -387, 3237, -367, 1490, 676
0.150794, -3314, -387, 3237, -367, 1490, 676
0.150928, -3314, -387, 3237, -367, 1490, 676
0.151062, -1859, -217, 2566, -49, 451, 2365
0.151196, -1859, -217, 2566, -49, 451, 2365
0.151330, -1859, -217, 2566, -49, 451, 2365
0.151464, -1859, -217, 2566, -49, 451, 2365
0.151598, -1859, -217, 2566, -49, 451, 2365
0.151732, -1859, -217, 2566, -49, 451, 2365
0.151866, -1859, -217, 2566, -49, 451, 2365
0.152000, -2111, 290, 2521, -119, -722, 3410
0.152134, -2111, 290, 2521, -119, -722, 3410
0.152268, -2111, 290, 2521, -119, -722, 3410
0.152402, -2111, 290, 2521, -119, -722, 3410
0.152536, -2111, 290, 2521, -119, -722, 3410
0.152670, -2111, 290, 2521, -119, -722, 3410
0.152804, -2111, 290, 2521, -119, -722, 3410
0.152938, -2111, 290, 2521, -119, -722, 3410
0.153076, -889, 139, 3031, -154, -1645, 4513
0.153213, -889, 139, 3031, -154, -1645, 4513
0.153348, -889, 139, 3031, -154, -1645, 4513
0.153482, -889, 139, 3031, -154, -1645, 4513
0.153617, -889, 139, 3031, -154, -1645, 4513
0.153751, -889, 139, 3031, -154, -1645, 4513
0.153886, -889, 139, 3031, -154, -1645, 4513
0.154020, 2641, 171, 3255, 112, -2292, 4242
0.154155, 2641, 171, 3255, 112, -2292, 4242
0.154290, 2641, 171, 3255, 112, -2292, 4242
0.154424, 2641, 171, 3255, 112, -2292, 4242
0.154559, 2641, 171, 3255, 112, -2292, 4242
0.154693, 2641, 171, 3255, 112, -2292, 4242
0.154828, 2641, 171, 3255, 112, -2292, 4242
0.154963, 2641, 171, 3255, 112, -2292, 4242
0.155097, 2270, 231, 2909, 642, -2496, 2421
0.155232, 2270, 231, 2909, 642, -2496, 2421
0.155367, 2270, 231, 2909, 642, -2496, 2421
0.155501, 2270, 231, 2909, 642, -2496, 2421
0.155636, 2270, 231, 2909, 642, -2496, 2421
0.155770, 2270, 231, 2909, 642, -2496, 2421
0.155905, 2270, 231, 2909, 642, -2496, 2421
0.156039, -800, -265, 1961, 937, -2177, 1601
0.156174, -800, -265, 1961, 937, -2177, 1601
0.156309, -800, -265, 1961, 937, -2177, 1601
0.156443, -800, -265, 1961, 937, -2177, 1601
0.156578, -800, -265, 1961, 937, -2177, 1601
0.156712, -800, -265, 1961, 937, -2177, 1601
0.156847, -800, -265, 1961, 937, -2177, 1601
0.156982, -800, -265, 1961, 937, -2177, 1601
0.157116, -836, 23, 1982, 1070, -1739, 2270
0.157251, -836, 23, 1982, 1070, -1739, 2270
0.157386, -836, 23, 1982, 1070, -1739, 2270
0.157521, -836, 23, 1982, 1070, -1739, 2270
0.157655, -836, 23, 1982, 1070, -1739, 2270
0.157790, -836, 23, 1982, 1070, -1739, 2270
0.157925, -836, 23, 1982, 1070, -1739, 2270
0.158059, 1477, 449, 2762, 1555, -1434, 2450
0.158193, 1477, 449, 2762, 1555, -1434, 2450
0.158327, 1477, 449, 2762, 1555, -1434, 2450
0.158461, 1477, 449, 2762, 1555, -1434, 2450
0.158595, 1477, 449, 2762, 1555, -1434, 2450
0.158728, 1477, 449, 2762, 1555, -1434, 2450
0.158863, 1477, 449, 2762, 1555, -1434, 2450
0.158999, 1477, 449, 2762, 1555, -1434, 2450
0.159133, 1988, 372, 2067, 1776, -1011, 1366
0.159268, 1988, 372, 2067, 1776, -1011, 1366
0.159402, 1988, 372, 2067, 1776, -1011, 1366
0.159536, 1988, 372, 2067, 1776, -1011, 1366
0.159671, 1988, 372, 2067, 1776, -1011, 1366
0.159805, 1988, 372, 2067, 1776, -1011, 1366
0.159939, 1988, 372, 2067, 1776, -1011, 1366
0.160074, 1988, 372, 2067, 1776, -1011, 1366
0.160208, 780, 139, 182, 1166, -435, 394
0.160343, 780, 139, 182, 1166, -435, 394
0.160477, 780, 139, 182, 1166, -435, 394
0.160612, 780, 139, 182, 1166, -435, 394
0.160746, 780, 139, 182, 1166, -435, 394
0.160880, 780, 139, 182, 1166, -435, 394
0.161015, 780, 139, 182, 1166, -435, 394
0.161149, 1213, -192, -689, -227, -58, 26
0.161284, 1213, -192, -689, -227, -58, 26
0.161418, 1213, -192, -689, -227, -58, 26
0.161552, 1213, -192, -689, -227, -58, 26
0.161687, 1213, -192, -689, -227, -58, 26
0.161822, 1213, -192, -689, -227, -58, 26
0.161957, 1213, -192, -689, -227, -58, 26
0.162092, 1213, -192, -689, -227, -58, 26
0.162226, 1957, -67, 607, -1553, 264, -857
0.162361, 1957, -67, 607, -1553, 264, -857
0.162496, 1957, -67, 607, -1553, 264, -857
0.162630, 1957, -67, 607, -1553, 264, -857
0.162765, 1957, -67, 607, -1553, 264, -857
0.162900, 1957, -67, 607, -1553, 264, -857
0.163034, 1957, -67, 607, -1553, 264, -857
0.163169, -63, 273, 2518, -1690, 852, -1723
0.163304, -63, 273, 2518, -1690, 852, -1723
0.163438, -63, 273, 2518, -1690, 852, -1723
0.163573, -63, 273, 2518, -1690, 852, -1723
0.163708, -63, 273, 2518, -1690, 852, -1723
0.163842, -63, 273, 2518, -1690, 852, -1723
0.163977, -63, 273, 2518, -1690, 852, -1723
0.164112, -63, 273, 2518, -1690, 852, -1723
0.164246, -2737, 347, 3339, -886, 1366, -994
0.164381, -2737, 347, 3339, -886, 1366, -994
0.164516, -2737, 347, 3339, -886, 1366, -994
0.164650, -2737, 347, 3339, -886, 1366, -994
0.164785, -2737, 347, 3339, -886, 1366, -994
0.164919, -2737, 347, 3339, -886, 1366, -994
0.165054, -2737, 347, 3339, -886, 1366, -994
0.165189, -2583, -158, 3583, 99, 1189, 971
0.165324, -2583, -158, 3583, 99, 1189, 971
0.165458, -2583, -158, 3583, 99, 1189, 971
0.165602, -2583, -158, 3583, 99, 1189, 971
0.165737, -2583, -158, 3583, 99, 1189, 971
0.165872, -2583, -158, 3583, 99, 1189, 971
0.166007, -2583, -158, 3583, 99, 1189, 971
0.166142, -2583, -158, 3583, 99, 1189, 971
0.166276, -489, -574, 3993, 1084, 242, 2265
0.166411, -489, -574, 3993, 1084, 242, 2265
0.166546, -489, -574, 3993, 1084, 242, 2265
0.166680, -489, -574, 3993, 1084, 242, 2265
0.166815, -489, -574, 3993, 1084, 242, 2265
0.166950, -489, -574, 3993, 1084, 242, 2265
0.167084, -489, -574, 3993, 1084, 242, 2265
0.167219, 506, -29, 3308, 1980, -863, 2280
0.167354, 506, -29, 3308, 1980, -863, 2280
0.167488, 506, -29, 3308, 1980, -863, 2280
0.167623, 506, -29, 3308, 1980, -863, 2280
0.167758, 506, -29, 3308, 1980, -863, 2280
0.167892, 506, -29, 3308, 1980, -863, 2280
0.168027, 506, -29, 3308, 1980, -863, 2280
0.168161, 506, -29, 3308, 1980, -863, 2280
0.168296, 1488, 57, 1663, 2126, -1573, 1694
0.168431, 1488, 57, 1663, 2126, -1573, 1694
0.168565, 1488, 57, 1663, 2126, -1573, 1694
0.168700, 1488, 57, 1663, 2126, -1573, 1694
0.168835, 1488, 57, 1663, 2126, -1573, 1694
0.168969, 1488, 57, 1663, 2126, -1573, 1694
0.169104, 1488, 57, 1663, 2126, -1573, 1694
0.169238, 2439, -258, 1254, 1638, -1726, 379
0.169373, 2439, -258, 1254, 1638, -1726, 379
0.169508, 2439, -258, 1254, 1638, -1726, 379
0.169642, 2439, -258, 1254, 1638, -1726, 379
0.169777, 2439, -258, 1254, 1638, -1726, 379
0.169912, 2439, -258, 1254, 1638, -1726, 379
0.170046, 2439, -258, 1254, 1638, -1726, 379
0.170181, 2439, -258, 1254, 1638, -1726, 379
0.170316, 270, 171, 1414, 1271, -1279, -846
0.170450, 270, 171, 1414, 1271, -1279, -846
0.170585, 270, 171, 1414, 1271, -1279, -846
0.170720, 270, 171, 1414, 1271, -1279, -846
0.170854, 270, 171, 1414, 1271, -1279, -846
0.170989, 270, 171, 1414, 1271, -1279, -846
0.171124, 270, 171, 1414, 1271, -1279, -846
0.171258, -2217, 129, 1620, 1033, -474, -357
0.171393, -2217, 129, 1620, 1033, -474, -357
0.171528, -2217, 129, 1620, 1033, -474, -357
0.171662, -2217, 129, 1620, 1033, -474, -357
0.171797, -2217, 129, 1620, 1033, -474, -357
0.171931, -2217, 129, 1620, 1033, -474, -357
0.172066, -2217, 129, 1620, 1033, -474, -357
0.172201, -2217, 129, 1620, 1033, -474, -357
0.172335, -497, -278, 1869, 1027, 71, 928
0.172470, -497, -278, 1869, 1027, 71, 928
0.172604, -497, -278, 1869, 1027, 71, 928
0.172739, -497, -278, 1869, 1027, 71, 928
0.172874, -497, -278, 1869, 1027, 71, 928
0.173008, -497, -278, 1869, 1027, 71, 928
0.173143, -497, -278, 1869, 1027, 71, 928
0.173278, 3072, -50, 596, 588, 32, 589
0.173412, 3072, -50, 596, 588, 32, 589
0.173547, 3072, -50, 596, 588, 32, 589
0.173682, 3072, -50, 596, 588, 32, 589
0.173817, 3072, -50, 596, 588, 32, 589
0.173951, 3072, -50, 596, 588, 32, 589
0.174086, 3072, -50, 596, 588, 32, 589
0.174220, 3072, -50, 596, 588, 32, 589
0.174355, 4212, 299, -466, -838, -39, -1695
0.174490, 4212, 299, -466, -838, -39, -1695
0.174625, 4212, 299, -466, -838, -39, -1695
0.174759, 4212, 299, -466, -838, -39, -1695
0.174894, 4212, 299, -466, -838, -39, -1695
0.175029, 4212, 299, -466, -838, -39, -1695
0.175163, 4212, 299, -466, -838, -39, -1695
0.175298, 2270, 297, 602, -1963, 539, -3988
0.175432, 2270, 297, 602, -1963, 539, -3988
0.175567, 2270, 297, 602, -1963, 539, -3988
0.175702, 2270, 297, 602, -1963, 539, -3988
0.175836, 2270, 297, 602, -1963, 539, -3988
0.175971, 2270, 297, 602, -1963, 539, -3988
0.176106, 2270, 297, 602, -1963, 539, -3988
0.176240, 2270, 297, 602, -1963, 539, -3988
0.176375, -456, 15, 1819, -2054, 1678, -4634
0.176510, -456, 15, 1819, -2054, 1678, -4634
0.176644, -456, 15, 1819, -2054, 1678, -4634
0.176779, -456, 15, 1819, -2054, 1678, -4634
0.176913, -456, 15, 1819, -2054, 1678, -4634
0.177048, -456, 15, 1819, -2054, 1678, -4634
0.177183, -456, 15, 1819, -2054, 1678, -4634
0.177317, -1310, -203, 2133, -1658, 2649, -3859
0.177452, -1310, -203, 2133, -1658, 2649, -3859
0.177587, -1310, -203, 2133, -1658, 2649, -3859
0.177721, -1310, -203, 2133, -1658, 2649, -3859
0.177857, -1310, -203, 2133, -1658, 2649, -3859
0.177991, -1310, -203, 2133, -1658, 2649, -3859
0.178129, -1310, -203, 2133, -1658, 2649, -3859
0.178263, -1310, -203, 2133, -1658, 2649, -3859
0.178398, -1162, -163, 2533, -1218, 2877, -2875
0.178532, -1162, -163, 2533, -1218, 2877, -2875
0.178667, -1162, -163, 2533, -1218, 2877, -2875
0.178801, -1162, -163, 2533, -1218, 2877, -2875
0.178936, -1162, -163, 2533, -1218, 2877, -2875
0.179070, -1162, -163, 2533, -1218, 2877, -2875
0.179204, -1162, -163, 2533, -1218, 2877, -2875
0.179339, -1516, -89, 3420, -681, 2495, -1951
0.179473, -1516, -89, 3420, -681, 2495, -1951
0.179608, -1516, -89, 3420, -681, 2495, -1951
0.179742, -1516, -89, 3420, -681, 2495, -1951
0.179877, -1516, -89, 3420, -681, 2495, -1951
0.180011, -1516, -89, 3420, -681, 2495, -1951
0.180146, -1516, -89, 3420, -681, 2495, -1951
0.180280, -1516, -89, 3420, -681, 2495, -1951
0.180414, -1567, 119, 4034, 173, 1796, -967
0.180549, -1567, 119, 4034, 173, 1796, -967
0.180683, -1567, 119, 4034, 173, 1796, -967
0.180818, -1567, 119, 4034, 173, 1796, -967
0.180952, -1567, 119, 4034, 173, 1796, -967
0.181087, -1567, 119, 4034, 173, 1796, -967
0.181221, -1567, 119, 4034, 173, 1796, -967
0.181355, -1567, 119, 4034, 173, 1796, -967
0.181490, -2185, 611, 4461, 1286, 937, -1
0.181624, -2185, 611, 4461, 1286, 937, -1
0.181759, -2185, 611, 4461, 1286, 937, -1
0.181894, -2185, 611, 4461, 1286, 937, -1
0.182028, -2185, 611, 4461, 1286, 937, -1
0.182163, -2185, 611, 4461, 1286, 937, -1
0.182298, -2185, 611, 4461, 1286, 937, -1
0.182432, -2301, -203, 3943, 2392, 107, 1378
0.182567, -2301, -203, 3943, 2392, 107, 1378
0.182702, -2301, -203, 3943, 2392, 107, 1378
0.182837, -2301, -203, 3943, 2392, 107, 1378
0.182971, -2301, -203, 3943, 2392, 107, 1378
0.183106, -2301, -203, 3943, 2392, 107, 1378
0.183240, -2301, -203, 3943, 2392, 107, 1378
0.183375, -2301, -203, 3943, 2392, 107, 1378
0.183510, -241, -1068, 1400, 2550, -797, 2397
0.183644, -241, -1068, 1400, 2550, -797, 2397
0.183779, -241, -1068, 1400, 2550, -797, 2397
0.183914, -241, -1068, 1400, 2550, -797, 2397
0.184048, -241, -1068, 1400, 2550, -797, 2397
0.184183, -241, -1068, 1400, 2550, -797, 2397
0.184317, -241, -1068, 1400, 2550, -797, 2397
0.184452, 1167, 219, -43, 1421, -1715, 2041
0.184587, 1167, 219, -43, 1421, -1715, 2041
0.184721, 1167, 219, -43, 1421, -1715, 2041
0.184856, 1167, 219, -43, 1421, -1715, 2041
0.184991, 1167, 219, -43, 1421, -1715, 2041
0.185126, 1167, 219, -43, 1421, -1715, 2041
0.185260, 1167, 219, -43, 1421, -1715, 2041
0.185395, 1167, 219, -43, 1421, -1715, 2041
0.185530, 806, 869, 1336, 334, -2005, 1236
0.185664, 806, 869, 1336, 334, -2005, 1236
0.185799, 806, 869, 1336, 334, -2005, 1236
0.185934, 806, 869, 1336, 334, -2005, 1236
0.186069, 806, 869, 1336, 334, -2005, 1236
0.186203, 806, 869, 1336, 334, -2005, 1236
0.186338, 806, 869, 1336, 334, -2005, 1236
0.186472, 102, -32, 1466, -125, -1504, 856
0.186607, 102, -32, 1466, -125, -1504, 856
0.186742, 102, -32, 1466, -125, -1504, 856
0.186876, 102, -32, 1466, -125, -1504, 856
0.187011, 102, -32, 1466, -125, -1504, 856
0.187146, 102, -32, 1466, -125, -1504, 856
0.187280, 102, -32, 1466, -125, -1504, 856
0.187415, 102, -32, 1466, -125, -1504, 856
0.187549, -339, -186, -1016, -1119, -967, 934
0.187684, -339, -186, -1016, -1119, -967, 934
0.187819, -339, -186, -1016, -1119, -967, 934
0.187953, -339, -186, -1016, -1119, -967, 934
0.188088, -339, -186, -1016, -1119, -967, 934
0.188223, -339, -186, -1016, -1119, -967, 934
0.188357, -339, -186, -1016, -1119, -967, 934
0.188492, -682, 247, -384, -2819, -792, 1349
0.188627, -682, 247, -384, -2819, -792, 1349
0.188761, -682, 247, -384, -2819, -792, 1349
0.188896, -682, 247, -384, -2819, -792, 1349
0.189031, -682, 247, -384, -2819, -792, 1349
0.189165, -682, 247, -384, -2819, -792, 1349
0.189300, -682, 247, -384, -2819, -792, 1349
0.189434, -682, 247, -384, -2819, -792, 1349
0.189569, -1465, 98, 3265, -3249, -522, 2056
0.189704, -1465, 98, 3265, -3249, -522, 2056
0.189839, -1465, 98, 3265, -3249, -522, 2056
0.189973, -1465, 98, 3265, -3249, -522, 2056
0.190108, -1465, 98, 3265, -3249, -522, 2056
0.190242, -1465, 98, 3265, -3249, -522, 2056
0.190377, -1465, 98, 3265, -3249, -522, 2056
0.190516, -2087, 17, 3655, -2250, -186, 3267
0.190653, -2087, 17, 3655, -2250, -186, 3267
0.190788, -2087, 17, 3655, -2250, -186, 3267
0.190922, -2087, 17, 3655, -2250, -186, 3267
0.191057, -2087, 17, 3655, -2250, -186, 3267
0.191192, -2087, 17, 3655, -2250, -186, 3267
0.191326, -2087, 17, 3655, -2250, -186, 3267
0.191461, -2087, 17, 3655, -2250, -186, 3267
0.191595, 845, -664, 2053, -1784, -479, 4227
0.191730, 845, -664, 2053, -1784, -479, 4227
0.191865, 845, -664, 2053, -1784, -479, 4227
0.191999, 845, -664, 2053, -1784, -479, 4227
0.192134, 845, -664, 2053, -1784, -479, 4227
0.192268, 845, -664, 2053, -1784, -479, 4227
0.192403, 845, -664, 2053, -1784, -479, 4227
0.192537, 4625, -1203, 2585, -1744, -1167, 2923
0.192672, 4625, -1203, 2585, -1744, -1167, 2923
0.192807, 4625, -1203, 2585, -1744, -1167, 2923
0.192941, 4625, -1203, 2585, -1744, -1167, 2923
0.193076, 4625, -1203, 2585, -1744, -1167, 2923
0.193211, 4625, -1203, 2585, -1744, -1167, 2923
0.193345, 4625, -1203, 2585, -1744, -1167, 2923
0.193480, 4625, -1203, 2585, -1744, -1167, 2923
0.193614, 2864, -64, 2891, -1155, -1309, 153
0.193749, 2864, -64, 2891, -1155, -1309, 153
0.193884, 2864, -64, 2891, -1155, -1309, 153
0.194019, 2864, -64, 2891, -1155, -1309, 153
0.194153, 2864, -64, 2891, -1155, -1309, 153
0.194288, 2864, -64, 2891, -1155, -1309, 153
0.194422, 2864, -64, 2891, -1155, -1309, 153
0.194557, -232, 391, 1272, -721, -755, -1063
0.194691, -232, 391, 1272, -721, -755, -1063
0.194826, -232, 391, 1272, -721, -755, -1063
0.194961, -232, 391, 1272, -721, -755, -1063
0.195095, -232, 391, 1272, -721, -755, -1063
0.195230, -232, 391, 1272, -721, -755, -1063
0.195364, -232, 391, 1272, -721, -755, -1063
0.195499, -232, 391, 1272, -721, -755, -1063
0.195634, -567, -111, 921, -884, -150, -822
0.195768, -567, -111, 921, -884, -150, -822
0.195903, -567, -111, 921, -884, -150, -822
0.196038, -567, -111, 921, -884, -150, -822
0.196172, -567, -111, 921, -884, -150, -822
0.196307, -567, -111, 921, -884, -150, -822
0.196441, -567, -111, 921, -884, -150, -822
0.196576, -937, -77, 1969, -1086, 162, -325
0.196711, -937, -77, 1969, -1086, 162, -325
0.196845, -937, -77, 1969, -1086, 162, -325
0.196980, -937, -77, 1969, -1086, 162, -325
0.197115, -937, -77, 1969, -1086, 162, -325
0.197249, -937, -77, 1969, -1086, 162, -325
0.197384, -937, -77, 1969, -1086, 162, -325
0.197518, -937, -77, 1969, -1086, 162, -325
0.197653, -1172, -48, 2687, -1002, 370, 453
0.197788, -1172, -48, 2687, -1002, 370, 453
0.197923, -1172, -48, 2687, -1002, 370, 453
0.198057, -1172, -48, 2687, -1002, 370, 453
0.198192, -1172, -48, 2687, -1002, 370, 453
0.198326, -1172, -48, 2687, -1002, 370, 453
0.198461, -1172, -48, 2687, -1002, 370, 453
0.198595, -186, -165, 3203, -526, 416, 1035
0.198730, -186, -165, 3203, -526, 416, 1035
0.198865, -186, -165, 3203, -526, 416, 1035
0.198999, -186, -165, 3203, -526, 416, 1035
0.199134, -186, -165, 3203, -526, 416, 1035
0.199269, -186, -165, 3203, -526, 416, 1035
0.199403, -186, -165, 3203, -526, 416, 1035
0.199538, -186, -165, 3203, -526, 416, 1035
0.199672, 147, 196, 3756, 208, 202, 1048
0.199807, 147, 196, 3756, 208, 202, 1048
0.199942, 147, 196, 3756, 208, 202, 1048
0.200076, 147, 196, 3756, 208, 202, 1048
0.200211, 147, 196, 3756, 208, 202, 1048
0.200346, 147, 196, 3756, 208, 202, 1048
0.200480, 147, 196, 3756, 208, 202, 1048
0.200615, 147, 196, 3756, 208, 202, 1048
0.200749, -1097, 1064, 4514, 1192, -37, 1137
0.200884, -1097, 1064, 4514, 1192, -37, 1137
0.201019, -1097, 1064, 4514, 1192, -37, 1137
0.201154, -1097, 1064, 4514, 1192, -37, 1137
0.201288, -1097, 1064, 4514, 1192, -37, 1137
0.201423, -1097, 1064, 4514, 1192, -37, 1137
0.201557, -1097, 1064, 4514, 1192, -37, 1137
0.201692, -1885, 1311, 4714, 2595, -245, 2056
0.201827, -1885, 1311, 4714, 2595, -245, 2056
0.201962, -1885, 1311, 4714, 2595, -245, 2056
0.202097, -1885, 1311, 4714, 2595, -245, 2056
0.202231, -1885, 1311, 4714, 2595, -245, 2056
0.202366, -1885, 1311, 4714, 2595, -245, 2056
0.202500, -1885, 1311, 4714, 2595, -245, 2056
0.202635, -1885, 1311, 4714, 2595, -245, 2056
0.202773, 1026, -864, 1788, 3120, -784, 2780
0.202911, 1026, -864, 1788, 3120, -784, 2780
0.203046, 1026, -864, 1788, 3120, -784, 2780
0.203180, 1026, -864, 1788, 3120, -784, 2780
0.203315, 1026, -864, 1788, 3120, -784, 2780
0.203450, 1026, -864, 1788, 3120, -784, 2780
0.203584, 1026, -864, 1788, 3120, -784, 2780
0.203719, 3681, -1878, -1028, 1801, -1552, 1450
0.203854, 3681, -1878, -1028, 1801, -1552, 1450
0.203988, 3681, -1878, -1028, 1801, -1552, 1450
0.204123, 3681, -1878, -1028, 1801, -1552, 1450
0.204258, 3681, -1878, -1028, 1801, -1552, 1450
0.204392, 3681, -1878, -1028, 1801, -1552, 1450
0.204527, 3681, -1878, -1028, 1801, -1552, 1450
0.204661, 3681, -1878, -1028, 1801, -1552, 1450
0.204796, 730, 621, 940, 576, -1712, -402
0.204931, 730, 621, 940, 576, -1712, -402
0.205065, 730, 621, 940, 576, -1712, -402
0.205200, 730, 621, 940, 576, -1712, -402
0.205335, 730, 621, 940, 576, -1712, -402
0.205469, 730, 621, 940, 576, -1712, -402
0.205604, 730, 621, 940, 576, -1712, -402
0.205738, -2533, 1891, 3754, 892, -770, -202
0.205874, -2533, 1891, 3754, 892, -770, -202
0.206008, -2533, 1891, 3754, 892, -770, -202
0.206143, -2533, 1891, 3754, 892, -770, -202
0.206277, -2533, 1891, 3754, 892, -770, -202
0.206412, -2533, 1891, 3754, 892, -770, -202
0.206547, -2533, 1891, 3754, 892, -770, -202
0.206681, -2533, 1891, 3754, 892, -770, -202
0.206816, -1154, 471, 1679, 1603, 312, 1244
0.206951, -1154, 471, 1679, 1603, 312, 1244
0.207085, -1154, 471, 1679, 1603, 312, 1244
0.207220, -1154, 471, 1679, 1603, 312, 1244
0.207355, -1154, 471, 1679, 1603, 312, 1244
0.207489, -1154, 471, 1679, 1603, 312, 1244
0.207624, -1154, 471, 1679, 1603, 312, 1244
0.207758, 1791, -992, -2657, 56, 101, 1585
0.207893, 1791, -992, -2657, 56, 101, 1585
0.208028, 1791, -992, -2657, 56, 101, 1585
0.208163, 1791, -992, -2657, 56, 101, 1585
0.208297, 1791, -992, -2657, 56, 101, 1585
0.208432, 1791, -992, -2657, 56, 101, 1585
0.208567, 1791, -992, -2657, 56, 101, 1585
0.208701, 1791, -992, -2657, 56, 101, 1585
0.208836, 1430, -572, -757, -2829, -648, 487
0.208970, 1430, -572, -757, -2829, -648, 487
0.209105, 1430, -572, -757, -2829, -648, 487
0.209240, 1430, -572, -757, -2829, -648, 487
0.209374, 1430, -572, -757, -2829, -648, 487
0.209509, 1430, -572, -757, -2829, -648, 487
0.209644, 1430, -572, -757, -2829, -648, 487
0.209778, -728, 81, 3301, -3161, -439, 92
0.209913, -728, 81, 3301, -3161, -439, 92
0.210048, -728, 81, 3301, -3161, -439, 92
0.210183, -728, 81, 3301, -3161, -439, 92
0.210317, -728, 81, 3301, -3161, -439, 92
0.210452, -728, 81, 3301, -3161, -439, 92
0.210587, -728, 81, 3301, -3161, -439, 92
0.210721, -728, 81, 3301, -3161, -439, 92
0.210856, -404, -32, 2643, -2032, 285, 671
0.210990, -404, -32, 2643, -2032, 285, 671
0.211125, -404, -32, 2643, -2032, 285, 671
0.211260, -404, -32, 2643, -2032, 285, 671
0.211394, -404, -32, 2643, -2032, 285, 671
0.211529, -404, -32, 2643, -2032, 285, 671
0.211663, -404, -32, 2643, -2032, 285, 671
0.211798, 747, 36, 1376, -1809, 373, 714
0.211933, 747, 36, 1376, -1809, 373, 714
0.212067, 747, 36, 1376, -1809, 373, 714
0.212202, 747, 36, 1376, -1809, 373, 714
0.212336, 747, 36, 1376, -1809, 373, 714
0.212471, 747, 36, 1376, -1809, 373, 714
0.212605, 747, 36, 1376, -1809, 373, 714
0.212740, 747, 36, 1376, -1809, 373, 714
0.212875, 307, 29, 1974, -2018, -43, 445
0.213009, 307, 29, 1974, -2018, -43, 445
0.213144, 307, 29, 1974, -2018, -43, 445
0.213279, 307, 29, 1974, -2018, -43, 445
0.213413, 307, 29, 1974, -2018, -43, 445
0.213548, 307, 29, 1974, -2018, -43, 445
0.213682, 307, 29, 1974, -2018, -43, 445
0.213817, -281, 16, 2447, -1947, -214, 517
0.213952, -281, 16, 2447, -1947, -214, 517
0.214087, -281, 16, 2447, -1947, -214, 517
0.214221, -281, 16, 2447, -1947, -214, 517
0.214356, -281, 16, 2447, -1947, -214, 517
0.214490, -281, 16, 2447, -1947, -214, 517
0.214625, -281, 16, 2447, -1947, -214, 517
0.214759, -281, 16, 2447, -1947, -214, 517
0.214894, -67, 147, 1875, -1620, -280, 672
0.215028, -67, 147, 1875, -1620, -280, 672
0.215163, -67, 147, 1875, -1620, -280, 672
0.215297, -67, 147, 1875, -1620, -280, 672
0.215432, -67, 147, 1875, -1620, -280, 672
0.215572, -67, 147, 1875, -1620, -280, 672
0.215707, -67, 147, 1875, -1620, -280, 672
0.215841, 94, 250, 1643, -1593, -489, 722
0.215976, 94, 250, 1643, -1593, -489, 722
0.216111, 94, 250, 1643, -1593, -489, 722
0.216245, 94, 250, 1643, -1593, -489, 722
0.216379, 94, 250, 1643, -1593, -489, 722
0.216514, 94, 250, 1643, -1593, -489, 722
0.216648, 94, 250, 1643, -1593, -489, 722
0.216783, 94, 250, 1643, -1593, -489, 722
0.216917, -258, 201, 2088, -1763, -516, 844
0.217052, -258, 201, 2088, -1763, -516, 844
0.217186, -258, 201, 2088, -1763, -516, 844
0.217321, -258, 201, 2088, -1763, -516, 844
0.217455, -258, 201, 2088, -1763, -516, 844
0.217590, -258, 201, 2088, -1763, -516, 844
0.217724, -258, 201, 2088, -1763, -516, 844
0.217859, -608, 66, 2336, -1682, -356, 1186
0.217994, -608, 66, 2336, -1682, -356, 1186
0.218128, -608, 66, 2336, -1682, -356, 1186
0.218263, -608, 66, 2336, -1682, -356, 1186
0.218397, -608, 66, 2336, -1682, -356, 1186
0.218532, -608, 66, 2336, -1682, -356, 1186
0.218666, -608, 66, 2336, -1682, -356, 1186
0.218801, -608, 66, 2336, -1682, -356, 1186
0.218935, -299, -95, 2484, -1420, -384, 1614
0.219070, -299, -95, 2484, -1420, -384, 1614
0.219204, -299, -95, 2484, -1420, -384, 1614
0.219339, -299, -95, 2484, -1420, -384, 1614
0.219473, -299, -95, 2484, -1420, -384, 1614
0.219608, -299, -95, 2484, -1420, -384, 1614
0.219742, -299, -95, 2484, -1420, -384, 1614
0.219877, -299, -95, 2484, -1420, -384, 1614
0.220011, 267, -165, 2745, -1134, -567, 1744
0.220146, 267, -165, 2745, -1134, -567, 1744
0.220280, 267, -165, 2745, -1134, -567, 1744
0.220415, 267, -165, 2745, -1134, -567, 1744
0.220550, 267, -165, 2745, -1134, -567, 1744
0.220684, 267, -165, 2745, -1134, -567, 1744
0.220819, 267, -165, 2745, -1134, -567, 1744
0.220953, 554, -139, 3000, -724, -674, 1485
0.221088, 554, -139, 3000, -724, -674, 1485
0.221223, 554, -139, 3000, -724, -674, 1485
0.221357, 554, -139, 3000, -724, -674, 1485
0.221492, 554, -139, 3000, -724, -674, 1485
0.221626, 554, -139, 3000, -724, -674, 1485
0.221761, 554, -139, 3000, -724, -674, 1485
0.221896, 554, -139, 3000, -724, -674, 1485
0.222031, 612, 8, 3406, -42, -695, 1056
0.222166, 612, 8, 3406, -42, -695, 1056
0.222300, 612, 8, 3406, -42, -695, 1056
0.222435, 612, 8, 3406, -42, -695, 1056
0.222569, 612, 8, 3406, -42, -695, 1056
0.222704, 612, 8, 3406, -42, -695, 1056
0.222839, 612, 8, 3406, -42, -695, 1056
0.222973, -62, 677, 4460, 1069, -633, 709
0.223108, -62, 677, 4460, 1069, -633, 709
0.223243, -62, 677, 4460, 1069, -633, 709
0.223377, -62, 677, 4460, 1069, -633, 709
0.223512, -62, 677, 4460, 1069, -633, 709
0.223647, -62, 677, 4460, 1069, -633, 709
0.223781, -62, 677, 4460, 1069, -633, 709
0.223916, -62, 677, 4460, 1069, -633, 709
0.224050, -1630, 1993, 5544, 2853, -504, 1040
0.224185, -1630, 1993, 5544, 2853, -504, 1040
0.224320, -1630, 1993, 5544, 2853, -504, 1040
0.224455, -1630, 1993, 5544, 2853, -504, 1040
0.224589, -1630, 1993, 5544, 2853, -504, 1040
0.224724, -1630, 1993, 5544, 2853, -504, 1040
0.224858, -1630, 1993, 5544, 2853, -504, 1040
0.224993, -100, 162, 3101, 4124, -554, 1894
0.225128, -100, 162, 3101, 4124, -554, 1894
0.225263, -100, 162, 3101, 4124, -554, 1894
0.225397, -100, 162, 3101, 4124, -554, 1894
0.225532, -100, 162, 3101, 4124, -554, 1894
0.225666, -100, 162, 3101, 4124, -554, 1894
0.225801, -100, 162, 3101, 4124, -554, 1894
0.225936, -100, 162, 3101, 4124, -554, 1894
0.226070, 3233, -2760, 30, 3426, -1027, 1236
0.226205, 3233, -2760, 30, 3426, -1027, 1236
0.226340, 3233, -2760, 30, 3426, -1027, 1236
0.226474, 3233, -2760, 30, 3426, -1027, 1236
0.226609, 3233, -2760, 30, 3426, -1027, 1236
0.226744, 3233, -2760, 30, 3426, -1027, 1236
0.226878, 3233, -2760, 30, 3426, -1027, 1236
0.227013, 1408, -234, 1253, 2521, -1556, -636
0.227148, 1408, -234, 1253, 2521, -1556, -636
0.227282, 1408, -234, 1253, 2521, -1556, -636
0.227417, 1408, -234, 1253, 2521, -1556, -636
0.227552, 1408, -234, 1253, 2521, -1556, -636
0.227686, 1408, -234, 1253, 2521, -1556, -636
0.227821, 1408, -234, 1253, 2521, -1556, -636
0.227955, 1408, -234, 1253, 2521, -1556, -636
0.228094, 277, 1354, 147, 2028, -1169, -1226
0.228232, 277, 1354, 147, 2028, -1169, -1226
0.228366, 277, 1354, 147, 2028, -1169, -1226
0.228501, 277, 1354, 147, 2028, -1169, -1226
0.228636, 277, 1354, 147, 2028, -1169, -1226
0.228770, 277, 1354, 147, 2028, -1169, -1226
0.228905, 277, 1354, 147, 2028, -1169, -1226
0.229039, 3559, -510, -2648, 35, -74, -2122
0.229174, 3559, -510, -2648, 35, -74, -2122
0.229308, 3559, -510, -2648, 35, -74, -2122
0.229443, 3559, -510, -2648, 35, -74, -2122
0.229578, 3559, -510, -2648, 35, -74, -2122
0.229712, 3559, -510, -2648, 35, -74, -2122
0.229847, 3559, -510, -2648, 35, -74, -2122
0.229982, 3559, -510, -2648, 35, -74, -2122
0.230117, 2425, -348, -290, -1987, 614, -4283
0.230252, 2425, -348, -290, -1987, 614, -4283
0.230386, 2425, -348, -290, -1987, 614, -4283
0.230521, 2425, -348, -290, -1987, 614, -4283
0.230655, 2425, -348, -290, -1987, 614, -4283
0.230790, 2425, -348, -290, -1987, 614, -4283
0.230925, 2425, -348, -290, -1987, 614, -4283
0.231059, -1655, 127, 2677, -2104, 1377, -4622
0.231194, -1655, 127, 2677, -2104, 1377, -4622
0.231329, -1655, 127, 2677, -2104, 1377, -4622
0.231464, -1655, 127, 2677, -2104, 1377, -4622
0.231598, -1655, 127, 2677, -2104, 1377, -4622
0.231733, -1655, 127, 2677, -2104, 1377, -4622
0.231867, -1655, 127, 2677, -2104, 1377, -4622
0.232002, -1655, 127, 2677, -2104, 1377, -4622
0.232137, -2089, -170, 2434, -1331, 2441, -3154
0.232271, -2089, -170, 2434, -1331, 2441, -3154
0.232406, -2089, -170, 2434, -1331, 2441, -3154
0.232541, -2089, -170, 2434, -1331, 2441, -3154
0.232675, -2089, -170, 2434, -1331, 2441, -3154
0.232810, -2089, -170, 2434, -1331, 2441, -3154
0.232944, -2089, -170, 2434, -1331, 2441, -3154
0.233079, -1947, 10, 1417, -875, 2414, -1875
0.233214, -1947, 10, 1417, -875, 2414, -1875
0.233348, -1947, 10, 1417, -875, 2414, -1875
0.233483, -1947, 10, 1417, -875, 2414, -1875
0.233618, -1947, 10, 1417, -875, 2414, -1875
0.233752, -1947, 10, 1417, -875, 2414, -1875
0.233887, -1947, 10, 1417, -875, 2414, -1875
0.234022, -1947, 10, 1417, -875, 2414, -1875
0.234156, -3539, 157, 1933, -1089, 1339, -190
0.234291, -3539, 157, 1933, -1089, 1339, -190
0.234426, -3539, 157, 1933, -1089, 1339, -190
0.234560, -3539, 157, 1933, -1089, 1339, -190
0.234695, -3539, 157, 1933, -1089, 1339, -190
0.234830, -3539, 157, 1933, -1089, 1339, -190
0.234964, -3539, 157, 1933, -1089, 1339, -190
0.235099, -3267, 45, 2862, -1248, 435, 2242
0.235234, -3267, 45, 2862, -1248, 435, 2242
0.235368, -3267, 45, 2862, -1248, 435, 2242
0.235503, -3267, 45, 2862, -1248, 435, 2242
0.235637, -3267, 45, 2862, -1248, 435, 2242
0.235772, -3267, 45, 2862, -1248, 435, 2242
0.235906, -3267, 45, 2862, -1248, 435, 2242
0.236041, -3267, 45, 2862, -1248, 435, 2242
0.236176, -666, -52, 2527, -1113, -406, 3826
0.236310, -666, -52, 2527, -1113, -406, 3826
0.236445, -666, -52, 2527, -1113, -406, 3826
0.236580, -666, -52, 2527, -1113, -406, 3826
0.236714, -666, -52, 2527, -1113, -406, 3826
0.236849, -666, -52, 2527, -1113, -406, 3826
0.236983, -666, -52, 2527, -1113, -406, 3826
0.237118, 721, -65, 2481, -1222, -1492, 3884
0.237253, 721, -65, 2481, -1222, -1492, 3884
0.237387, 721, -65, 2481, -1222, -1492, 3884
0.237522, 721, -65, 2481, -1222, -1492, 3884
0.237656, 721, -65, 2481, -1222, -1492, 3884
0.237791, 721, -65, 2481, -1222, -1492, 3884
0.237926, 721, -65, 2481, -1222, -1492, 3884
0.238061, 721, -65, 2481, -1222, -1492, 3884
0.238195, 816, -125, 3111, -1183, -2179, 3407
0.238330, 816, -125, 3111, -1183, -2179, 3407
0.238464, 816, -125, 3111, -1183, -2179, 3407
0.238599, 816, -125, 3111, -1183, -2179, 3407
0.238734, 816, -125, 3111, -1183, -2179, 3407
0.238868, 816, -125, 3111, -1183, -2179, 3407
0.239003, 816, -125, 3111, -1183, -2179, 3407
0.239137, 816, -125, 3111, -1183, -2179, 3407
0.239272, 1404, -179, 3420, -561, -2296, 2698
0.239407, 1404, -179, 3420, -561, -2296, 2698
0.239541, 1404, -179, 3420, -561, -2296, 2698
0.239676, 1404, -179, 3420, -561, -2296, 2698
0.239811, 1404, -179, 3420, -561, -2296, 2698
0.239945, 1404, -179, 3420, -561, -2296, 2698
0.240080, 1404, -179, 3420, -561, -2296, 2698
0.240218, 1938, -285, 3275, 403, -2243, 1589
0.240355, 1938, -285, 3275, 403, -2243, 1589
0.240490, 1938, -285, 3275, 403, -2243, 1589
0.240625, 1938, -285, 3275, 403, -2243, 1589
0.240759, 1938, -285, 3275, 403, -2243, 1589
0.240894, 1938, -285, 3275, 403, -2243, 1589
0.241028, 1938, -285, 3275, 403, -2243, 1589
0.241163, 1938, -285, 3275, 403, -2243, 1589
0.241297, 2455, -359, 2103, 1081, -1983, 262
0.241432, 2455, -359, 2103, 1081, -1983, 262
0.241567, 2455, -359, 2103, 1081, -1983, 262
0.241701, 2455, -359, 2103, 1081, -1983, 262
0.241836, 2455, -359, 2103, 1081, -1983, 262
0.241971, 2455, -359, 2103, 1081, -1983, 262
0.242106, 2455, -359, 2103, 1081, -1983, 262
0.242240, 2598, 90, 577, 897, -1268, -1415
0.242375, 2598, 90, 577, 897, -1268, -1415
0.242510, 2598, 90, 577, 897, -1268, -1415
0.242644, 2598, 90, 577, 897, -1268, -1415
0.242779, 2598, 90, 577, 897, -1268, -1415
0.242914, 2598, 90, 577, 897, -1268, -1415
0.243048, 2598, 90, 577, 897, -1268, -1415
0.243183, 2598, 90, 577, 897, -1268, -1415
0.243317, 1152, 339, 609, 267, -60, -2831
0.243452, 1152, 339, 609, 267, -60, -2831
0.243587, 1152, 339, 609, 267, -60, -2831
0.243721, 1152, 339, 609, 267, -60, -2831
0.243856, 1152, 339, 609, 267, -60, -2831
0.243991, 1152, 339, 609, 267, -60, -2831
0.244125, 1152, 339, 609, 267, -60, -2831
0.244260, -671, 23, 1916, 53, 1400, -3010
0.244395, -671, 23, 1916, 53, 1400, -3010
0.244529, -671, 23, 1916, 53, 1400, -3010
0.244664, -671, 23, 1916, 53, 1400, -3010
0.244799, -671, 23, 1916, 53, 1400, -3010
0.244933, -671, 23, 1916, 53, 1400, -3010
0.245068, -671, 23, 1916, 53, 1400, -3010
0.245203, -671, 23, 1916, 53, 1400, -3010
0.245337, -1330, 37, 2290, 248, 2544, -2209
0.245472, -1330, 37, 2290, 248, 2544, -2209
0.245607, -1330, 37, 2290, 248, 2544, -2209
0.245741, -1330, 37, 2290, 248, 2544, -2209
0.245876, -1330, 37, 2290, 248, 2544, -2209
0.246011, -1330, 37, 2290, 248, 2544, -2209
0.246145, -1330, 37, 2290, 248, 2544, -2209
0.246280, -740, 144, 1846, 203, 2832, -1357
0.246415, -740, 144, 1846, 203, 2832, -1357
0.246549, -740, 144, 1846, 203, 2832, -1357
0.246684, -740, 144, 1846, 203, 2832, -1357
0.246818, -740, 144, 1846, 203, 2832, -1357
0.246953, -740, 144, 1846, 203, 2832, -1357
0.247088, -740, 144, 1846, 203, 2832, -1357
0.247222, -740, 144, 1846, 203, 2832, -1357
0.247357, -366, -17, 2160, -88, 2297, -954
0.247492, -366, -17, 2160, -88, 2297, -954
0.247626, -366, -17, 2160, -88, 2297, -954
0.247761, -366, -17, 2160, -88, 2297, -954
0.247895, -366, -17, 2160, -88, 2297, -954
0.248030, -366, -17, 2160, -88, 2297, -954
0.248164, -366, -17, 2160, -88, 2297, -954
0.248299, -265, -166, 2567, -141, 1419, -749
0.248434, -265, -166, 2567, -141, 1419, -749
0.248569, -265, -166, 2567, -141, 1419, -749
0.248703, -265, -166, 2567, -141, 1419, -749
0.248838, -265, -166, 2567, -141, 1419, -749
0.248972, -265, -166, 2567, -141, 1419, -749
0.249107, -265, -166, 2567, -141, 1419, -749
0.249241, -265, -166, 2567, -141, 1419, -749
0.249376, 311, -201, 2528, 61, 558, -752
0.249511, 311, -201, 2528, 61, 558, -752
0.249645, 311, -201, 2528, 61, 558, -752
0.249780, 311, -201, 2528, 61, 558, -752
0.249915, 311, -201, 2528, 61, 558, -752
0.250050, 311, -201, 2528, 61, 558, -752
0.250184, 311, -201, 2528, 61, 558, -752
0.250319, 5, 5, 2711, 441, -104, -961
0.250454, 5, 5, 2711, 441, -104, -961
0.250588, 5, 5, 2711, 441, -104, -961
0.250723, 5, 5, 2711, 441, -104, -961
0.250858, 5, 5, 2711, 441, -104, -961
0.250992, 5, 5, 2711, 441, -104, -961
0.251127, 5, 5, 2711, 441, -104, -961
0.251261, 5, 5, 2711, 441, -104, -961
0.251396, -274, 229, 3323, 1097, -439, -886
0.251531, -274, 229, 3323, 1097, -439, -886
0.251665, -274, 229, 3323, 1097, -439, -886
0.251800, -274, 229, 3323, 1097, -439, -886
0.251935, -274, 229, 3323, 1097, -439, -886
0.252069, -274, 229, 3323, 1097, -439, -886
0.252204, -274, 229, 3323, 1097, -439, -886
0.252338, -271, -93, 3167, 1945, -505, -702
0.252473, -271, -93, 3167, 1945, -505, -702
0.252608, -271, -93, 3167, 1945, -505, -702
0.252742, -271, -93, 3167, 1945, -505, -702
0.252877, -271, -93, 3167, 1945, -505, -702
0.253015, -271, -93, 3167, 1945, -505, -702
0.253150, -271, -93, 3167, 1945, -505, -702
0.253285, -271, -93, 3167, 1945, -505, -702
0.253420, -1259, -496, 1545, 2266, -542, -327
0.253554, -1259, -496, 1545, 2266, -542, -327
0.253689, -1259, -496, 1545, 2266, -542, -327
0.253824, -1259, -496, 1545, 2266, -542, -327
0.253959, -1259, -496, 1545, 2266, -542, -327
0.254093, -1259, -496, 1545, 2266, -542, -327
0.254228, -1259, -496, 1545, 2266, -542, -327
0.254363, -603, 0, 117, 1578, -638, 470
0.254497, -603, 0, 117, 1578, -638, 470
0.254632, -603, 0, 117, 1578, -638, 470
0.254767, -603, 0, 117, 1578, -638, 470
0.254901, -603, 0, 117, 1578, -638, 470
0.255036, -603, 0, 117, 1578, -638, 470
0.255170, -603, 0, 117, 1578, -638, 470
0.255305, -603, 0, 117, 1578, -638, 470
0.255440, 2536, 637, 41, 321, -565, 333
0.255574, 2536, 637, 41, 321, -565, 333
0.255709, 2536, 637, 41, 321, -565, 333
0.255844, 2536, 637, 41, 321, -565, 333
0.255978, 2536, 637, 41, 321, -565, 333
0.256113, 2536, 637, 41, 321, -565, 333
0.256248, 2536, 637, 41, 321, -565, 333
0.256382, 4124, 499, 1061, -781, -2, -1626
0.256517, 4124, 499, 1061, -781, -2, -1626
0.256652, 4124, 499, 1061, -781, -2, -1626
0.256786, 4124, 499, 1061, -781, -2, -1626
0.256921, 4124, 499, 1061, -781, -2, -1626
0.257055, 4124, 499, 1061, -781, -2, -1626
0.257190, 4124, 499, 1061, -781, -2, -1626
0.257325, 4124, 499, 1061, -781, -2, -1626
0.257459, 2487, 105, 1900, -1053, 1065, -3852
0.257594, 2487, 105, 1900, -1053, 1065, -3852
0.257729, 2487, 105, 1900, -1053, 1065, -3852
0.257864, 2487, 105, 1900, -1053, 1065, -3852
0.257998, 2487, 105, 1900, -1053, 1065, -3852
0.258135, 2487, 105, 1900, -1053, 1065, -3852
0.258272, 2487, 105, 1900, -1053, 1065, -3852
0.258407, 267, -52, 1965, -688, 2210, -4705
0.258543, 267, -52, 1965, -688, 2210, -4705
0.258678, 267, -52, 1965, -688, 2210, -4705
0.258813, 267, -52, 1965, -688, 2210, -4705
0.258949, 267, -52, 1965, -688, 2210, -4705
0.259084, 267, -52, 1965, -688, 2210, -4705
0.259225, 267, -52, 1965, -688, 2210, -4705
0.259364, 267, -52, 1965, -688, 2210, -4705
0.259499, -462, -65, 2032, -254, 2910, -4465
0.259635, -462, -65, 2032, -254, 2910, -4465
0.259771, -462, -65, 2032, -254, 2910, -4465
0.259907, -462, -65, 2032, -254, 2910, -4465
0.260042, -462, -65, 2032, -254, 2910, -4465
0.260178, -462, -65, 2032, -254, 2910, -4465
0.260313, -462, -65, 2032, -254, 2910, -4465
0.260451, -317, -87, 2295, 148, 3026, -4082
0.260591, -317, -87, 2295, 148, 3026, -4082
0.260723, -317, -87, 2295, 148, 3026, -4082
0.260858, -317, -87, 2295, 148, 3026, -4082
0.260998, -317, -87, 2295, 148, 3026, -4082
0.261139, -317, -87, 2295, 148, 3026, -4082
0.261278, -317, -87, 2295, 148, 3026, -4082
0.261419, -317, -87, 2295, 148, 3026, -4082
0.261557, -408, -142, 2571, 518, 2817, -3802
0.261700, -408, -142, 2571, 518, 2817, -3802
0.261839, -408, -142, 2571, 518, 2817, -3802
0.261978, -408, -142, 2571, 518, 2817, -3802
0.262119, -408, -142, 2571, 518, 2817, -3802
0.262256, -408, -142, 2571, 518, 2817, -3802
0.262395, -408, -142, 2571, 518, 2817, -3802
0.262534, -802, -133, 2934, 928, 2544, -3416
0.262677, -802, -133, 2934, 928, 2544, -3416
0.262815, -802, -133, 2934, 928, 2544, -3416
0.262954, -802, -133, 2934, 928, 2544, -3416
0.263094, -802, -133, 2934, 928, 2544, -3416
0.263233, -802, -133, 2934, 928, 2544, -3416
0.263371, -802, -133, 2934, 928, 2544, -3416
0.263510, -1829, -28, 3607, 1590, 2258, -2733
0.263651, -1829, -28, 3607, 1590, 2258, -2733
0.263791, -1829, -28, 3607, 1590, 2258, -2733
0.263930, -1829, -28, 3607, 1590, 2258, -2733
0.264068, -1829, -28, 3607, 1590, 2258, -2733
0.264207, -1829, -28, 3607, 1590, 2258, -2733
0.264345, -1829, -28, 3607, 1590, 2258, -2733
0.264485, -4197, -114, 3099, 2296, 1778, -1195
0.264624, -4197, -114, 3099, 2296, 1778, -1195
0.264762, -4197, -114, 3099, 2296, 1778, -1195
0.264901, -4197, -114, 3099, 2296, 1778, -1195
0.265040, -4197, -114, 3099, 2296, 1778, -1195
0.265178, -4197, -114, 3099, 2296, 1778, -1195
0.265317, -4197, -114, 3099, 2296, 1778, -1195
0.265456, -4197, -114, 3099, 2296, 1778, -1195
0.265594, -5019, -240, 186, 1770, 721, 1658
0.265775, -5019, -240, 186, 1770, 721, 1658
0.265919, -5019, -240, 186, 1770, 721, 1658
0.266056, -5019, -240, 186, 1770, 721, 1658
0.266196, -5019, -240, 186, 1770, 721, 1658
0.266334, -5019, -240, 186, 1770, 721, 1658
0.266471, -5019, -240, 186, 1770, 721, 1658
0.266606, -862, -434, -782, -397, -957, 4046
0.266741, -862, -434, -782, -397, -957, 4046
0.266875, -862, -434, -782, -397, -957, 4046
0.267011, -862, -434, -782, -397, -957, 4046
0.267147, -862, -434, -782, -397, -957, 4046
0.267282, -862, -434, -782, -397, -957, 4046
0.267416, -862, -434, -782, -397, -957, 4046
0.267550, 3387, -455, 2327, -1911, -2352, 3414
0.267684, 3387, -455, 2327, -1911, -2352, 3414
0.267818, 3387, -455, 2327, -1911, -2352, 3414
0.267952, 3387, -455, 2327, -1911, -2352, 3414
0.268087, 3387, -455, 2327, -1911, -2352, 3414
0.268221, 3387, -455, 2327, -1911, -2352, 3414
0.268355, 3387, -455, 2327, -1911, -2352, 3414
0.268489, 3387, -455, 2327, -1911, -2352, 3414
0.268618, 2366, 132, 4052, -1376, -2449, 1136
0.268747, 2366, 132, 4052, -1376, -2449, 1136
0.268881, 2366, 132, 4052, -1376, -2449, 1136
0.269015, 2366, 132, 4052, -1376, -2449, 1136
0.269149, 2366, 132, 4052, -1376, -2449, 1136
0.269283, 2366, 132, 4052, -1376, -2449, 1136
0.269417, 2366, 132, 4052, -1376, -2449, 1136
0.269551, 221, 219, 2879, -260, -1607, 140
0.269685, 221, 219, 2879, -260, -1607, 140
0.269827, 221, 219, 2879, -260, -1607, 140
0.269962, 221, 219, 2879, -260, -1607, 140
0.270096, 221, 219, 2879, -260, -1607, 140
0.270230, 221, 219, 2879, -260, -1607, 140
0.270364, 221, 219, 2879, -260, -1607, 140
0.270497, 221, 219, 2879, -260, -1607, 140
0.270631, 50, -147, 2267, 430, -929, 160
0.270765, 50, -147, 2267, 430, -929, 160
0.270899, 50, -147, 2267, 430, -929, 160
0.271033, 50, -147, 2267, 430, -929, 160
0.271167, 50, -147, 2267, 430, -929, 160
0.271301, 50, -147, 2267, 430, -929, 160
0.271435, 50, -147, 2267, 430, -929, 160
0.271569, 50, -147, 2267, 430, -929, 160
0.271703, -29, -37, 2507, 858, -574, 209
0.271837, -29, -37, 2507, 858, -574, 209
0.271971, -29, -37, 2507, 858, -574, 209
0.272104, -29, -37, 2507, 858, -574, 209
0.272238, -29, -37, 2507, 858, -574, 209
0.272372, -29, -37, 2507, 858, -574, 209
0.272506, -29, -37, 2507, 858, -574, 209
0.272640, -458, 260, 3030, 1374, -106, 401
0.272774, -458, 260, 3030, 1374, -106, 401
0.272908, -458, 260, 3030, 1374, -106, 401
0.273042, -458, 260, 3030, 1374, -106, 401
0.273176, -458, 260, 3030, 1374, -106, 401
0.273310, -458, 260, 3030, 1374, -106, 401
0.273444, -458, 260, 3030, 1374, -106, 401
0.273578, -458, 260, 3030, 1374, -106, 401
0.273712, -869, 441, 3410, 2201, 368, 876
0.273846, -869, 441, 3410, 2201, 368, 876
0.273981, -869, 441, 3410, 2201, 368, 876
0.274114, -869, 441, 3410, 2201, 368, 876
0.274248, -869, 441, 3410, 2201, 368, 876
0.274382, -869, 441, 3410, 2201, 368, 876
0.274516, -869, 441, 3410, 2201, 368, 876
0.274650, -523, 290, 1990, 2520, 468, 1447
0.274780, -523, 290, 1990, 2520, 468, 1447
0.274914, -523, 290, 1990, 2520, 468, 1447
0.275049, -523, 290, 1990, 2520, 468, 1447
0.275183, -523, 290, 1990, 2520, 468, 1447
0.275317, -523, 290, 1990, 2520, 468, 1447
0.275451, -523, 290, 1990, 2520, 468, 1447
0.275585, -523, 290, 1990, 2520, 468, 1447
0.275719, 93, 60, 134, 1603, 182, 1700
0.275853, 93, 60, 134, 1603, 182, 1700
0.275987, 93, 60, 134, 1603, 182, 1700
0.276121, 93, 60, 134, 1603, 182, 1700
0.276251, 93, 60, 134, 1603, 182, 1700
0.276385, 93, 60, 134, 1603, 182, 1700
0.276519, 93, 60, 134, 1603, 182, 1700
0.276653, 762, 120, -109, 9, -334, 1519
0.276787, 762, 120, -109, 9, -334, 1519
0.276921, 762, 120, -109, 9, -334, 1519
0.277055, 762, 120, -109, 9, -334, 1519
0.277189, 762, 120, -109, 9, -334, 1519
0.277322, 762, 120, -109, 9, -334, 1519
0.277456, 762, 120, -109, 9, -334, 1519
0.277590, 762, 120, -109, 9, -334, 1519
0.277724, 1720, 113, 709, -1330, -733, 776
0.277859, 1720, 113, 709, -1330, -733, 776
0.277993, 1720, 113, 709, -1330, -733, 776
0.278127, 1720, 113, 709, -1330, -733, 776
0.278261, 1720, 113, 709, -1330, -733, 776
0.278394, 1720, 113, 709, -1330, -733, 776
0.278545, 1720, 113, 709, -1330, -733, 776
0.278681, 959, 94, 1800, -1809, -695, -215
0.278815, 959, 94, 1800, -1809, -695, -215
0.278949, 959, 94, 1800, -1809, -695, -215
0.279083, 959, 94, 1800, -1809, -695, -215
0.279217, 959, 94, 1800, -1809, -695, -215
0.279351, 959, 94, 1800, -1809, -695, -215
0.279485, 959, 94, 1800, -1809, -695, -215
0.279618, 959, 94, 1800, -1809, -695, -215
0.279752, -649, 62, 2153, -1616, -433, -433
0.279886, -649, 62, 2153, -1616, -433, -433
0.280020, -649, 62, 2153, -1616, -433, -433
0.280154, -649, 62, 2153, -1616, -433, -433
0.280288, -649, 62, 2153, -1616, -433, -433
0.280422, -649, 62, 2153, -1616, -433, -433
0.280556, -649, 62, 2153, -1616, -433, -433
0.280689, -649, 62, 2153, -1616, -433, -433
0.280823, -979, -132, 1939, -1362, -293, 210
0.280957, -979, -132, 1939, -1362, -293, 210
0.281091, -979, -132, 1939, -1362, -293, 210
0.281225, -979, -132, 1939, -1362, -293, 210
0.281360, -979, -132, 1939, -1362, -293, 210
0.281495, -979, -132, 1939, -1362, -293, 210
0.281629, -979, -132, 1939, -1362, -293, 210
0.281763, -387, -206, 2536, -1093, -350, 864
0.281899, -387, -206, 2536, -1093, -350, 864
0.282034, -387, -206, 2536, -1093, -350, 864
0.282168, -387, -206, 2536, -1093, -350, 864
0.282303, -387, -206, 2536, -1093, -350, 864
0.282438, -387, -206, 2536, -1093, -350, 864
0.282568, -387, -206, 2536, -1093, -350, 864
0.282706, -387, -206, 2536, -1093, -350, 864
0.282840, 373, 38, 3536, -424, -375, 989
0.282975, 373, 38, 3536, -424, -375, 989
0.283110, 373, 38, 3536, -424, -375, 989
0.283244, 373, 38, 3536, -424, -375, 989
0.283379, 373, 38, 3536, -424, -375, 989
0.283514, 373, 38, 3536, -424, -375, 989
0.283648, 373, 38, 3536, -424, -375, 989
0.283783, -48, 448, 3501, 491, -166, 821
0.283918, -48, 448, 3501, 491, -166, 821
0.284052, -48, 448, 3501, 491, -166, 821
0.284187, -48, 448, 3501, 491, -166, 821
0.284321, -48, 448, 3501, 491, -166, 821
0.284456, -48, 448, 3501, 491, -166, 821
0.284590, -48, 448, 3501, 491, -166, 821
0.284725, -48, 448, 3501, 491, -166, 821
0.284860, -691, 295, 2919, 1100, 103, 1058
0.284995, -691, 295, 2919, 1100, 103, 1058
0.285129, -691, 295, 2919, 1100, 103, 1058
0.285264, -691, 295, 2919, 1100, 103, 1058
0.285398, -691, 295, 2919, 1100, 103, 1058
0.285533, -691, 295, 2919, 1100, 103, 1058
0.285667, -691, 295, 2919, 1100, 103, 1058
0.285802, -245, -176, 2804, 1443, 111, 1440
0.285937, -245, -176, 2804, 1443, 111, 1440
0.286072, -245, -176, 2804, 1443, 111, 1440
0.286206, -245, -176, 2804, 1443, 111, 1440
0.286341, -245, -176, 2804, 1443, 111, 1440
0.286475, -245, -176, 2804, 1443, 111, 1440
0.286610, -245, -176, 2804, 1443, 111, 1440
0.286745, -245, -176, 2804, 1443, 111, 1440
0.286879, -454, -283, 2860, 1817, -95, 1622
0.287014, -454, -283, 2860, 1817, -95, 1622
0.287149, -454, -283, 2860, 1817, -95, 1622
0.287283, -454, -283, 2860, 1817, -95, 1622
0.287418, -454, -283, 2860, 1817, -95, 1622
0.287552, -454, -283, 2860, 1817, -95, 1622
0.287687, -454, -283, 2860, 1817, -95, 1622
0.287822, 534, -128, 3146, 2293, -333, 1775
0.287956, 534, -128, 3146, 2293, -333, 1775
0.288091, 534, -128, 3146, 2293, -333, 1775
0.288226, 534, -128, 3146, 2293, -333, 1775
0.288360, 534, -128, 3146, 2293, -333, 1775
0.288495, 534, -128, 3146, 2293, -333, 1775
0.288630, 534, -128, 3146, 2293, -333, 1775
0.288764, 534, -128, 3146, 2293, -333, 1775
0.288899, 2347, 281, 3204, 2930, -581, 918
0.289034, 2347, 281, 3204, 2930, -581, 918
0.289168, 2347, 281, 3204, 2930, -581, 918
0.289303, 2347, 281, 3204, 2930, -581, 918
0.289437, 2347, 281, 3204, 2930, -581, 918
0.289572, 2347, 281, 3204, 2930, -581, 918
0.289707, 2347, 281, 3204, 2930, -581, 918
0.289842, 676, -35, 1033, 2930, -722, -471
0.289977, 676, -35, 1033, 2930, -722, -471
0.290112, 676, -35, 1033, 2930, -722, -471
0.290246, 676, -35, 1033, 2930, -722, -471
0.290381, 676, -35, 1033, 2930, -722, -471
0.290516, 676, -35, 1033, 2930, -722, -471
0.290650, 676, -35, 1033, 2930, -722, -471
0.290785, 676, -35, 1033, 2930, -722, -471
0.290919, -621, -669, -996, 1573, -709, -654
0.291054, -621, -669, -996, 1573, -709, -654
0.291189, -621, -669, -996, 1573, -709, -654
0.291330, -621, -669, -996, 1573, -709, -654
0.291466, -621, -669, -996, 1573, -709, -654
0.291601, -621, -669, -996, 1573, -709, -654
0.291735, -621, -669, -996, 1573, -709, -654
0.291870, 595, -124, 219, 160, -541, -461
0.292005, 595, -124, 219, 160, -541, -461
0.292139, 595, -124, 219, 160, -541, -461
0.292274, 595, -124, 219, 160, -541, -461
0.292409, 595, -124, 219, 160, -541, -461
0.292543, 595, -124, 219, 160, -541, -461
0.292678, 595, -124, 219, 160, -541, -461
0.292812, 595, -124, 219, 160, -541, -461
0.292947, 979, 188, 1733, -485, -22, -902
0.293082, 979, 188, 1733, -485, -22, -902
0.293216, 979, 188, 1733, -485, -22, -902
0.293351, 979, 188, 1733, -485, -22, -902
0.293486, 979, 188, 1733, -485, -22, -902
0.293620, 979, 188, 1733, -485, -22, -902
0.293755, 979, 188, 1733, -485, -22, -902
0.293890, -131, -149, 2477, -547, 778, -1324
0.294025, -131, -149, 2477, -547, 778, -1324
0.294159, -131, -149, 2477, -547, 778, -1324
0.294294, -131, -149, 2477, -547, 778, -1324
0.294428, -131, -149, 2477, -547, 778, -1324
0.294563, -131, -149, 2477, -547, 778, -1324
0.294698, -131, -149, 2477, -547, 778, -1324
0.294832, -131, -149, 2477, -547, 778, -1324
0.294967, -2349, -21, 3313, 123, 1231, -704
0.295102, -2349, -21, 3313, 123, 1231, -704
0.295237, -2349, -21, 3313, 123, 1231, -704
0.295371, -2349, -21, 3313, 123, 1231, -704
0.295506, -2349, -21, 3313, 123, 1231, -704
0.295641, -2349, -21, 3313, 123, 1231, -704
0.295775, -2349, -21, 3313, 123, 1231, -704
0.295910, -3349, 232, 3843, 1043, 1022, 1161
0.296045, -3349, 232, 3843, 1043, 1022, 1161
0.296179, -3349, 232, 3843, 1043, 1022, 1161
0.296314, -3349, 232, 3843, 1043, 1022, 1161
0.296448, -3349, 232, 3843, 1043, 1022, 1161
0.296583, -3349, 232, 3843, 1043, 1022, 1161
0.296718, -3349, 232, 3843, 1043, 1022, 1161
0.296852, -3349, 232, 3843, 1043, 1022, 1161
0.296987, -1630, -169, 3590, 1779, 244, 2937
0.297122, -1630, -169, 3590, 1779, 244, 2937
0.297256, -1630, -169, 3590, 1779, 244, 2937
0.297391, -1630, -169, 3590, 1779, 244, 2937
0.297525, -1630, -169, 3590, 1779, 244, 2937
0.297660, -1630, -169, 3590, 1779, 244, 2937
0.297795, -1630, -169, 3590, 1779, 244, 2937
0.297930, 216, -390, 2463, 2056, -935, 3441
0.298065, 216, -390, 2463, 2056, -935, 3441
0.298199, 216, -390, 2463, 2056, -935, 3441
0.298334, 216, -390, 2463, 2056, -935, 3441
0.298469, 216, -390, 2463, 2056, -935, 3441
0.298603, 216, -390, 2463, 2056, -935, 3441
0.298738, 216, -390, 2463, 2056, -935, 3441
0.298873, 216, -390, 2463, 2056, -935, 3441
0.299003, 236, 165, 1594, 1647, -1966, 3114
0.299140, 236, 165, 1594, 1647, -1966, 3114
0.299276, 236, 165, 1594, 1647, -1966, 3114
0.299411, 236, 165, 1594, 1647, -1966, 3114
0.299546, 236, 165, 1594, 1647, -1966, 3114
0.299680, 236, 165, 1594, 1647, -1966, 3114
0.299815, 236, 165, 1594, 1647, -1966, 3114
0.299949, 236, 165, 1594, 1647, -1966, 3114
0.300084, -301, 391, 1454, 1000, -2340, 2960
0.300219, -301, 391, 1454, 1000, -2340, 2960
0.300354, -301, 391, 1454, 1000, -2340, 2960
0.300484, -301, 391, 1454, 1000, -2340, 2960
0.300620, -301, 391, 1454, 1000, -2340, 2960
0.300754, -301, 391, 1454, 1000, -2340, 2960
0.300889, -301, 391, 1454, 1000, -2340, 2960
0.301023, 649, 300, 1429, 504, -2230, 3053
0.301158, 649, 300, 1429, 504, -2230, 3053
0.301293, 649, 300, 1429, 504, -2230, 3053
0.301428, 649, 300, 1429, 504, -2230, 3053
0.301562, 649, 300, 1429, 504, -2230, 3053
0.301697, 649, 300, 1429, 504, -2230, 3053
0.301832, 649, 300, 1429, 504, -2230, 3053
0.301967, 649, 300, 1429, 504, -2230, 3053
0.302101, 3833, -28, 1554, 41, -1985, 2069
0.302236, 3833, -28, 1554, 41, -1985, 2069
0.302371, 3833, -28, 1554, 41, -1985, 2069
0.302505, 3833, -28, 1554, 41, -1985, 2069
0.302640, 3833, -28, 1554, 41, -1985, 2069
0.302775, 3833, -28, 1554, 41, -1985, 2069
0.302909, 3833, -28, 1554, 41, -1985, 2069
0.303044, 3725, -82, 1476, -240, -1399, -463
0.303179, 3725, -82, 1476, -240, -1399, -463
0.303313, 3725, -82, 1476, -240, -1399, -463
0.303448, 3725, -82, 1476, -240, -1399, -463
0.303583, 3725, -82, 1476, -240, -1399, -463
0.303717, 3725, -82, 1476, -240, -1399, -463
0.303858, 3725, -82, 1476, -240, -1399, -463
0.303995, 3725, -82, 1476, -240, -1399, -463
0.304130, -561, 205, 1010, -400, -367, -1817
0.304264, -561, 205, 1010, -400, -367, -1817
0.304399, -561, 205, 1010, -400, -367, -1817
0.304534, -561, 205, 1010, -400, -367, -1817
0.304668, -561, 205, 1010, -400, -367, -1817
0.304803, -561, 205, 1010, -400, -367, -1817
0.304937, -561, 205, 1010, -400, -367, -1817
0.305072, 134, -35, 1730, -424, 642, -1231
0.305207, 134, -35, 1730, -424, 642, -1231
0.305342, 134, -35, 1730, -424, 642, -1231
0.305476, 134, -35, 1730, -424, 642, -1231
0.305611, 134, -35, 1730, -424, 642, -1231
0.305745, 134, -35, 1730, -424, 642, -1231
0.305881, 134, -35, 1730, -424, 642, -1231
0.306015, 134, -35, 1730, -424, 642, -1231
0.306150, 3710, 98, 1933, -208, 1312, -1917
0.306285, 3710, 98, 1933, -208, 1312, -1917
0.306419, 3710, 98, 1933, -208, 1312, -1917
0.306554, 3710, 98, 1933, -208, 1312, -1917
0.306688, 3710, 98, 1933, -208, 1312, -1917
0.306823, 3710, 98, 1933, -208, 1312, -1917
0.306958, 3710, 98, 1933, -208, 1312, -1917
0.307092, 2800, 377, 867, -576, 1951, -4129
0.307227, 2800, 377, 867, -576, 1951, -4129
0.307362, 2800, 377, 867, -576, 1951, -4129
0.307496, 2800, 377, 867, -576, 1951, -4129
0.307631, 2800, 377, 867, -576, 1951, -4129
0.307765, 2800, 377, 867, -576, 1951, -4129
0.307900, 2800, 377, 867, -576, 1951, -4129
0.308035, 2800, 377, 867, -576, 1951, -4129
0.308169, 192, -22, 1251, -1125, 2781, -5246
0.308304, 192, -22, 1251, -1125, 2781, -5246
0.308439, 192, -22, 1251, -1125, 2781, -5246
0.308573, 192, -22, 1251, -1125, 2781, -5246
0.308708, 192, -22, 1251, -1125, 2781, -5246
0.308842, 192, -22, 1251, -1125, 2781, -5246
0.308977, 192, -22, 1251, -1125, 2781, -5246
0.309112, -1020, -179, 2613, -904, 3443, -4901
0.309246, -1020, -179, 2613, -904, 3443, -4901
0.309381, -1020, -179, 2613, -904, 3443, -4901
0.309516, -1020, -179, 2613, -904, 3443, -4901
0.309650, -1020, -179, 2613, -904, 3443, -4901
0.309785, -1020, -179, 2613, -904, 3443, -4901
0.309920, -1020, -179, 2613, -904, 3443, -4901
0.310054, -1020, -179, 2613, -904, 3443, -4901
0.310189, -1761, 150, 3491, -154, 3646, -3959
0.310324, -1761, 150, 3491, -154, 3646, -3959
0.310458, -1761, 150, 3491, -154, 3646, -3959
0.310593, -1761, 150, 3491, -154, 3646, -3959
0.310728, -1761, 150, 3491, -154, 3646, -3959
0.310862, -1761, 150, 3491, -154, 3646, -3959
0.310997, -1761, 150, 3491, -154, 3646, -3959
0.311131, -1458, 232, 4058, 835, 3303, -2827
0.311266, -1458, 232, 4058, 835, 3303, -2827
0.311401, -1458, 232, 4058, 835, 3303, -2827
0.311536, -1458, 232, 4058, 835, 3303, -2827
0.311670, -1458, 232, 4058, 835, 3303, -2827
0.311805, -1458, 232, 4058, 835, 3303, -2827
0.311939, -1458, 232, 4058, 835, 3303, -2827
0.312074, -1458, 232, 4058, 835, 3303, -2827
0.312208, -1037, -300, 4085, 1908, 2471, -2066
0.312343, -1037, -300, 4085, 1908, 2471, -2066
0.312478, -1037, -300, 4085, 1908, 2471, -2066
0.312612, -1037, -300, 4085, 1908, 2471, -2066
0.312747, -1037, -300, 4085, 1908, 2471, -2066
0.312882, -1037, -300, 4085, 1908, 2471, -2066
0.313016, -1037, -300, 4085, 1908, 2471, -2066
0.313151, -2061, -520, 1754, 2297, 1350, -1290
0.313285, -2061, -520, 1754, 2297, 1350, -1290
0.313420, -2061, -520, 1754, 2297, 1350, -1290
0.313555, -2061, -520, 1754, 2297, 1350, -1290
0.313689, -2061, -520, 1754, 2297, 1350, -1290
0.313824, -2061, -520, 1754, 2297, 1350, -1290
0.313959, -2061, -520, 1754, 2297, 1350, -1290
0.314093, -2061, -520, 1754, 2297, 1350, -1290
0.314228, -117, 71, -1425, 848, 97, -375
0.314363, -117, 71, -1425, 848, 97, -375
0.314497, -117, 71, -1425, 848, 97, -375
0.314632, -117, 71, -1425, 848, 97, -375
0.314767, -117, 71, -1425, 848, 97, -375
0.314901, -117, 71, -1425, 848, 97, -375
0.315036, -117, 71, -1425, 848, 97, -375
0.315170, 3888, 376, -807, -1577, -754, -1299
0.315305, 3888, 376, -807, -1577, -754, -1299
0.315440, 3888, 376, -807, -1577, -754, -1299
0.315575, 3888, 376, -807, -1577, -754, -1299
0.315709, 3888, 376, -807, -1577, -754, -1299
0.315844, 3888, 376, -807, -1577, -754, -1299
0.315978, 3888, 376, -807, -1577, -754, -1299
0.316123, 3888, 376, -807, -1577, -754, -1299
0.316258, 2987, 173, 1851, -2759, -376, -3781
0.316393, 2987, 173, 1851, -2759, -376, -3781
0.316527, 2987, 173, 1851, -2759, -376, -3781
0.316662, 2987, 173, 1851, -2759, -376, -3781
0.316796, 2987, 173, 1851, -2759, -376, -3781
0.316931, 2987, 173, 1851, -2759, -376, -3781
0.317066, 2987, 173, 1851, -2759, -376, -3781
0.317200, -26, -71, 2384, -2463, 1053, -4876
0.317335, -26, -71, 2384, -2463, 1053, -4876
0.317469, -26, -71, 2384, -2463, 1053, -4876
0.317604, -26, -71, 2384, -2463, 1053, -4876
0.317739, -26, -71, 2384, -2463, 1053, -4876
0.317874, -26, -71, 2384, -2463, 1053, -4876
0.318009, -26, -71, 2384, -2463, 1053, -4876
0.318143, -26, -71, 2384, -2463, 1053, -4876
0.318278, -913, -191, 1779, -1925, 2247, -4389
0.318413, -913, -191, 1779, -1925, 2247, -4389
0.318547, -913, -191, 1779, -1925, 2247, -4389
0.318682, -913, -191, 1779, -1925, 2247, -4389
0.318817, -913, -191, 1779, -1925, 2247, -4389
0.318951, -913, -191, 1779, -1925, 2247, -4389
0.319086, -913, -191, 1779, -1925, 2247, -4389
0.319220, -2176, -247, 2065, -1672, 2607, -3402
0.319355, -2176, -247, 2065, -1672, 2607, -3402
0.319490, -2176, -247, 2065, -1672, 2607, -3402
0.319624, -2176, -247, 2065, -1672, 2607, -3402
0.319759, -2176, -247, 2065, -1672, 2607, -3402
0.319893, -2176, -247, 2065, -1672, 2607, -3402
0.320028, -2176, -247, 2065, -1672, 2607, -3402
0.320163, -2176, -247, 2065, -1672, 2607, -3402
0.320297, -3828, -384, 3337, -1226, 2488, -1529
0.320432, -3828, -384, 3337, -1226, 2488, -1529
0.320567, -3828, -384, 3337, -1226, 2488, -1529
0.320701, -3828, -384, 3337, -1226, 2488, -1529
0.320836, -3828, -384, 3337, -1226, 2488, -1529
0.320970, -3828, -384, 3337, -1226, 2488, -1529
0.321105, -3828, -384, 3337, -1226, 2488, -1529
0.321239, -3828, -384, 3337, -1226, 2488, -1529
0.321374, -3195, -503, 4815, -93, 1966, 872
0.321509, -3195, -503, 4815, -93, 1966, 872
0.321643, -3195, -503, 4815, -93, 1966, 872
0.321778, -3195, -503, 4815, -93, 1966, 872
0.321913, -3195, -503, 4815, -93, 1966, 872
0.322047, -3195, -503, 4815, -93, 1966, 872
0.322182, -3195, -503, 4815, -93, 1966, 872
0.322316, -2368, -150, 5626, 1556, 964, 2576
0.322451, -2368, -150, 5626, 1556, 964, 2576
0.322585, -2368, -150, 5626, 1556, 964, 2576
0.322720, -2368, -150, 5626, 1556, 964, 2576
0.322854, -2368, -150, 5626, 1556, 964, 2576
0.322989, -2368, -150, 5626, 1556, 964, 2576
0.323124, -2368, -150, 5626, 1556, 964, 2576
0.323258, -2368, -150, 5626, 1556, 964, 2576
0.323393, -2637, 365, 3361, 2607, -331, 3949
0.323527, -2637, 365, 3361, 2607, -331, 3949
0.323662, -2637, 365, 3361, 2607, -331, 3949
0.323797, -2637, 365, 3361, 2607, -331, 3949
0.323931, -2637, 365, 3361, 2607, -331, 3949
0.324066, -2637, 365, 3361, 2607, -331, 3949
0.324201, -2637, 365, 3361, 2607, -331, 3949
0.324335, 432, 15, 317, 1712, -1837, 4855
0.324470, 432, 15, 317, 1712, -1837, 4855
0.324605, 432, 15, 317, 1712, -1837, 4855
0.324739, 432, 15, 317, 1712, -1837, 4855
0.324874, 432, 15, 317, 1712, -1837, 4855
0.325009, 432, 15, 317, 1712, -1837, 4855
0.325143, 432, 15, 317, 1712, -1837, 4855
0.325278, 432, 15, 317, 1712, -1837, 4855
0.325412, 2675, -201, 1751, 334, -3174, 3655
0.325547, 2675, -201, 1751, 334, -3174, 3655
0.325682, 2675, -201, 1751, 334, -3174, 3655
0.325817, 2675, -201, 1751, 334, -3174, 3655
0.325952, 2675, -201, 1751, 334, -3174, 3655
0.326086, 2675, -201, 1751, 334, -3174, 3655
0.326221, 2675, -201, 1751, 334, -3174, 3655
0.326355, -839, 263, 2699, 301, -3534, 2419
0.326490, -839, 263, 2699, 301, -3534, 2419
0.326625, -839, 263, 2699, 301, -3534, 2419
0.326759, -839, 263, 2699, 301, -3534, 2419
0.326894, -839, 263, 2699, 301, -3534, 2419
0.327029, -839, 263, 2699, 301, -3534, 2419
0.327163, -839, 263, 2699, 301, -3534, 2419
0.327298, -839, 263, 2699, 301, -3534, 2419
0.327432, -1311, -11, 547, 47, -3118, 3199
0.327567, -1311, -11, 547, 47, -3118, 3199
0.327702, -1311, -11, 547, 47, -3118, 3199
0.327836, -1311, -11, 547, 47, -3118, 3199
0.327971, -1311, -11, 547, 47, -3118, 3199
0.328106, -1311, -11, 547, 47, -3118, 3199
0.328240, -1311, -11, 547, 47, -3118, 3199
0.328380, 2111, -385, 975, -712, -2880, 3333
0.328517, 2111, -385, 975, -712, -2880, 3333
0.328652, 2111, -385, 975, -712, -2880, 3333
0.328786, 2111, -385, 975, -712, -2880, 3333
0.328921, 2111, -385, 975, -712, -2880, 3333
0.329056, 2111, -385, 975, -712, -2880, 3333
0.329190, 2111, -385, 975, -712, -2880, 3333
0.329325, 2111, -385, 975, -712, -2880, 3333
0.329459, 2935, 166, 3150, -574, -2591, 1930
0.329594, 2935, 166, 3150, -574, -2591, 1930
0.329729, 2935, 166, 3150, -574, -2591, 1930
0.329864, 2935, 166, 3150, -574, -2591, 1930
0.329999, 2935, 166, 3150, -574, -2591, 1930
0.330133, 2935, 166, 3150, -574, -2591, 1930
0.330268, 2935, 166, 3150, -574, -2591, 1930
0.330403, 1783, 1160, 4178, 447, -1498, 323
0.330538, 1783, 1160, 4178, 447, -1498, 323
0.330672, 1783, 1160, 4178, 447, -1498, 323
0.330807, 1783, 1160, 4178, 447, -1498, 323
0.330941, 1783, 1160, 4178, 447, -1498, 323
0.331076, 1783, 1160, 4178, 447, -1498, 323
0.331211, 1783, 1160, 4178, 447, -1498, 323
0.331345, 1783, 1160, 4178, 447, -1498, 323
0.331480, -1598, 1306, 3205, 1916, -95, -35
0.331614, -1598, 1306, 3205, 1916, -95, -35
0.331749, -1598, 1306, 3205, 1916, -95, -35
0.331884, -1598, 1306, 3205, 1916, -95, -35
0.332018, -1598, 1306, 3205, 1916, -95, -35
0.332153, -1598, 1306, 3205, 1916, -95, -35
0.332288, -1598, 1306, 3205, 1916, -95, -35
0.332422, -1224, -694, -90, 1796, 399, 1379
0.332557, -1224, -694, -90, 1796, 399, 1379
0.332692, -1224, -694, -90, 1796, 399, 1379
0.332826, -1224, -694, -90, 1796, 399, 1379
0.332961, -1224, -694, -90, 1796, 399, 1379
0.333095, -1224, -694, -90, 1796, 399, 1379
0.333230, -1224, -694, -90, 1796, 399, 1379
0.333365, -1224, -694, -90, 1796, 399, 1379
0.333499, 2097, -1486, -899, -202, -4, 1486
0.333634, 2097, -1486, -899, -202, -4, 1486
0.333769, 2097, -1486, -899, -202, -4, 1486
0.333904, 2097, -1486, -899, -202, -4, 1486
0.334038, 2097, -1486, -899, -202, -4, 1486
0.334173, 2097, -1486, -899, -202, -4, 1486
0.334308, 2097, -1486, -899, -202, -4, 1486
0.334442, -636, 67, 2041, -1147, -243, 640
0.334577, -636, 67, 2041, -1147, -243, 640
0.334712, -636, 67, 2041, -1147, -243, 640
0.334847, -636, 67, 2041, -1147, -243, 640
0.334981, -636, 67, 2041, -1147, -243, 640
0.335116, -636, 67, 2041, -1147, -243, 640
0.335250, -636, 67, 2041, -1147, -243, 640
0.335385, -636, 67, 2041, -1147, -243, 640
0.335520, -838, -11, 4106, -512, 21, 1284
0.335654, -838, -11, 4106, -512, 21, 1284
0.335789, -838, -11, 4106, -512, 21, 1284
0.335924, -838, -11, 4106, -512, 21, 1284
0.336058, -838, -11, 4106, -512, 21, 1284
0.336193, -838, -11, 4106, -512, 21, 1284
0.336328, -838, -11, 4106, -512, 21, 1284
0.336462, 2552, -274, 3159, 538, 123, 950
0.336597, 2552, -274, 3159, 538, 123, 950
0.336732, 2552, -274, 3159, 538, 123, 950
0.336866, 2552, -274, 3159, 538, 123, 950
0.337001, 2552, -274, 3159, 538, 123, 950
0.337136, 2552, -274, 3159, 538, 123, 950
0.337270, 2552, -274, 3159, 538, 123, 950
0.337405, 2552, -274, 3159, 538, 123, 950
0.337539, 1019, 562, 483, 564, -369, -547
0.337674, 1019, 562, 483, 564, -369, -547
0.337814, 1019, 562, 483, 564, -369, -547
0.337949, 1019, 562, 483, 564, -369, -547
0.338083, 1019, 562, 483, 564, -369, -547
0.338217, 1019, 562, 483, 564, -369, -547
0.338351, 1019, 562, 483, 564, -369, -547
0.338485, -81, 464, -538, -873, -791, -901
0.338619, -81, 464, -538, -873, -791, -901
0.338753, -81, 464, -538, -873, -791, -901
0.338887, -81, 464, -538, -873, -791, -901
0.339021, -81, 464, -538, -873, -791, -901
0.339154, -81, 464, -538, -873, -791, -901
0.339288, -81, 464, -538, -873, -791, -901
0.339422, -81, 464, -538, -873, -791, -901
0.339556, 1262, 168, 605, -2068, -629, -1081
0.339690, 1262, 168, 605, -2068, -629, -1081
0.339824, 1262, 168, 605, -2068, -629, -1081
0.339958, 1262, 168, 605, -2068, -629, -1081
0.340092, 1262, 168, 605, -2068, -629, -1081
0.340226, 1262, 168, 605, -2068, -629, -1081
0.340360, 1262, 168, 605, -2068, -629, -1081
0.340494, 1262, 168, 605, -2068, -629, -1081
0.340628, 694, 83, 2213, -2206, 5, -1661
0.340762, 694, 83, 2213, -2206, 5, -1661
0.340896, 694, 83, 2213, -2206, 5, -1661
0.341034, 694, 83, 2213, -2206, 5, -1661
0.341169, 694, 83, 2213, -2206, 5, -1661
0.341303, 694, 83, 2213, -2206, 5, -1661
0.341438, 694, 83, 2213, -2206, 5, -1661
0.341572, -967, -340, 3582, -1483, 984, -1452
0.341707, -967, -340, 3582, -1483, 984, -1452
0.341842, -967, -340, 3582, -1483, 984, -1452
0.341976, -967, -340, 3582, -1483, 984, -1452
0.342111, -967, -340, 3582, -1483, 984, -1452
0.342246, -967, -340, 3582, -1483, 984, -1452
0.342380, -967, -340, 3582, -1483, 984, -1452
0.342515, -967, -340, 3582, -1483, 984, -1452
0.342650, -1934, -422, 3815, -222, 1773, -353
0.342779, -1934, -422, 3815, -222, 1773, -353
0.342914, -1934, -422, 3815, -222, 1773, -353
0.343049, -1934, -422, 3815, -222, 1773, -353
0.343183, -1934, -422, 3815, -222, 1773, -353
0.343318, -1934, -422, 3815, -222, 1773, -353
0.343452, -1934, -422, 3815, -222, 1773, -353
0.343587, -3063, 148, 3057, 725, 1754, 1229
0.343722, -3063, 148, 3057, 725, 1754, 1229
0.343856, -3063, 148, 3057, 725, 1754, 1229
0.343991, -3063, 148, 3057, 725, 1754, 1229
0.344125, -3063, 148, 3057, 725, 1754, 1229
0.344260, -3063, 148, 3057, 725, 1754, 1229
0.344395, -3063, 148, 3057, 725, 1754, 1229
0.344529, -3063, 148, 3057, 725, 1754, 1229
0.344664, -2661, 235, 3194, 1109, 996, 3169
0.344799, -2661, 235, 3194, 1109, 996, 3169
0.344933, -2661, 235, 3194, 1109, 996, 3169
0.345068, -2661, 235, 3194, 1109, 996, 3169
0.345202, -2661, 235, 3194, 1109, 996, 3169
0.345337, -2661, 235, 3194, 1109, 996, 3169
0.345471, -2661, 235, 3194, 1109, 996, 3169
0.345606, 821, -143, 2662, 1277, -124, 4114
0.345741, 821, -143, 2662, 1277, -124, 4114
0.345876, 821, -143, 2662, 1277, -124, 4114
0.346011, 821, -143, 2662, 1277, -124, 4114
0.346145, 821, -143, 2662, 1277, -124, 4114
0.346280, 821, -143, 2662, 1277, -124, 4114
0.346415, 821, -143, 2662, 1277, -124, 4114
0.346549, 821, -143, 2662, 1277, -124, 4114
0.346684, 3664, 197, -82, 369, -1240, 2757
0.346819, 3664, 197, -82, 369, -1240, 2757
0.346953, 3664, 197, -82, 369, -1240, 2757
0.347088, 3664, 197, -82, 369, -1240, 2757
0.347223, 3664, 197, -82, 369, -1240, 2757
0.347357, 3664, 197, -82, 369, -1240, 2757
0.347492, 3664, 197, -82, 369, -1240, 2757
0.347626, 3029, 548, -619, -1570, -1744, 221
0.347761, 3029, 548, -619, -1570, -1744, 221
0.347896, 3029, 548, -619, -1570, -1744, 221
0.348031, 3029, 548, -619, -1570, -1744, 221
0.348165, 3029, 548, -619, -1570, -1744, 221
0.348300, 3029, 548, -619, -1570, -1744, 221
0.348435, 3029, 548, -619, -1570, -1744, 221
0.348569, 3029, 548, -619, -1570, -1744, 221
0.348704, -516, 282, 2139, -2342, -1181, -1045
0.348839, -516, 282, 2139, -2342, -1181, -1045
0.348973, -516, 282, 2139, -2342, -1181, -1045
0.349108, -516, 282, 2139, -2342, -1181, -1045
0.349243, -516, 282, 2139, -2342, -1181, -1045
0.349377, -516, 282, 2139, -2342, -1181, -1045
0.349512, -516, 282, 2139, -2342, -1181, -1045
0.349646, -3454, 167, 4199, -1255, -72, 148
0.349781, -3454, 167, 4199, -1255, -72, 148
0.349916, -3454, 167, 4199, -1255, -72, 148
0.350051, -3454, 167, 4199, -1255, -72, 148
0.350185, -3454, 167, 4199, -1255, -72, 148
0.350320, -3454, 167, 4199, -1255, -72, 148
0.350455, -3454, 167, 4199, -1255, -72, 148
0.350589, -3454, 167, 4199, -1255, -72, 148
0.350724, -2999, 265, 3950, 337, 410, 2582
0.350859, -2999, 265, 3950, 337, 410, 2582
0.350993, -2999, 265, 3950, 337, 410, 2582
0.351128, -2999, 265, 3950, 337, 410, 2582
0.351262, -2999, 265, 3950, 337, 410, 2582
0.351397, -2999, 265, 3950, 337, 410, 2582
0.351532, -2999, 265, 3950, 337, 410, 2582
0.351666, 1046, 81, 2985, 1191, -241, 3920
0.351801, 1046, 81, 2985, 1191, -241, 3920
0.351936, 1046, 81, 2985, 1191, -241, 3920
0.352070, 1046, 81, 2985, 1191, -241, 3920
0.352205, 1046, 81, 2985, 1191, -241, 3920
0.352339, 1046, 81, 2985, 1191, -241, 3920
0.352474, 1046, 81, 2985, 1191, -241, 3920
0.352608, 1046, 81, 2985, 1191, -241, 3920
0.352743, 4616, -362, 2158, 1129, -1250, 2416
0.352878, 4616, -362, 2158, 1129, -1250, 2416
0.353013, 4616, -362, 2158, 1129, -1250, 2416
0.353147, 4616, -362, 2158, 1129, -1250, 2416
0.353282, 4616, -362, 2158, 1129, -1250, 2416
0.353420, 4616, -362, 2158, 1129, -1250, 2416
0.353556, 4616, -362, 2158, 1129, -1250, 2416
0.353690, 1893, -258, 2017, 1077, -1356, -209
0.353825, 1893, -258, 2017, 1077, -1356, -209
0.353960, 1893, -258, 2017, 1077, -1356, -209
0.354095, 1893, -258, 2017, 1077, -1356, -209
0.354229, 1893, -258, 2017, 1077, -1356, -209
0.354364, 1893, -258, 2017, 1077, -1356, -209
0.354499, 1893, -258, 2017, 1077, -1356, -209
0.354633, 1893, -258, 2017, 1077, -1356, -209
0.354768, -737, -250, 1740, 1509, -535, -604
0.354903, -737, -250, 1740, 1509, -535, -604
0.355037, -737, -250, 1740, 1509, -535, -604
0.355172, -737, -250, 1740, 1509, -535, -604
0.355307, -737, -250, 1740, 1509, -535, -604
0.355441, -737, -250, 1740, 1509, -535, -604
0.355576, -737, -250, 1740, 1509, -535, -604
0.355710, 1994, -671, 106, 1274, 191, -434
0.355845, 1994, -671, 106, 1274, 191, -434
0.355980, 1994, -671, 106, 1274, 191, -434
0.356114, 1994, -671, 106, 1274, 191, -434
0.356249, 1994, -671, 106, 1274, 191, -434
0.356384, 1994, -671, 106, 1274, 191, -434
0.356518, 1994, -671, 106, 1274, 191, -434
0.356653, 1994, -671, 106, 1274, 191, -434
0.356788, 1668, -175, 9, 205, 498, -1802
0.356922, 1668, -175, 9, 205, 498, -1802
0.357057, 1668, -175, 9, 205, 498, -1802
0.357192, 1668, -175, 9, 205, 498, -1802
0.357326, 1668, -175, 9, 205, 498, -1802
0.357461, 1668, -175, 9, 205, 498, -1802
0.357596, 1668, -175, 9, 205, 498, -1802
0.357730, 1668, -175, 9, 205, 498, -1802
0.357865, -1882, 154, 1912, -221, 754, -2055
0.358000, -1882, 154, 1912, -221, 754, -2055
0.358135, -1882, 154, 1912, -221, 754, -2055
0.358269, -1882, 154, 1912, -221, 754, -2055
0.358404, -1882, 154, 1912, -221, 754, -2055
0.358538, -1882, 154, 1912, -221, 754, -2055
0.358673, -1882, 154, 1912, -221, 754, -2055
0.358808, -1677, 10, 3783, 530, 990, -660
0.358943, -1677, 10, 3783, 530, 990, -660
0.359077, -1677, 10, 3783, 530, 990, -660
0.359212, -1677, 10, 3783, 530, 990, -660
0.359346, -1677, 10, 3783, 530, 990, -660
0.359481, -1677, 10, 3783, 530, 990, -660
0.359616, -1677, 10, 3783, 530, 990, -660
0.359750, -1677, 10, 3783, 530, 990, -660
0.359885, -89, -24, 3477, 1755, 734, 50
0.360020, -89, -24, 3477, 1755, 734, 50
0.360154, -89, -24, 3477, 1755, 734, 50
0.360289, -89, -24, 3477, 1755, 734, 50
0.360424, -89, -24, 3477, 1755, 734, 50
0.360558, -89, -24, 3477, 1755, 734, 50
0.360693, -89, -24, 3477, 1755, 734, 50
0.360827, -842, -257, 1129, 1932, 12, 210
0.360962, -842, -257, 1129, 1932, 12, 210
0.361097, -842, -257, 1129, 1932, 12, 210
0.361231, -842, -257, 1129, 1932, 12, 210
0.361366, -842, -257, 1129, 1932, 12, 210
0.361501, -842, -257, 1129, 1932, 12, 210
0.361635, -842, -257, 1129, 1932, 12, 210
0.361770, -842, -257, 1129, 1932, 12, 210
0.361905, -1290, -31, -24, 761, -694, 911
0.362040, -1290, -31, -24, 761, -694, 911
0.362174, -1290, -31, -24, 761, -694, 911
0.362309, -1290, -31, -24, 761, -694, 911
0.362443, -1290, -31, -24, 761, -694, 911
0.362578, -1290, -31, -24, 761, -694, 911
0.362713, -1290, -31, -24, 761, -694, 911
0.362847, 789, 266, 305, -625, -1140, 1372
0.362982, 789, 266, 305, -625, -1140, 1372
0.363117, 789, 266, 305, -625, -1140, 1372
0.363251, 789, 266, 305, -625, -1140, 1372
0.363386, 789, 266, 305, -625, -1140, 1372
0.363520, 789, 266, 305, -625, -1140, 1372
0.363655, 789, 266, 305, -625, -1140, 1372
0.363790, 789, 266, 305, -625, -1140, 1372
0.363924, 2073, 175, 1638, -1509, -1111, 600
0.364059, 2073, 175, 1638, -1509, -1111, 600
0.364194, 2073, 175, 1638, -1509, -1111, 600
0.364328, 2073, 175, 1638, -1509, -1111, 600
0.364463, 2073, 175, 1638, -1509, -1111, 600
0.364598, 2073, 175, 1638, -1509, -1111, 600
0.364732, 2073, 175, 1638, -1509, -1111, 600
0.364867, 659, 46, 3044, -1341, -544, -351
0.365002, 659, 46, 3044, -1341, -544, -351
0.365136, 659, 46, 3044, -1341, -544, -351
0.365271, 659, 46, 3044, -1341, -544, -351
0.365405, 659, 46, 3044, -1341, -544, -351
0.365540, 659, 46, 3044, -1341, -544, -351
0.365675, 659, 46, 3044, -1341, -544, -351
0.365812, 659, 46, 3044, -1341, -544, -351
0.365947, -306, -21, 3125, -470, 84, -335
0.366082, -306, -21, 3125, -470, 84, -335
0.366223, -306, -21, 3125, -470, 84, -335
0.366358, -306, -21, 3125, -470, 84, -335
0.366493, -306, -21, 3125, -470, 84, -335
0.366627, -306, -21, 3125, -470, 84, -335
0.366762, -306, -21, 3125, -470, 84, -335
0.366897, 444, 31, 2174, 128, 253, -155
0.367031, 444, 31, 2174, 128, 253, -155
0.367166, 444, 31, 2174, 128, 253, -155
0.367301, 444, 31, 2174, 128, 253, -155
0.367435, 444, 31, 2174, 128, 253, -155
0.367570, 444, 31, 2174, 128, 253, -155
0.367704, 444, 31, 2174, 128, 253, -155
0.367839, 444, 31, 2174, 128, 253, -155
0.367974, 836, 189, 1211, 36, 134, -566
0.368108, 836, 189, 1211, 36, 134, -566
0.368243, 836, 189, 1211, 36, 134, -566
0.368378, 836, 189, 1211, 36, 134, -566
0.368512, 836, 189, 1211, 36, 134, -566
0.368647, 836, 189, 1211, 36, 134, -566
0.368781, 836, 189, 1211, 36, 134, -566
0.368916, 154, 201, 1468, -419, 251, -990
0.369051, 154, 201, 1468, -419, 251, -990
0.369185, 154, 201, 1468, -419, 251, -990
0.369320, 154, 201, 1468, -419, 251, -990
0.369454, 154, 201, 1468, -419, 251, -990
0.369589, 154, 201, 1468, -419, 251, -990
0.369724, 154, 201, 1468, -419, 251, -990
0.369859, 154, 201, 1468, -419, 251, -990
0.369993, -585, -35, 2543, -469, 733, -845
