Time, ax, ay, az, gx, gy, gz
0.000024, -218, 8, 1879, -435, -637, 753
0.000188, -218, 8, 1879, -435, -637, 753
0.000329, -218, 8, 1879, -435, -637, 753
0.000467, -218, 8, 1879, -435, -637, 753
0.000604, -218, 8, 1879, -435, -637, 753
0.000741, -218, 8, 1879, -435, -637, 753
0.000879, -218, 8, 1879, -435, -637, 753
0.001017, 1513, 81, 2296, -389, -620, 528
0.001154, 1513, 81, 2296, -389, -620, 528
0.001292, 1513, 81, 2296, -389, -620, 528
0.001424, 1513, 81, 2296, -389, -620, 528
0.001561, 1513, 81, 2296, -389, -620, 528
0.001698, 1513, 81, 2296, -389, -620, 528
0.001835, 1513, 81, 2296, -389, -620, 528
0.001966, 1513, 81, 2296, -389, -620, 528
0.002103, 2603, 209, 2558, -50, -506, -695
0.002241, 2603, 209, 2558, -50, -506, -695
0.002378, 2603, 209, 2558, -50, -506, -695
0.002514, 2603, 209, 2558, -50, -506, -695
0.002651, 2603, 209, 2558, -50, -506, -695
0.002788, 2603, 209, 2558, -50, -506, -695
0.002926, 2603, 209, 2558, -50, -506, -695
0.003063, 1866, 466, 2395, 344, -254, -2123
0.003200, 1866, 466, 2395, 344, -254, -2123
0.003337, 1866, 466, 2395, 344, -254, -2123
0.003474, 1866, 466, 2395, 344, -254, -2123
0.003611, 1866, 466, 2395, 344, -254, -2123
0.003748, 1866, 466, 2395, 344, -254, -2123
0.003885, 1866, 466, 2395, 344, -254, -2123
0.004022, 1866, 466, 2395, 344, -254, -2123
0.004159, 281, 479, 1977, 768, 281, -2862
0.004296, 281, 479, 1977, 768, 281, -2862
0.004432, 281, 479, 1977, 768, 281, -2862
0.004569, 281, 479, 1977, 768, 281, -2862
0.004706, 281, 479, 1977, 768, 281, -2862
0.004843, 281, 479, 1977, 768, 281, -2862
0.004980, 281, 479, 1977, 768, 281, -2862
0.005117, -908, 510, 1395, 1024, 904, -2570
0.005254, -908, 510, 1395, 1024, 904, -2570
0.005391, -908, 510, 1395, 1024, 904, -2570
0.005529, -908, 510, 1395, 1024, 904, -2570
0.005668, -908, 510, 1395, 1024, 904, -2570
0.005807, -908, 510, 1395, 1024, 904, -2570
0.005946, -908, 510, 1395, 1024, 904, -2570
0.006084, -962, 592, 1490, 972, 1350, -1645
0.006222, -962, 592, 1490, 972, 1350, -1645
0.006359, -962, 592, 1490, 972, 1350, -1645
0.006496, -962, 592, 1490, 972, 1350, -1645
0.006633, -962, 592, 1490, 972, 1350, -1645
0.006770, -962, 592, 1490, 972, 1350, -1645
0.006907, -962, 592, 1490, 972, 1350, -1645
0.007044, -962, 592, 1490, 972, 1350, -1645
0.007181, -874, 412, 1956, 966, 1599, -771
0.007318, -874, 412, 1956, 966, 1599, -771
0.007455, -874, 412, 1956, 966, 1599, -771
0.007592, -874, 412, 1956, 966, 1599, -771
0.007729, -874, 412, 1956, 966, 1599, -771
0.007866, -874, 412, 1956, 966, 1599, -771
0.008002, -874, 412, 1956, 966, 1599, -771
0.008139, -1862, 318, 1773, 911, 1711, 265
0.008276, -1862, 318, 1773, 911, 1711, 265
0.008413, -1862, 318, 1773, 911, 1711, 265
0.008550, -1862, 318, 1773, 911, 1711, 265
0.008687, -1862, 318, 1773, 911, 1711, 265
0.008824, -1862, 318, 1773, 911, 1711, 265
0.008961, -1862, 318, 1773, 911, 1711, 265
0.009097, -1862, 318, 1773, 911, 1711, 265
0.009234, -1935, 485, 1619, 582, 1569, 1846
0.009371, -1935, 485, 1619, 582, 1569, 1846
0.009508, -1935, 485, 1619, 582, 1569, 1846
0.009645, -1935, 485, 1619, 582, 1569, 1846
0.009782, -1935, 485, 1619, 582, 1569, 1846
0.009919, -1935, 485, 1619, 582, 1569, 1846
0.010056, -1935, 485, 1619, 582, 1569, 1846
0.010193, 371, 510, 2012, 277, 970, 2882
0.010330, 371, 510, 2012, 277, 970, 2882
0.010467, 371, 510, 2012, 277, 970, 2882
0.010603, 371, 510, 2012, 277, 970, 2882
0.010740, 371, 510, 2012, 277, 970, 2882
0.010877, 371, 510, 2012, 277, 970, 2882
0.011014, 371, 510, 2012, 277, 970, 2882
0.011151, 2587, 439, 2360, 38, 117, 2253
0.011288, 2587, 439, 2360, 38, 117, 2253
0.011425, 2587, 439, 2360, 38, 117, 2253
0.011562, 2587, 439, 2360, 38, 117, 2253
0.011698, 2587, 439, 2360, 38, 117, 2253
0.011835, 2587, 439, 2360, 38, 117, 2253
0.011972, 2587, 439, 2360, 38, 117, 2253
0.012108, 2587, 439, 2360, 38, 117, 2253
0.012245, 3066, 430, 2350, -113, -477, 523
0.012382, 3066, 430, 2350, -113, -477, 523
0.012519, 3066, 430, 2350, -113, -477, 523
0.012656, 3066, 430, 2350, -113, -477, 523
0.012793, 3066, 430, 2350, -113, -477, 523
0.012929, 3066, 430, 2350, -113, -477, 523
0.013066, 3066, 430, 2350, -113, -477, 523
0.013235, 2682, 436, 2222, -8, -702, -1314
0.013375, 2682, 436, 2222, -8, -702, -1314
0.013512, 2682, 436, 2222, -8, -702, -1314
0.013649, 2682, 436, 2222, -8, -702, -1314
0.013786, 2682, 436, 2222, -8, -702, -1314
0.013922, 2682, 436, 2222, -8, -702, -1314
0.014059, 2682, 436, 2222, -8, -702, -1314
0.014196, 1610, 468, 2073, 329, -597, -2810
0.014333, 1610, 468, 2073, 329, -597, -2810
0.014470, 1610, 468, 2073, 329, -597, -2810
0.014607, 1610, 468, 2073, 329, -597, -2810
0.014744, 1610, 468, 2073, 329, -597, -2810
0.014881, 1610, 468, 2073, 329, -597, -2810
0.015018, 1610, 468, 2073, 329, -597, -2810
0.015154, 1610, 468, 2073, 329, -597, -2810
0.015291, -852, 429, 1979, 798, 23, -3244
0.015428, -852, 429, 1979, 798, 23, -3244
0.015565, -852, 429, 1979, 798, 23, -3244
0.015702, -852, 429, 1979, 798, 23, -3244
0.015839, -852, 429, 1979, 798, 23, -3244
0.015975, -852, 429, 1979, 798, 23, -3244
0.016112, -852, 429, 1979, 798, 23, -3244
0.016249, -2050, 391, 1858, 1293, 856, -2149
0.016386, -2050, 391, 1858, 1293, 856, -2149
0.016523, -2050, 391, 1858, 1293, 856, -2149
0.016659, -2050, 391, 1858, 1293, 856, -2149
0.016796, -2050, 391, 1858, 1293, 856, -2149
0.016933, -2050, 391, 1858, 1293, 856, -2149
0.017070, -2050, 391, 1858, 1293, 856, -2149
0.017206, -2050, 391, 1858, 1293, 856, -2149
0.017343, -243, 217, 2041, 1654, 1262, -932
0.017480, -243, 217, 2041, 1654, 1262, -932
0.017617, -243, 217, 2041, 1654, 1262, -932
0.017754, -243, 217, 2041, 1654, 1262, -932
0.017891, -243, 217, 2041, 1654, 1262, -932
0.018027, -243, 217, 2041, 1654, 1262, -932
0.018164, -243, 217, 2041, 1654, 1262, -932
0.018296, 656, 19, 2625, 1970, 1346, -783
0.018434, 656, 19, 2625, 1970, 1346, -783
0.018571, 656, 19, 2625, 1970, 1346, -783
0.018708, 656, 19, 2625, 1970, 1346, -783
0.018846, 656, 19, 2625, 1970, 1346, -783
0.018982, 656, 19, 2625, 1970, 1346, -783
0.019119, 656, 19, 2625, 1970, 1346, -783
0.019256, 262, 333, 2258, 2241, 1448, -857
0.019393, 262, 333, 2258, 2241, 1448, -857
0.019530, 262, 333, 2258, 2241, 1448, -857
0.019666, 262, 333, 2258, 2241, 1448, -857
0.019803, 262, 333, 2258, 2241, 1448, -857
0.019940, 262, 333, 2258, 2241, 1448, -857
0.020077, 262, 333, 2258, 2241, 1448, -857
0.020214, 262, 333, 2258, 2241, 1448, -857
0.020350, 198, 652, 1554, 2088, 1469, -784
0.020487, 198, 652, 1554, 2088, 1469, -784
0.020624, 198, 652, 1554, 2088, 1469, -784
0.020761, 198, 652, 1554, 2088, 1469, -784
0.020898, 198, 652, 1554, 2088, 1469, -784
0.021035, 198, 652, 1554, 2088, 1469, -784
0.021171, 198, 652, 1554, 2088, 1469, -784
0.021308, 221, 618, 1534, 1686, 1329, -759
0.021445, 221, 618, 1534, 1686, 1329, -759
0.021582, 221, 618, 1534, 1686, 1329, -759
0.021719, 221, 618, 1534, 1686, 1329, -759
0.021855, 221, 618, 1534, 1686, 1329, -759
0.021992, 221, 618, 1534, 1686, 1329, -759
0.022129, 221, 618, 1534, 1686, 1329, -759
0.022266, 221, 618, 1534, 1686, 1329, -759
0.022403, 1600, 564, 1527, 1301, 1001, -1019
0.022540, 1600, 564, 1527, 1301, 1001, -1019
0.022676, 1600, 564, 1527, 1301, 1001, -1019
0.022813, 1600, 564, 1527, 1301, 1001, -1019
0.022958, 1600, 564, 1527, 1301, 1001, -1019
0.023095, 1600, 564, 1527, 1301, 1001, -1019
0.023231, 1600, 564, 1527, 1301, 1001, -1019
0.023368, 1734, 200, 1776, 948, 690, -2072
0.023505, 1734, 200, 1776, 948, 690, -2072
0.023642, 1734, 200, 1776, 948, 690, -2072
0.023779, 1734, 200, 1776, 948, 690, -2072
0.023916, 1734, 200, 1776, 948, 690, -2072
0.024053, 1734, 200, 1776, 948, 690, -2072
0.024189, 1734, 200, 1776, 948, 690, -2072
0.024326, -1116, 49, 2009, 932, 691, -2581
0.024463, -1116, 49, 2009, 932, 691, -2581
0.024600, -1116, 49, 2009, 932, 691, -2581
0.024737, -1116, 49, 2009, 932, 691, -2581
0.024874, -1116, 49, 2009, 932, 691, -2581
0.025010, -1116, 49, 2009, 932, 691, -2581
0.025147, -1116, 49, 2009, 932, 691, -2581
0.025284, -1116, 49, 2009, 932, 691, -2581
0.025420, -2341, 615, 1585, 1087, 770, -1370
0.025557, -2341, 615, 1585, 1087, 770, -1370
0.025694, -2341, 615, 1585, 1087, 770, -1370
0.025831, -2341, 615, 1585, 1087, 770, -1370
0.025968, -2341, 615, 1585, 1087, 770, -1370
0.026112, -2341, 615, 1585, 1087, 770, -1370
0.026250, -2341, 615, 1585, 1087, 770, -1370
0.026387, -1272, 829, 1484, 984, 659, 59
0.026524, -1272, 829, 1484, 984, 659, 59
0.026661, -1272, 829, 1484, 984, 659, 59
0.026797, -1272, 829, 1484, 984, 659, 59
0.026935, -1272, 829, 1484, 984, 659, 59
0.027072, -1272, 829, 1484, 984, 659, 59
0.027208, -1272, 829, 1484, 984, 659, 59
0.027345, -1272, 829, 1484, 984, 659, 59
0.027482, -1015, 567, 1928, 781, 507, 930
0.027619, -1015, 567, 1928, 781, 507, 930
0.027756, -1015, 567, 1928, 781, 507, 930
0.027892, -1015, 567, 1928, 781, 507, 930
0.028029, -1015, 567, 1928, 781, 507, 930
0.028166, -1015, 567, 1928, 781, 507, 930
0.028303, -1015, 567, 1928, 781, 507, 930
0.028439, -513, 431, 1995, 564, 322, 1789
0.028577, -513, 431, 1995, 564, 322, 1789
0.028713, -513, 431, 1995, 564, 322, 1789
0.028850, -513, 431, 1995, 564, 322, 1789
0.028987, -513, 431, 1995, 564, 322, 1789
0.029124, -513, 431, 1995, 564, 322, 1789
0.029261, -513, 431, 1995, 564, 322, 1789
0.029397, 1542, 385, 1895, 225, -22, 1960
0.029534, 1542, 385, 1895, 225, -22, 1960
0.029671, 1542, 385, 1895, 225, -22, 1960
0.029808, 1542, 385, 1895, 225, -22, 1960
0.029945, 1542, 385, 1895, 225, -22, 1960
0.030082, 1542, 385, 1895, 225, -22, 1960
0.030218, 1542, 385, 1895, 225, -22, 1960
0.030355, 1542, 385, 1895, 225, -22, 1960
0.030492, 2758, 256, 1922, -101, -326, 790
0.030629, 2758, 256, 1922, -101, -326, 790
0.030766, 2758, 256, 1922, -101, -326, 790
0.030903, 2758, 256, 1922, -101, -326, 790
0.031039, 2758, 256, 1922, -101, -326, 790
0.031176, 2758, 256, 1922, -101, -326, 790
0.031313, 2758, 256, 1922, -101, -326, 790
0.031450, 1852, 96, 1876, -302, -337, -765
0.031587, 1852, 96, 1876, -302, -337, -765
0.031723, 1852, 96, 1876, -302, -337, -765
0.031860, 1852, 96, 1876, -302, -337, -765
0.031997, 1852, 96, 1876, -302, -337, -765
0.032134, 1852, 96, 1876, -302, -337, -765
0.032270, 1852, 96, 1876, -302, -337, -765
0.032407, 1852, 96, 1876, -302, -337, -765
0.032544, 314, 34, 1898, -264, -42, -1485
0.032681, 314, 34, 1898, -264, -42, -1485
0.032818, 314, 34, 1898, -264, -42, -1485
0.032954, 314, 34, 1898, -264, -42, -1485
0.033091, 314, 34, 1898, -264, -42, -1485
0.033228, 314, 34, 1898, -264, -42, -1485
0.033365, 314, 34, 1898, -264, -42, -1485
0.033502, 19, 140, 1970, 42, 362, -1425
0.033639, 19, 140, 1970, 42, 362, -1425
0.033775, 19, 140, 1970, 42, 362, -1425
0.033912, 19, 140, 1970, 42, 362, -1425
0.034049, 19, 140, 1970, 42, 362, -1425
0.034186, 19, 140, 1970, 42, 362, -1425
0.034322, 19, 140, 1970, 42, 362, -1425
0.034459, 1367, 719, 1705, 309, 665, -1586
0.034596, 1367, 719, 1705, 309, 665, -1586
0.034733, 1367, 719, 1705, 309, 665, -1586
0.034870, 1367, 719, 1705, 309, 665, -1586
0.035007, 1367, 719, 1705, 309, 665, -1586
0.035144, 1367, 719, 1705, 309, 665, -1586
0.035281, 1367, 719, 1705, 309, 665, -1586
0.035417, 1367, 719, 1705, 309, 665, -1586
0.035554, 1822, 852, 1781, 374, 961, -2467
0.035691, 1822, 852, 1781, 374, 961, -2467
0.035828, 1822, 852, 1781, 374, 961, -2467
0.035965, 1822, 852, 1781, 374, 961, -2467
0.036101, 1822, 852, 1781, 374, 961, -2467
0.036238, 1822, 852, 1781, 374, 961, -2467
0.036375, 1822, 852, 1781, 374, 961, -2467
0.036512, -207, 140, 1903, 414, 1408, -3074
0.036649, -207, 140, 1903, 414, 1408, -3074
0.036786, -207, 140, 1903, 414, 1408, -3074
0.036922, -207, 140, 1903, 414, 1408, -3074
0.037059, -207, 140, 1903, 414, 1408, -3074
0.037196, -207, 140, 1903, 414, 1408, -3074
0.037333, -207, 140, 1903, 414, 1408, -3074
0.037469, -207, 140, 1903, 414, 1408, -3074
0.037606, -2833, -85, 1762, 441, 1896, -2103
0.037743, -2833, -85, 1762, 441, 1896, -2103
0.037880, -2833, -85, 1762, 441, 1896, -2103
0.038017, -2833, -85, 1762, 441, 1896, -2103
0.038154, -2833, -85, 1762, 441, 1896, -2103
0.038290, -2833, -85, 1762, 441, 1896, -2103
0.038427, -2833, -85, 1762, 441, 1896, -2103
0.038564, -3575, 327, 2335, 653, 2067, 158
0.038701, -3575, 327, 2335, 653, 2067, 158
0.038838, -3575, 327, 2335, 653, 2067, 158
0.038975, -3575, 327, 2335, 653, 2067, 158
0.039112, -3575, 327, 2335, 653, 2067, 158
0.039253, -3575, 327, 2335, 653, 2067, 158
0.039390, -3575, 327, 2335, 653, 2067, 158
0.039527, -2175, 672, 2694, 1012, 1661, 2312
0.039664, -2175, 672, 2694, 1012, 1661, 2312
0.039801, -2175, 672, 2694, 1012, 1661, 2312
0.039938, -2175, 672, 2694, 1012, 1661, 2312
0.040075, -2175, 672, 2694, 1012, 1661, 2312
0.040211, -2175, 672, 2694, 1012, 1661, 2312
0.040348, -2175, 672, 2694, 1012, 1661, 2312
0.040485, -2175, 672, 2694, 1012, 1661, 2312
0.040622, -757, 668, 2647, 990, 920, 3472
0.040759, -757, 668, 2647, 990, 920, 3472
0.040895, -757, 668, 2647, 990, 920, 3472
0.041032, -757, 668, 2647, 990, 920, 3472
0.041169, -757, 668, 2647, 990, 920, 3472
0.041306, -757, 668, 2647, 990, 920, 3472
0.041442, -757, 668, 2647, 990, 920, 3472
0.041579, -80, 578, 2634, 760, 157, 3897
0.041716, -80, 578, 2634, 760, 157, 3897
0.041853, -80, 578, 2634, 760, 157, 3897
0.041990, -80, 578, 2634, 760, 157, 3897
0.042127, -80, 578, 2634, 760, 157, 3897
0.042264, -80, 578, 2634, 760, 157, 3897
0.042400, -80, 578, 2634, 760, 157, 3897
0.042537, -80, 578, 2634, 760, 157, 3897
0.042674, 1549, 595, 2535, 562, -677, 3770
0.042811, 1549, 595, 2535, 562, -677, 3770
0.042948, 1549, 595, 2535, 562, -677, 3770
0.043085, 1549, 595, 2535, 562, -677, 3770
0.043222, 1549, 595, 2535, 562, -677, 3770
0.043359, 1549, 595, 2535, 562, -677, 3770
0.043495, 1549, 595, 2535, 562, -677, 3770
0.043632, 4203, 500, 2751, 393, -1447, 2278
0.043769, 4203, 500, 2751, 393, -1447, 2278
0.043906, 4203, 500, 2751, 393, -1447, 2278
0.044043, 4203, 500, 2751, 393, -1447, 2278
0.044180, 4203, 500, 2751, 393, -1447, 2278
0.044317, 4203, 500, 2751, 393, -1447, 2278
0.044453, 4203, 500, 2751, 393, -1447, 2278
0.044590, 4203, 500, 2751, 393, -1447, 2278
0.044727, 4360, -29, 3137, 642, -1679, -578
0.044864, 4360, -29, 3137, 642, -1679, -578
0.045001, 4360, -29, 3137, 642, -1679, -578
0.045138, 4360, -29, 3137, 642, -1679, -578
0.045274, 4360, -29, 3137, 642, -1679, -578
0.045411, 4360, -29, 3137, 642, -1679, -578
0.045548, 4360, -29, 3137, 642, -1679, -578
0.045685, 1985, -506, 3068, 1487, -1358, -2852
0.045822, 1985, -506, 3068, 1487, -1358, -2852
0.045958, 1985, -506, 3068, 1487, -1358, -2852
0.046095, 1985, -506, 3068, 1487, -1358, -2852
0.046232, 1985, -506, 3068, 1487, -1358, -2852
0.046369, 1985, -506, 3068, 1487, -1358, -2852
0.046505, 1985, -506, 3068, 1487, -1358, -2852
0.046642, 1961, -192, 1449, 2387, -958, -3986
0.046779, 1961, -192, 1449, 2387, -958, -3986
0.046917, 1961, -192, 1449, 2387, -958, -3986
0.047054, 1961, -192, 1449, 2387, -958, -3986
0.047190, 1961, -192, 1449, 2387, -958, -3986
0.047327, 1961, -192, 1449, 2387, -958, -3986
0.047464, 1961, -192, 1449, 2387, -958, -3986
0.047601, 1961, -192, 1449, 2387, -958, -3986
0.047737, 2544, 60, -275, 2208, -534, -5473
0.047874, 2544, 60, -275, 2208, -534, -5473
0.048011, 2544, 60, -275, 2208, -534, -5473
0.048148, 2544, 60, -275, 2208, -534, -5473
0.048285, 2544, 60, -275, 2208, -534, -5473
0.048422, 2544, 60, -275, 2208, -534, -5473
0.048558, 2544, 60, -275, 2208, -534, -5473
0.048695, 1207, 280, 948, 1611, 273, -6813
0.048832, 1207, 280, 948, 1611, 273, -6813
0.048969, 1207, 280, 948, 1611, 273, -6813
0.049106, 1207, 280, 948, 1611, 273, -6813
0.049243, 1207, 280, 948, 1611, 273, -6813
0.049379, 1207, 280, 948, 1611, 273, -6813
0.049516, 1207, 280, 948, 1611, 273, -6813
0.049653, 1207, 280, 948, 1611, 273, -6813
0.049790, -687, 625, 2426, 2123, 1495, -6983
0.049927, -687, 625, 2426, 2123, 1495, -6983
0.050063, -687, 625, 2426, 2123, 1495, -6983
0.050200, -687, 625, 2426, 2123, 1495, -6983
0.050337, -687, 625, 2426, 2123, 1495, -6983
0.050474, -687, 625, 2426, 2123, 1495, -6983
0.050611, -687, 625, 2426, 2123, 1495, -6983
0.050747, -3967, 661, 1313, 2483, 2888, -5477
0.050884, -3967, 661, 1313, 2483, 2888, -5477
0.051021, -3967, 661, 1313, 2483, 2888, -5477
0.051158, -3967, 661, 1313, 2483, 2888, -5477
0.051294, -3967, 661, 1313, 2483, 2888, -5477
0.051431, -3967, 661, 1313, 2483, 2888, -5477
0.051568, -3967, 661, 1313, 2483, 2888, -5477
0.051705, -3543, 875, 872, 1983, 3756, -2361
0.051842, -3543, 875, 872, 1983, 3756, -2361
0.051983, -3543, 875, 872, 1983, 3756, -2361
0.052120, -3543, 875, 872, 1983, 3756, -2361
0.052257, -3543, 875, 872, 1983, 3756, -2361
0.052394, -3543, 875, 872, 1983, 3756, -2361
0.052531, -3543, 875, 872, 1983, 3756, -2361
0.052667, -3543, 875, 872, 1983, 3756, -2361
0.052804, 1388, 702, 2387, 1707, 3311, -753
0.052941, 1388, 702, 2387, 1707, 3311, -753
0.053078, 1388, 702, 2387, 1707, 3311, -753
0.053215, 1388, 702, 2387, 1707, 3311, -753
0.053352, 1388, 702, 2387, 1707, 3311, -753
0.053488, 1388, 702, 2387, 1707, 3311, -753
0.053625, 1388, 702, 2387, 1707, 3311, -753
0.053760, 3059, 490, 3113, 1576, 2273, -1918
0.053895, 3059, 490, 3113, 1576, 2273, -1918
0.054030, 3059, 490, 3113, 1576, 2273, -1918
0.054164, 3059, 490, 3113, 1576, 2273, -1918
0.054299, 3059, 490, 3113, 1576, 2273, -1918
0.054433, 3059, 490, 3113, 1576, 2273, -1918
0.054568, 3059, 490, 3113, 1576, 2273, -1918
0.054702, 3059, 490, 3113, 1576, 2273, -1918
0.054837, 370, 623, 2431, 1344, 1933, -3251
0.054972, 370, 623, 2431, 1344, 1933, -3251
0.055106, 370, 623, 2431, 1344, 1933, -3251
0.055240, 370, 623, 2431, 1344, 1933, -3251
0.055375, 370, 623, 2431, 1344, 1933, -3251
0.055509, 370, 623, 2431, 1344, 1933, -3251
0.055644, 370, 623, 2431, 1344, 1933, -3251
0.055778, -3589, 639, 2012, 1298, 2024, -2554
0.055913, -3589, 639, 2012, 1298, 2024, -2554
0.056047, -3589, 639, 2012, 1298, 2024, -2554
0.056182, -3589, 639, 2012, 1298, 2024, -2554
0.056316, -3589, 639, 2012, 1298, 2024, -2554
0.056450, -3589, 639, 2012, 1298, 2024, -2554
0.056585, -3589, 639, 2012, 1298, 2024, -2554
0.056719, -3589, 639, 2012, 1298, 2024, -2554
0.056854, -4901, 821, 2267, 1442, 1666, 269
0.056988, -4901, 821, 2267, 1442, 1666, 269
0.057123, -4901, 821, 2267, 1442, 1666, 269
0.057257, -4901, 821, 2267, 1442, 1666, 269
0.057392, -4901, 821, 2267, 1442, 1666, 269
0.057526, -4901, 821, 2267, 1442, 1666, 269
0.057661, -4901, 821, 2267, 1442, 1666, 269
0.057795, -3836, 740, 2075, 1396, 973, 3322
0.057930, -3836, 740, 2075, 1396, 973, 3322
0.058064, -3836, 740, 2075, 1396, 973, 3322
0.058198, -3836, 740, 2075, 1396, 973, 3322
0.058333, -3836, 740, 2075, 1396, 973, 3322
0.058467, -3836, 740, 2075, 1396, 973, 3322
0.058602, -3836, 740, 2075, 1396, 973, 3322
0.058736, -3836, 740, 2075, 1396, 973, 3322
0.058871, -3117, 529, 1485, 725, 221, 5712
0.059005, -3117, 529, 1485, 725, 221, 5712
0.059140, -3117, 529, 1485, 725, 221, 5712
0.059274, -3117, 529, 1485, 725, 221, 5712
0.059409, -3117, 529, 1485, 725, 221, 5712
0.059543, -3117, 529, 1485, 725, 221, 5712
0.059678, -3117, 529, 1485, 725, 221, 5712
0.059812, -1423, 574, 1792, -202, -836, 7483
0.059947, -1423, 574, 1792, -202, -836, 7483
0.060081, -1423, 574, 1792, -202, -836, 7483
0.060216, -1423, 574, 1792, -202, -836, 7483
0.060350, -1423, 574, 1792, -202, -836, 7483
0.060485, -1423, 574, 1792, -202, -836, 7483
0.060619, -1423, 574, 1792, -202, -836, 7483
0.060754, -1423, 574, 1792, -202, -836, 7483
0.060888, 331, 577, 2409, -845, -2008, 7983
0.061023, 331, 577, 2409, -845, -2008, 7983
0.061157, 331, 577, 2409, -845, -2008, 7983
0.061292, 331, 577, 2409, -845, -2008, 7983
0.061426, 331, 577, 2409, -845, -2008, 7983
0.061560, 331, 577, 2409, -845, -2008, 7983
0.061695, 331, 577, 2409, -845, -2008, 7983
0.061829, 423, 535, 2386, -1386, -2625, 7679
0.061964, 423, 535, 2386, -1386, -2625, 7679
0.062098, 423, 535, 2386, -1386, -2625, 7679
0.062233, 423, 535, 2386, -1386, -2625, 7679
0.062367, 423, 535, 2386, -1386, -2625, 7679
0.062502, 423, 535, 2386, -1386, -2625, 7679
0.062636, 423, 535, 2386, -1386, -2625, 7679
0.062771, 423, 535, 2386, -1386, -2625, 7679
0.062905, 187, 476, 2146, -1849, -2746, 7457
0.063040, 187, 476, 2146, -1849, -2746, 7457
0.063175, 187, 476, 2146, -1849, -2746, 7457
0.063309, 187, 476, 2146, -1849, -2746, 7457
0.063444, 187, 476, 2146, -1849, -2746, 7457
0.063578, 187, 476, 2146, -1849, -2746, 7457
0.063713, 187, 476, 2146, -1849, -2746, 7457
0.063847, 187, 476, 2146, -1849, -2746, 7457
0.063982, 338, 423, 2066, -2065, -2951, 7292
0.064117, 338, 423, 2066, -2065, -2951, 7292
0.064251, 338, 423, 2066, -2065, -2951, 7292
0.064396, 338, 423, 2066, -2065, -2951, 7292
0.064531, 338, 423, 2066, -2065, -2951, 7292
0.064666, 338, 423, 2066, -2065, -2951, 7292
0.064796, 338, 423, 2066, -2065, -2951, 7292
0.064930, 509, 419, 2116, -2111, -3134, 7051
0.065065, 509, 419, 2116, -2111, -3134, 7051
0.065199, 509, 419, 2116, -2111, -3134, 7051
0.065334, 509, 419, 2116, -2111, -3134, 7051
0.065469, 509, 419, 2116, -2111, -3134, 7051
0.065603, 509, 419, 2116, -2111, -3134, 7051
0.065738, 509, 419, 2116, -2111, -3134, 7051
0.065875, 509, 419, 2116, -2111, -3134, 7051
0.066010, 610, 394, 2114, -2057, -2876, 6751
0.066145, 610, 394, 2114, -2057, -2876, 6751
0.066280, 610, 394, 2114, -2057, -2876, 6751
0.066414, 610, 394, 2114, -2057, -2876, 6751
0.066549, 610, 394, 2114, -2057, -2876, 6751
0.066684, 610, 394, 2114, -2057, -2876, 6751
0.066822, 610, 394, 2114, -2057, -2876, 6751
0.066957, 683, 351, 2059, -1922, -2347, 6446
0.067092, 683, 351, 2059, -1922, -2347, 6446
0.067222, 683, 351, 2059, -1922, -2347, 6446
0.067357, 683, 351, 2059, -1922, -2347, 6446
0.067491, 683, 351, 2059, -1922, -2347, 6446
0.067626, 683, 351, 2059, -1922, -2347, 6446
0.067760, 683, 351, 2059, -1922, -2347, 6446
0.067895, 683, 351, 2059, -1922, -2347, 6446
0.068030, 928, 333, 2105, -1761, -1903, 6130
0.068164, 928, 333, 2105, -1761, -1903, 6130
0.068299, 928, 333, 2105, -1761, -1903, 6130
0.068434, 928, 333, 2105, -1761, -1903, 6130
0.068568, 928, 333, 2105, -1761, -1903, 6130
0.068703, 928, 333, 2105, -1761, -1903, 6130
0.068837, 928, 333, 2105, -1761, -1903, 6130
0.068972, 1749, 333, 2389, -1540, -1554, 5577
0.069107, 1749, 333, 2389, -1540, -1554, 5577
0.069241, 1749, 333, 2389, -1540, -1554, 5577
0.069376, 1749, 333, 2389, -1540, -1554, 5577
0.069511, 1749, 333, 2389, -1540, -1554, 5577
0.069645, 1749, 333, 2389, -1540, -1554, 5577
0.069780, 1749, 333, 2389, -1540, -1554, 5577
0.069914, 1749, 333, 2389, -1540, -1554, 5577
0.070049, 3632, 218, 3003, -1073, -1247, 4307
0.070184, 3632, 218, 3003, -1073, -1247, 4307
0.070318, 3632, 218, 3003, -1073, -1247, 4307
0.070453, 3632, 218, 3003, -1073, -1247, 4307
0.070588, 3632, 218, 3003, -1073, -1247, 4307
0.070722, 3632, 218, 3003, -1073, -1247, 4307
0.070857, 3632, 218, 3003, -1073, -1247, 4307
0.070992, 7747, 81, 3044, -285, -1135, 1446
0.071127, 7747, 81, 3044, -285, -1135, 1446
0.071262, 7747, 81, 3044, -285, -1135, 1446
0.071396, 7747, 81, 3044, -285, -1135, 1446
0.071531, 7747, 81, 3044, -285, -1135, 1446
0.071665, 7747, 81, 3044, -285, -1135, 1446
0.071800, 7747, 81, 3044, -285, -1135, 1446
0.071935, 7747, 81, 3044, -285, -1135, 1446
0.072069, 11926, 243, 1548, 93, -1143, -4299
0.072204, 11926, 243, 1548, 93, -1143, -4299
0.072339, 11926, 243, 1548, 93, -1143, -4299
0.072473, 11926, 243, 1548, 93, -1143, -4299
0.072608, 11926, 243, 1548, 93, -1143, -4299
0.072742, 11926, 243, 1548, 93, -1143, -4299
0.072877, 11926, 243, 1548, 93, -1143, -4299
0.073011, 8448, 89, 1001, -91, -415, -11442
0.073146, 8448, 89, 1001, -91, -415, -11442
0.073281, 8448, 89, 1001, -91, -415, -11442
0.073416, 8448, 89, 1001, -91, -415, -11442
0.073550, 8448, 89, 1001, -91, -415, -11442
0.073685, 8448, 89, 1001, -91, -415, -11442
0.073819, 8448, 89, 1001, -91, -415, -11442
0.073954, 8448, 89, 1001, -91, -415, -11442
0.074088, -626, -443, 2629, 798, 1476, -14931
0.074223, -626, -443, 2629, 798, 1476, -14931
0.074358, -626, -443, 2629, 798, 1476, -14931
0.074493, -626, -443, 2629, 798, 1476, -14931
0.074627, -626, -443, 2629, 798, 1476, -14931
0.074762, -626, -443, 2629, 798, 1476, -14931
0.074897, -626, -443, 2629, 798, 1476, -14931
0.075031, -6329, -645, 2057, 2827, 3828, -12900
0.075166, -6329, -645, 2057, 2827, 3828, -12900
0.075301, -6329, -645, 2057, 2827, 3828, -12900
0.075436, -6329, -645, 2057, 2827, 3828, -12900
0.075571, -6329, -645, 2057, 2827, 3828, -12900
0.075706, -6329, -645, 2057, 2827, 3828, -12900
0.075840, -6329, -645, 2057, 2827, 3828, -12900
0.075975, -6329, -645, 2057, 2827, 3828, -12900
0.076110, -6721, 517, -1379, 3386, 5647, -8217
0.076244, -6721, 517, -1379, 3386, 5647, -8217
0.076379, -6721, 517, -1379, 3386, 5647, -8217
0.076521, -6721, 517, -1379, 3386, 5647, -8217
0.076656, -6721, 517, -1379, 3386, 5647, -8217
0.076791, -6721, 517, -1379, 3386, 5647, -8217
0.076926, -6721, 517, -1379, 3386, 5647, -8217
0.077061, -3417, 1802, -1020, 1827, 6063, -4283
0.077195, -3417, 1802, -1020, 1827, 6063, -4283
0.077330, -3417, 1802, -1020, 1827, 6063, -4283
0.077465, -3417, 1802, -1020, 1827, 6063, -4283
0.077599, -3417, 1802, -1020, 1827, 6063, -4283
0.077734, -3417, 1802, -1020, 1827, 6063, -4283
0.077868, -3417, 1802, -1020, 1827, 6063, -4283
0.078003, -3417, 1802, -1020, 1827, 6063, -4283
0.078138, -2667, 692, 3561, 953, 5485, -2000
0.078272, -2667, 692, 3561, 953, 5485, -2000
0.078407, -2667, 692, 3561, 953, 5485, -2000
0.078542, -2667, 692, 3561, 953, 5485, -2000
0.078676, -2667, 692, 3561, 953, 5485, -2000
0.078811, -2667, 692, 3561, 953, 5485, -2000
0.078946, -2667, 692, 3561, 953, 5485, -2000
0.079080, -5086, 87, 4549, 1466, 4882, 752
0.079215, -5086, 87, 4549, 1466, 4882, 752
0.079350, -5086, 87, 4549, 1466, 4882, 752
0.079484, -5086, 87, 4549, 1466, 4882, 752
0.079619, -5086, 87, 4549, 1466, 4882, 752
0.079753, -5086, 87, 4549, 1466, 4882, 752
0.079888, -5086, 87, 4549, 1466, 4882, 752
0.080022, -5086, 87, 4549, 1466, 4882, 752
0.080157, -4156, 882, 2100, 1213, 3930, 4253
0.080292, -4156, 882, 2100, 1213, 3930, 4253
0.080426, -4156, 882, 2100, 1213, 3930, 4253
0.080561, -4156, 882, 2100, 1213, 3930, 4253
0.080695, -4156, 882, 2100, 1213, 3930, 4253
0.080830, -4156, 882, 2100, 1213, 3930, 4253
0.080965, -4156, 882, 2100, 1213, 3930, 4253
0.081099, -188, 653, 1691, 133, 1795, 6051
0.081234, -188, 653, 1691, 133, 1795, 6051
0.081369, -188, 653, 1691, 133, 1795, 6051
0.081503, -188, 653, 1691, 133, 1795, 6051
0.081638, -188, 653, 1691, 133, 1795, 6051
0.081773, -188, 653, 1691, 133, 1795, 6051
0.081907, -188, 653, 1691, 133, 1795, 6051
0.082042, -188, 653, 1691, 133, 1795, 6051
0.082176, 3021, 355, 2705, -726, -914, 5322
0.082311, 3021, 355, 2705, -726, -914, 5322
0.082446, 3021, 355, 2705, -726, -914, 5322
0.082580, 3021, 355, 2705, -726, -914, 5322
0.082715, 3021, 355, 2705, -726, -914, 5322
0.082850, 3021, 355, 2705, -726, -914, 5322
0.082985, 3021, 355, 2705, -726, -914, 5322
0.083120, 4027, 474, 2818, -1226, -2502, 3047
0.083254, 4027, 474, 2818, -1226, -2502, 3047
0.083389, 4027, 474, 2818, -1226, -2502, 3047
0.083524, 4027, 474, 2818, -1226, -2502, 3047
0.083658, 4027, 474, 2818, -1226, -2502, 3047
0.083793, 4027, 474, 2818, -1226, -2502, 3047
0.083927, 4027, 474, 2818, -1226, -2502, 3047
0.084062, 4027, 474, 2818, -1226, -2502, 3047
0.084197, 2824, 247, 1832, -1463, -2747, 530
0.084332, 2824, 247, 1832, -1463, -2747, 530
0.084467, 2824, 247, 1832, -1463, -2747, 530
0.084603, 2824, 247, 1832, -1463, -2747, 530
0.084750, 2824, 247, 1832, -1463, -2747, 530
0.084895, 2824, 247, 1832, -1463, -2747, 530
0.085042, 2824, 247, 1832, -1463, -2747, 530
0.085193, -196, 55, 1173, -1540, -2634, -848
0.085345, -196, 55, 1173, -1540, -2634, -848
0.085499, -196, 55, 1173, -1540, -2634, -848
0.085642, -196, 55, 1173, -1540, -2634, -848
0.085803, -196, 55, 1173, -1540, -2634, -848
0.085951, -196, 55, 1173, -1540, -2634, -848
0.086095, -196, 55, 1173, -1540, -2634, -848
0.086239, -3911, 441, 1409, -1325, -2222, 1
0.086385, -3911, 441, 1409, -1325, -2222, 1
0.086527, -3911, 441, 1409, -1325, -2222, 1
0.086670, -3911, 441, 1409, -1325, -2222, 1
0.086812, -3911, 441, 1409, -1325, -2222, 1
0.086968, -3911, 441, 1409, -1325, -2222, 1
0.087111, -3911, 441, 1409, -1325, -2222, 1
0.087254, -5159, 872, 1652, -1015, -1314, 3001
0.087400, -5159, 872, 1652, -1015, -1314, 3001
0.087544, -5159, 872, 1652, -1015, -1314, 3001
0.087687, -5159, 872, 1652, -1015, -1314, 3001
0.087828, -5159, 872, 1652, -1015, -1314, 3001
0.087973, -5159, 872, 1652, -1015, -1314, 3001
0.088114, -5159, 872, 1652, -1015, -1314, 3001
0.088255, -2181, 741, 2035, -949, -600, 5992
0.088399, -2181, 741, 2035, -949, -600, 5992
0.088539, -2181, 741, 2035, -949, -600, 5992
0.088682, -2181, 741, 2035, -949, -600, 5992
0.088824, -2181, 741, 2035, -949, -600, 5992
0.088966, -2181, 741, 2035, -949, -600, 5992
0.089141, -2181, 741, 2035, -949, -600, 5992
0.089286, 1472, 371, 2322, -1144, -603, 6812
0.089429, 1472, 371, 2322, -1144, -603, 6812
0.089570, 1472, 371, 2322, -1144, -603, 6812
0.089711, 1472, 371, 2322, -1144, -603, 6812
0.089853, 1472, 371, 2322, -1144, -603, 6812
0.089995, 1472, 371, 2322, -1144, -603, 6812
0.090135, 1472, 371, 2322, -1144, -603, 6812
0.090276, 3361, 262, 2316, -1618, -931, 5734
0.090417, 3361, 262, 2316, -1618, -931, 5734
0.090558, 3361, 262, 2316, -1618, -931, 5734
0.090705, 3361, 262, 2316, -1618, -931, 5734
0.090851, 3361, 262, 2316, -1618, -931, 5734
0.090996, 3361, 262, 2316, -1618, -931, 5734
0.091141, 3361, 262, 2316, -1618, -931, 5734
0.091286, 4677, 258, 2332, -2111, -1072, 3548
0.091429, 4677, 258, 2332, -2111, -1072, 3548
0.091570, 4677, 258, 2332, -2111, -1072, 3548
0.091712, 4677, 258, 2332, -2111, -1072, 3548
0.091853, 4677, 258, 2332, -2111, -1072, 3548
0.091996, 4677, 258, 2332, -2111, -1072, 3548
0.092138, 4677, 258, 2332, -2111, -1072, 3548
0.092280, 4488, 230, 1979, -2369, -847, 622
0.092421, 4488, 230, 1979, -2369, -847, 622
0.092562, 4488, 230, 1979, -2369, -847, 622
0.092704, 4488, 230, 1979, -2369, -847, 622
0.092845, 4488, 230, 1979, -2369, -847, 622
0.092987, 4488, 230, 1979, -2369, -847, 622
0.093127, 4488, 230, 1979, -2369, -847, 622
0.093268, 1552, 311, 1908, -2372, -251, -1677
0.093411, 1552, 311, 1908, -2372, -251, -1677
0.093552, 1552, 311, 1908, -2372, -251, -1677
0.093693, 1552, 311, 1908, -2372, -251, -1677
0.093834, 1552, 311, 1908, -2372, -251, -1677
0.093974, 1552, 311, 1908, -2372, -251, -1677
0.094117, 1552, 311, 1908, -2372, -251, -1677
0.094259, 1552, 311, 1908, -2372, -251, -1677
0.094401, -1991, 508, 2445, -1767, 552, -1846
0.094545, -1991, 508, 2445, -1767, 552, -1846
0.094686, -1991, 508, 2445, -1767, 552, -1846
0.094843, -1991, 508, 2445, -1767, 552, -1846
0.094985, -1991, 508, 2445, -1767, 552, -1846
0.095121, -1991, 508, 2445, -1767, 552, -1846
0.095257, -1991, 508, 2445, -1767, 552, -1846
0.095392, -3067, 608, 2184, -838, 1169, -145
0.095528, -3067, 608, 2184, -838, 1169, -145
0.095663, -3067, 608, 2184, -838, 1169, -145
0.095798, -3067, 608, 2184, -838, 1169, -145
0.095933, -3067, 608, 2184, -838, 1169, -145
0.096068, -3067, 608, 2184, -838, 1169, -145
0.096202, -3067, 608, 2184, -838, 1169, -145
0.096337, -2031, 391, 1698, -518, 1341, 1747
0.096472, -2031, 391, 1698, -518, 1341, 1747
0.096607, -2031, 391, 1698, -518, 1341, 1747
0.096741, -2031, 391, 1698, -518, 1341, 1747
0.096876, -2031, 391, 1698, -518, 1341, 1747
0.097011, -2031, 391, 1698, -518, 1341, 1747
0.097146, -2031, 391, 1698, -518, 1341, 1747
0.097280, -2031, 391, 1698, -518, 1341, 1747
0.097415, -656, 191, 2183, -625, 1108, 2939
0.097550, -656, 191, 2183, -625, 1108, 2939
0.097685, -656, 191, 2183, -625, 1108, 2939
0.097819, -656, 191, 2183, -625, 1108, 2939
0.097954, -656, 191, 2183, -625, 1108, 2939
0.098089, -656, 191, 2183, -625, 1108, 2939
0.098224, -656, 191, 2183, -625, 1108, 2939
0.098358, 1177, 185, 2639, -661, 633, 3171
0.098493, 1177, 185, 2639, -661, 633, 3171
0.098628, 1177, 185, 2639, -661, 633, 3171
0.098763, 1177, 185, 2639, -661, 633, 3171
0.098899, 1177, 185, 2639, -661, 633, 3171
0.099033, 1177, 185, 2639, -661, 633, 3171
0.099168, 1177, 185, 2639, -661, 633, 3171
0.099303, 1177, 185, 2639, -661, 633, 3171
0.099437, 1938, 267, 2142, -922, 296, 2345
0.099572, 1938, 267, 2142, -922, 296, 2345
0.099707, 1938, 267, 2142, -922, 296, 2345
0.099841, 1938, 267, 2142, -922, 296, 2345
0.099976, 1938, 267, 2142, -922, 296, 2345
0.100111, 1938, 267, 2142, -922, 296, 2345
0.100246, 1938, 267, 2142, -922, 296, 2345
0.100380, 1717, 601, 1934, -1390, 204, 1240
0.100515, 1717, 601, 1934, -1390, 204, 1240
0.100650, 1717, 601, 1934, -1390, 204, 1240
0.100785, 1717, 601, 1934, -1390, 204, 1240
0.100919, 1717, 601, 1934, -1390, 204, 1240
0.101054, 1717, 601, 1934, -1390, 204, 1240
0.101189, 1717, 601, 1934, -1390, 204, 1240
0.101323, 1717, 601, 1934, -1390, 204, 1240
0.101458, 1061, 533, 2530, -1364, 182, 283
0.101593, 1061, 533, 2530, -1364, 182, 283
0.101728, 1061, 533, 2530, -1364, 182, 283
0.101893, 1061, 533, 2530, -1364, 182, 283
0.102035, 1061, 533, 2530, -1364, 182, 283
0.102169, 1061, 533, 2530, -1364, 182, 283
0.102304, 1061, 533, 2530, -1364, 182, 283
0.102439, -1056, 233, 2508, -883, 292, 111
0.102574, -1056, 233, 2508, -883, 292, 111
0.102708, -1056, 233, 2508, -883, 292, 111
0.102844, -1056, 233, 2508, -883, 292, 111
0.102978, -1056, 233, 2508, -883, 292, 111
0.103113, -1056, 233, 2508, -883, 292, 111
0.103247, -1056, 233, 2508, -883, 292, 111
0.103382, -1056, 233, 2508, -883, 292, 111
0.103517, -1287, 428, 2096, -423, 465, 1104
0.103652, -1287, 428, 2096, -423, 465, 1104
0.103786, -1287, 428, 2096, -423, 465, 1104
0.103923, -1287, 428, 2096, -423, 465, 1104
0.104058, -1287, 428, 2096, -423, 465, 1104
0.104194, -1287, 428, 2096, -423, 465, 1104
0.104329, -1287, 428, 2096, -423, 465, 1104
0.104464, 1829, 244, 1475, -207, 329, 1472
0.104598, 1829, 244, 1475, -207, 329, 1472
0.104733, 1829, 244, 1475, -207, 329, 1472
0.104868, 1829, 244, 1475, -207, 329, 1472
0.105003, 1829, 244, 1475, -207, 329, 1472
0.105137, 1829, 244, 1475, -207, 329, 1472
0.105272, 1829, 244, 1475, -207, 329, 1472
0.105406, 1829, 244, 1475, -207, 329, 1472
0.105541, 5210, -104, 906, -721, -141, -350
0.105676, 5210, -104, 906, -721, -141, -350
0.105811, 5210, -104, 906, -721, -141, -350
0.105946, 5210, -104, 906, -721, -141, -350
0.106080, 5210, -104, 906, -721, -141, -350
0.106215, 5210, -104, 906, -721, -141, -350
0.106350, 5210, -104, 906, -721, -141, -350
0.106485, 5485, -89, 1527, -1411, -288, -3713
0.106620, 5485, -89, 1527, -1411, -288, -3713
0.106755, 5485, -89, 1527, -1411, -288, -3713
0.106890, 5485, -89, 1527, -1411, -288, -3713
0.107024, 5485, -89, 1527, -1411, -288, -3713
0.107159, 5485, -89, 1527, -1411, -288, -3713
0.107294, 5485, -89, 1527, -1411, -288, -3713
0.107428, 5485, -89, 1527, -1411, -288, -3713
0.107563, 2595, 36, 3276, -939, 278, -6517
0.107698, 2595, 36, 3276, -939, 278, -6517
0.107833, 2595, 36, 3276, -939, 278, -6517
0.107968, 2595, 36, 3276, -939, 278, -6517
0.108103, 2595, 36, 3276, -939, 278, -6517
0.108237, 2595, 36, 3276, -939, 278, -6517
0.108372, 2595, 36, 3276, -939, 278, -6517
0.108507, 288, 584, 4330, 906, 1263, -7532
0.108641, 288, 584, 4330, 906, 1263, -7532
0.108776, 288, 584, 4330, 906, 1263, -7532
0.108911, 288, 584, 4330, 906, 1263, -7532
0.109045, 288, 584, 4330, 906, 1263, -7532
0.109180, 288, 584, 4330, 906, 1263, -7532
0.109315, 288, 584, 4330, 906, 1263, -7532
0.109449, 288, 584, 4330, 906, 1263, -7532
0.109584, -801, 1114, 3907, 3092, 2281, -7336
0.109719, -801, 1114, 3907, 3092, 2281, -7336
0.109854, -801, 1114, 3907, 3092, 2281, -7336
0.109989, -801, 1114, 3907, 3092, 2281, -7336
0.110123, -801, 1114, 3907, 3092, 2281, -7336
0.110258, -801, 1114, 3907, 3092, 2281, -7336
0.110393, -801, 1114, 3907, 3092, 2281, -7336
0.110527, -1638, 1037, 3059, 4744, 2917, -6460
0.110662, -1638, 1037, 3059, 4744, 2917, -6460
0.110797, -1638, 1037, 3059, 4744, 2917, -6460
0.110932, -1638, 1037, 3059, 4744, 2917, -6460
0.111067, -1638, 1037, 3059, 4744, 2917, -6460
0.111201, -1638, 1037, 3059, 4744, 2917, -6460
0.111336, -1638, 1037, 3059, 4744, 2917, -6460
0.111471, -1638, 1037, 3059, 4744, 2917, -6460
0.111606, -1984, 548, 1122, 5166, 2941, -4936
0.111740, -1984, 548, 1122, 5166, 2941, -4936
0.111875, -1984, 548, 1122, 5166, 2941, -4936
0.112010, -1984, 548, 1122, 5166, 2941, -4936
0.112145, -1984, 548, 1122, 5166, 2941, -4936
0.112280, -1984, 548, 1122, 5166, 2941, -4936
0.112414, -1984, 548, 1122, 5166, 2941, -4936
0.112549, -1245, 125, 102, 4141, 2639, -3351
0.112684, -1245, 125, 102, 4141, 2639, -3351
0.112818, -1245, 125, 102, 4141, 2639, -3351
0.112953, -1245, 125, 102, 4141, 2639, -3351
0.113088, -1245, 125, 102, 4141, 2639, -3351
0.113223, -1245, 125, 102, 4141, 2639, -3351
0.113357, -1245, 125, 102, 4141, 2639, -3351
0.113492, -1245, 125, 102, 4141, 2639, -3351
0.113627, 65, -212, -160, 2564, 2353, -2507
0.113762, 65, -212, -160, 2564, 2353, -2507
0.113896, 65, -212, -160, 2564, 2353, -2507
0.114031, 65, -212, -160, 2564, 2353, -2507
0.114166, 65, -212, -160, 2564, 2353, -2507
0.114319, 65, -212, -160, 2564, 2353, -2507
0.114455, 65, -212, -160, 2564, 2353, -2507
0.114590, 1783, 106, -1387, 285, 1987, -2588
0.114725, 1783, 106, -1387, 285, 1987, -2588
0.114859, 1783, 106, -1387, 285, 1987, -2588
0.114994, 1783, 106, -1387, 285, 1987, -2588
0.115129, 1783, 106, -1387, 285, 1987, -2588
0.115264, 1783, 106, -1387, 285, 1987, -2588
0.115398, 1783, 106, -1387, 285, 1987, -2588
0.115533, 1783, 106, -1387, 285, 1987, -2588
0.115667, 4298, 1220, 179, -1931, 1469, -4224
0.115802, 4298, 1220, 179, -1931, 1469, -4224
0.115937, 4298, 1220, 179, -1931, 1469, -4224
0.116072, 4298, 1220, 179, -1931, 1469, -4224
0.116206, 4298, 1220, 179, -1931, 1469, -4224
0.116341, 4298, 1220, 179, -1931, 1469, -4224
0.116476, 4298, 1220, 179, -1931, 1469, -4224
0.116610, 3267, 1080, 3354, -2142, 1219, -6991
0.116745, 3267, 1080, 3354, -2142, 1219, -6991
0.116880, 3267, 1080, 3354, -2142, 1219, -6991
0.117014, 3267, 1080, 3354, -2142, 1219, -6991
0.117149, 3267, 1080, 3354, -2142, 1219, -6991
0.117284, 3267, 1080, 3354, -2142, 1219, -6991
0.117418, 3267, 1080, 3354, -2142, 1219, -6991
0.117553, 3267, 1080, 3354, -2142, 1219, -6991
0.117688, -2169, 387, 4940, -568, 1576, -7950
0.117823, -2169, 387, 4940, -568, 1576, -7950
0.117957, -2169, 387, 4940, -568, 1576, -7950
0.118092, -2169, 387, 4940, -568, 1576, -7950
0.118227, -2169, 387, 4940, -568, 1576, -7950
0.118361, -2169, 387, 4940, -568, 1576, -7950
0.118496, -2169, 387, 4940, -568, 1576, -7950
0.118631, -6582, 536, 3615, 1537, 2116, -5429
0.118766, -6582, 536, 3615, 1537, 2116, -5429
0.118900, -6582, 536, 3615, 1537, 2116, -5429
0.119035, -6582, 536, 3615, 1537, 2116, -5429
0.119170, -6582, 536, 3615, 1537, 2116, -5429
0.119305, -6582, 536, 3615, 1537, 2116, -5429
0.119439, -6582, 536, 3615, 1537, 2116, -5429
0.119574, -6582, 536, 3615, 1537, 2116, -5429
0.119709, -6733, 513, 550, 2346, 2021, -772
0.119844, -6733, 513, 550, 2346, 2021, -772
0.119978, -6733, 513, 550, 2346, 2021, -772
0.120113, -6733, 513, 550, 2346, 2021, -772
0.120248, -6733, 513, 550, 2346, 2021, -772
0.120382, -6733, 513, 550, 2346, 2021, -772
0.120517, -6733, 513, 550, 2346, 2021, -772
0.120652, -3214, 412, 503, 1354, 1196, 3197
0.120786, -3214, 412, 503, 1354, 1196, 3197
0.120921, -3214, 412, 503, 1354, 1196, 3197
0.121056, -3214, 412, 503, 1354, 1196, 3197
0.121191, -3214, 412, 503, 1354, 1196, 3197
0.121325, -3214, 412, 503, 1354, 1196, 3197
0.121460, -3214, 412, 503, 1354, 1196, 3197
0.121595, -3214, 412, 503, 1354, 1196, 3197
0.121729, -438, 475, 2197, 289, 490, 4788
0.121864, -438, 475, 2197, 289, 490, 4788
0.121999, -438, 475, 2197, 289, 490, 4788
0.122133, -438, 475, 2197, 289, 490, 4788
0.122268, -438, 475, 2197, 289, 490, 4788
0.122403, -438, 475, 2197, 289, 490, 4788
0.122538, -438, 475, 2197, 289, 490, 4788
0.122672, -348, 564, 2586, -467, 333, 5203
0.122807, -348, 564, 2586, -467, 333, 5203
0.122942, -348, 564, 2586, -467, 333, 5203
0.123077, -348, 564, 2586, -467, 333, 5203
0.123212, -348, 564, 2586, -467, 333, 5203
0.123346, -348, 564, 2586, -467, 333, 5203
0.123481, -348, 564, 2586, -467, 333, 5203
0.123616, -348, 564, 2586, -467, 333, 5203
0.123750, 1041, 555, 2416, -1196, 93, 5374
0.123885, 1041, 555, 2416, -1196, 93, 5374
0.124020, 1041, 555, 2416, -1196, 93, 5374
0.124155, 1041, 555, 2416, -1196, 93, 5374
0.124289, 1041, 555, 2416, -1196, 93, 5374
0.124424, 1041, 555, 2416, -1196, 93, 5374
0.124559, 1041, 555, 2416, -1196, 93, 5374
0.124694, 3813, 405, 2307, -1553, -794, 4027
0.124829, 3813, 405, 2307, -1553, -794, 4027
0.124963, 3813, 405, 2307, -1553, -794, 4027
0.125098, 3813, 405, 2307, -1553, -794, 4027
0.125233, 3813, 405, 2307, -1553, -794, 4027
0.125367, 3813, 405, 2307, -1553, -794, 4027
0.125502, 3813, 405, 2307, -1553, -794, 4027
0.125636, 3813, 405, 2307, -1553, -794, 4027
0.125771, 1960, 169, 1998, -1718, -1708, 1569
0.125906, 1960, 169, 1998, -1718, -1708, 1569
0.126041, 1960, 169, 1998, -1718, -1708, 1569
0.126175, 1960, 169, 1998, -1718, -1708, 1569
0.126310, 1960, 169, 1998, -1718, -1708, 1569
0.126444, 1960, 169, 1998, -1718, -1708, 1569
0.126579, 1960, 169, 1998, -1718, -1708, 1569
0.126718, -3759, 112, 1451, -1845, -1785, 1408
0.126856, -3759, 112, 1451, -1845, -1785, 1408
0.126990, -3759, 112, 1451, -1845, -1785, 1408
0.127124, -3759, 112, 1451, -1845, -1785, 1408
0.127258, -3759, 112, 1451, -1845, -1785, 1408
0.127392, -3759, 112, 1451, -1845, -1785, 1408
0.127525, -3759, 112, 1451, -1845, -1785, 1408
0.127659, -3759, 112, 1451, -1845, -1785, 1408
0.127793, -4930, 451, 1264, -1790, -1420, 4347
0.127928, -4930, 451, 1264, -1790, -1420, 4347
0.128062, -4930, 451, 1264, -1790, -1420, 4347
0.128197, -4930, 451, 1264, -1790, -1420, 4347
0.128331, -4930, 451, 1264, -1790, -1420, 4347
0.128466, -4930, 451, 1264, -1790, -1420, 4347
0.128600, -4930, 451, 1264, -1790, -1420, 4347
0.128735, -1249, 500, 1753, -1711, -1326, 6828
0.128870, -1249, 500, 1753, -1711, -1326, 6828
0.129004, -1249, 500, 1753, -1711, -1326, 6828
0.129139, -1249, 500, 1753, -1711, -1326, 6828
0.129273, -1249, 500, 1753, -1711, -1326, 6828
0.129408, -1249, 500, 1753, -1711, -1326, 6828
0.129542, -1249, 500, 1753, -1711, -1326, 6828
0.129677, -1249, 500, 1753, -1711, -1326, 6828
0.129811, 1100, 278, 2260, -1856, -1354, 7102
0.129946, 1100, 278, 2260, -1856, -1354, 7102
0.130080, 1100, 278, 2260, -1856, -1354, 7102
0.130215, 1100, 278, 2260, -1856, -1354, 7102
0.130349, 1100, 278, 2260, -1856, -1354, 7102
0.130484, 1100, 278, 2260, -1856, -1354, 7102
0.130618, 1100, 278, 2260, -1856, -1354, 7102
0.130753, 1681, 194, 2283, -2185, -1270, 6487
0.130888, 1681, 194, 2283, -2185, -1270, 6487
0.131022, 1681, 194, 2283, -2185, -1270, 6487
0.131157, 1681, 194, 2283, -2185, -1270, 6487
0.131292, 1681, 194, 2283, -2185, -1270, 6487
0.131426, 1681, 194, 2283, -2185, -1270, 6487
0.131561, 1681, 194, 2283, -2185, -1270, 6487
0.131695, 1681, 194, 2283, -2185, -1270, 6487
0.131830, 3182, 119, 2002, -2529, -1305, 5386
0.131965, 3182, 119, 2002, -2529, -1305, 5386
0.132099, 3182, 119, 2002, -2529, -1305, 5386
0.132234, 3182, 119, 2002, -2529, -1305, 5386
0.132369, 3182, 119, 2002, -2529, -1305, 5386
0.132503, 3182, 119, 2002, -2529, -1305, 5386
0.132638, 3182, 119, 2002, -2529, -1305, 5386
0.132772, 3182, 119, 2002, -2529, -1305, 5386
0.132907, 4744, 8, 1552, -2909, -1469, 3050
0.133042, 4744, 8, 1552, -2909, -1469, 3050
0.133177, 4744, 8, 1552, -2909, -1469, 3050
0.133311, 4744, 8, 1552, -2909, -1469, 3050
0.133446, 4744, 8, 1552, -2909, -1469, 3050
0.133580, 4744, 8, 1552, -2909, -1469, 3050
0.133715, 4744, 8, 1552, -2909, -1469, 3050
0.133850, 4353, -205, 1180, -3289, -1339, 43
0.133985, 4353, -205, 1180, -3289, -1339, 43
0.134119, 4353, -205, 1180, -3289, -1339, 43
0.134254, 4353, -205, 1180, -3289, -1339, 43
0.134389, 4353, -205, 1180, -3289, -1339, 43
0.134523, 4353, -205, 1180, -3289, -1339, 43
0.134658, 4353, -205, 1180, -3289, -1339, 43
0.134793, 4353, -205, 1180, -3289, -1339, 43
0.134928, 4549, -397, 581, -3591, -902, -2627
0.135063, 4549, -397, 581, -3591, -902, -2627
0.135197, 4549, -397, 581, -3591, -902, -2627
0.135332, 4549, -397, 581, -3591, -902, -2627
0.135467, 4549, -397, 581, -3591, -902, -2627
0.135601, 4549, -397, 581, -3591, -902, -2627
0.135736, 4549, -397, 581, -3591, -902, -2627
0.135871, 4302, -416, 1212, -3784, -297, -5568
0.136005, 4302, -416, 1212, -3784, -297, -5568
0.136140, 4302, -416, 1212, -3784, -297, -5568
0.136275, 4302, -416, 1212, -3784, -297, -5568
0.136410, 4302, -416, 1212, -3784, -297, -5568
0.136546, 4302, -416, 1212, -3784, -297, -5568
0.136680, 4302, -416, 1212, -3784, -297, -5568
0.136815, 4302, -416, 1212, -3784, -297, -5568
0.136949, 109, 75, 4023, -2561, 869, -7511
0.137084, 109, 75, 4023, -2561, 869, -7511
0.137219, 109, 75, 4023, -2561, 869, -7511
0.137354, 109, 75, 4023, -2561, 869, -7511
0.137488, 109, 75, 4023, -2561, 869, -7511
0.137623, 109, 75, 4023, -2561, 869, -7511
0.137758, 109, 75, 4023, -2561, 869, -7511
0.137892, -3476, 824, 4260, 93, 2453, -6452
0.138027, -3476, 824, 4260, 93, 2453, -6452
0.138162, -3476, 824, 4260, 93, 2453, -6452
0.138297, -3476, 824, 4260, 93, 2453, -6452
0.138431, -3476, 824, 4260, 93, 2453, -6452
0.138566, -3476, 824, 4260, 93, 2453, -6452
0.138706, -3476, 824, 4260, 93, 2453, -6452
0.138841, -3476, 824, 4260, 93, 2453, -6452
0.138976, -3792, 911, 1600, 1464, 3680, -3799
0.139110, -3792, 911, 1600, 1464, 3680, -3799
0.139245, -3792, 911, 1600, 1464, 3680, -3799
0.139380, -3792, 911, 1600, 1464, 3680, -3799
0.139514, -3792, 911, 1600, 1464, 3680, -3799
0.139649, -3792, 911, 1600, 1464, 3680, -3799
0.139784, -3792, 911, 1600, 1464, 3680, -3799
0.139918, -1946, 575, 1255, 1292, 3894, -1387
0.140053, -1946, 575, 1255, 1292, 3894, -1387
0.140188, -1946, 575, 1255, 1292, 3894, -1387
0.140322, -1946, 575, 1255, 1292, 3894, -1387
0.140457, -1946, 575, 1255, 1292, 3894, -1387
0.140592, -1946, 575, 1255, 1292, 3894, -1387
0.140726, -1946, 575, 1255, 1292, 3894, -1387
0.140861, -1946, 575, 1255, 1292, 3894, -1387
0.140996, 1341, 402, 2548, 1028, 3105, -402
0.141130, 1341, 402, 2548, 1028, 3105, -402
0.141265, 1341, 402, 2548, 1028, 3105, -402
0.141400, 1341, 402, 2548, 1028, 3105, -402
0.141534, 1341, 402, 2548, 1028, 3105, -402
0.141669, 1341, 402, 2548, 1028, 3105, -402
0.141804, 1341, 402, 2548, 1028, 3105, -402
0.141938, 3347, 500, 3060, 757, 2425, -1394
0.142073, 3347, 500, 3060, 757, 2425, -1394
0.142208, 3347, 500, 3060, 757, 2425, -1394
0.142342, 3347, 500, 3060, 757, 2425, -1394
0.142477, 3347, 500, 3060, 757, 2425, -1394
0.142612, 3347, 500, 3060, 757, 2425, -1394
0.142746, 3347, 500, 3060, 757, 2425, -1394
0.142881, 3347, 500, 3060, 757, 2425, -1394
0.143015, 3668, 610, 3205, 800, 2318, -3400
0.143149, 3668, 610, 3205, 800, 2318, -3400
0.143284, 3668, 610, 3205, 800, 2318, -3400
0.143418, 3668, 610, 3205, 800, 2318, -3400
0.143553, 3668, 610, 3205, 800, 2318, -3400
0.143687, 3668, 610, 3205, 800, 2318, -3400
0.143822, 3668, 610, 3205, 800, 2318, -3400
0.143956, 3641, 557, 3147, 1434, 2060, -5653
0.144091, 3641, 557, 3147, 1434, 2060, -5653
0.144225, 3641, 557, 3147, 1434, 2060, -5653
0.144360, 3641, 557, 3147, 1434, 2060, -5653
0.144494, 3641, 557, 3147, 1434, 2060, -5653
0.144629, 3641, 557, 3147, 1434, 2060, -5653
0.144763, 3641, 557, 3147, 1434, 2060, -5653
0.144898, 3641, 557, 3147, 1434, 2060, -5653
0.145032, 2421, 483, 2799, 2215, 1634, -7768
0.145167, 2421, 483, 2799, 2215, 1634, -7768
0.145301, 2421, 483, 2799, 2215, 1634, -7768
0.145435, 2421, 483, 2799, 2215, 1634, -7768
0.145570, 2421, 483, 2799, 2215, 1634, -7768
0.145704, 2421, 483, 2799, 2215, 1634, -7768
0.145839, 2421, 483, 2799, 2215, 1634, -7768
0.145973, -617, 452, 2025, 2956, 1698, -8718
0.146108, -617, 452, 2025, 2956, 1698, -8718
0.146242, -617, 452, 2025, 2956, 1698, -8718
0.146377, -617, 452, 2025, 2956, 1698, -8718
0.146511, -617, 452, 2025, 2956, 1698, -8718
0.146646, -617, 452, 2025, 2956, 1698, -8718
0.146780, -617, 452, 2025, 2956, 1698, -8718
0.146910, -617, 452, 2025, 2956, 1698, -8718
0.147045, -3384, 673, 690, 3283, 2108, -7628
0.147180, -3384, 673, 690, 3283, 2108, -7628
0.147314, -3384, 673, 690, 3283, 2108, -7628
0.147449, -3384, 673, 690, 3283, 2108, -7628
0.147584, -3384, 673, 690, 3283, 2108, -7628
0.147718, -3384, 673, 690, 3283, 2108, -7628
0.147853, -3384, 673, 690, 3283, 2108, -7628
0.147988, -5085, 782, -12, 2717, 2406, -4918
0.148122, -5085, 782, -12, 2717, 2406, -4918
0.148257, -5085, 782, -12, 2717, 2406, -4918
0.148392, -5085, 782, -12, 2717, 2406, -4918
0.148526, -5085, 782, -12, 2717, 2406, -4918
0.148661, -5085, 782, -12, 2717, 2406, -4918
0.148796, -5085, 782, -12, 2717, 2406, -4918
0.148930, -5085, 782, -12, 2717, 2406, -4918
0.149065, -6500, 464, 709, 1826, 2586, -1084
0.149200, -6500, 464, 709, 1826, 2586, -1084
0.149334, -6500, 464, 709, 1826, 2586, -1084
0.149469, -6500, 464, 709, 1826, 2586, -1084
0.149604, -6500, 464, 709, 1826, 2586, -1084
0.149738, -6500, 464, 709, 1826, 2586, -1084
0.149873, -6500, 464, 709, 1826, 2586, -1084
0.150007, -6500, 464, 709, 1826, 2586, -1084
0.150142, -5812, 315, 1583, 1084, 2416, 3387
0.150277, -5812, 315, 1583, 1084, 2416, 3387
0.150412, -5812, 315, 1583, 1084, 2416, 3387
0.150546, -5812, 315, 1583, 1084, 2416, 3387
0.150681, -5812, 315, 1583, 1084, 2416, 3387
0.150824, -5812, 315, 1583, 1084, 2416, 3387
0.150964, -5812, 315, 1583, 1084, 2416, 3387
0.151099, -2342, 517, 1969, 213, 1549, 6666
0.151234, -2342, 517, 1969, 213, 1549, 6666
0.151368, -2342, 517, 1969, 213, 1549, 6666
0.151503, -2342, 517, 1969, 213, 1549, 6666
0.151637, -2342, 517, 1969, 213, 1549, 6666
0.151772, -2342, 517, 1969, 213, 1549, 6666
0.151906, -2342, 517, 1969, 213, 1549, 6666
0.152041, 882, 556, 2399, -769, 164, 7461
0.152176, 882, 556, 2399, -769, 164, 7461
0.152310, 882, 556, 2399, -769, 164, 7461
0.152445, 882, 556, 2399, -769, 164, 7461
0.152580, 882, 556, 2399, -769, 164, 7461
0.152714, 882, 556, 2399, -769, 164, 7461
0.152849, 882, 556, 2399, -769, 164, 7461
0.152983, 882, 556, 2399, -769, 164, 7461
0.153118, 2714, 439, 2787, -1523, -1293, 6449
0.153253, 2714, 439, 2787, -1523, -1293, 6449
0.153388, 2714, 439, 2787, -1523, -1293, 6449
0.153522, 2714, 439, 2787, -1523, -1293, 6449
0.153657, 2714, 439, 2787, -1523, -1293, 6449
0.153791, 2714, 439, 2787, -1523, -1293, 6449
0.153926, 2714, 439, 2787, -1523, -1293, 6449
0.154061, 2714, 439, 2787, -1523, -1293, 6449
0.154195, 4273, 349, 2902, -1865, -2482, 4324
0.154330, 4273, 349, 2902, -1865, -2482, 4324
0.154465, 4273, 349, 2902, -1865, -2482, 4324
0.154599, 4273, 349, 2902, -1865, -2482, 4324
0.154734, 4273, 349, 2902, -1865, -2482, 4324
0.154869, 4273, 349, 2902, -1865, -2482, 4324
0.155004, 4273, 349, 2902, -1865, -2482, 4324
0.155138, 5169, 365, 2889, -1726, -3116, 1263
0.155273, 5169, 365, 2889, -1726, -3116, 1263
0.155408, 5169, 365, 2889, -1726, -3116, 1263
0.155542, 5169, 365, 2889, -1726, -3116, 1263
0.155677, 5169, 365, 2889, -1726, -3116, 1263
0.155811, 5169, 365, 2889, -1726, -3116, 1263
0.155946, 5169, 365, 2889, -1726, -3116, 1263
0.156081, 5169, 365, 2889, -1726, -3116, 1263
0.156215, 4374, 300, 2820, -1074, -2954, -2024
0.156350, 4374, 300, 2820, -1074, -2954, -2024
0.156485, 4374, 300, 2820, -1074, -2954, -2024
0.156619, 4374, 300, 2820, -1074, -2954, -2024
0.156754, 4374, 300, 2820, -1074, -2954, -2024
0.156889, 4374, 300, 2820, -1074, -2954, -2024
0.157023, 4374, 300, 2820, -1074, -2954, -2024
0.157158, 2374, 73, 2408, -97, -2022, -4470
0.157293, 2374, 73, 2408, -97, -2022, -4470
0.157427, 2374, 73, 2408, -97, -2022, -4470
0.157562, 2374, 73, 2408, -97, -2022, -4470
0.157696, 2374, 73, 2408, -97, -2022, -4470
0.157831, 2374, 73, 2408, -97, -2022, -4470
0.157966, 2374, 73, 2408, -97, -2022, -4470
0.158100, 2374, 73, 2408, -97, -2022, -4470
0.158235, 251, 158, 2077, 975, -580, -5386
0.158370, 251, 158, 2077, 975, -580, -5386
0.158505, 251, 158, 2077, 975, -580, -5386
0.158639, 251, 158, 2077, 975, -580, -5386
0.158774, 251, 158, 2077, 975, -580, -5386
0.158909, 251, 158, 2077, 975, -580, -5386
0.159044, 251, 158, 2077, 975, -580, -5386
0.159178, 460, 769, 1911, 2004, 889, -5212
0.159313, 460, 769, 1911, 2004, 889, -5212
0.159448, 460, 769, 1911, 2004, 889, -5212
0.159582, 460, 769, 1911, 2004, 889, -5212
0.159717, 460, 769, 1911, 2004, 889, -5212
0.159851, 460, 769, 1911, 2004, 889, -5212
0.159986, 460, 769, 1911, 2004, 889, -5212
0.160121, 460, 769, 1911, 2004, 889, -5212
0.160255, 3270, 1498, 1954, 2569, 2038, -5801
0.160390, 3270, 1498, 1954, 2569, 2038, -5801
0.160525, 3270, 1498, 1954, 2569, 2038, -5801
0.160659, 3270, 1498, 1954, 2569, 2038, -5801
0.160794, 3270, 1498, 1954, 2569, 2038, -5801
0.160929, 3270, 1498, 1954, 2569, 2038, -5801
0.161063, 3270, 1498, 1954, 2569, 2038, -5801
0.161198, 1790, 642, 4257, 3274, 3285, -7506
0.161333, 1790, 642, 4257, 3274, 3285, -7506
0.161467, 1790, 642, 4257, 3274, 3285, -7506
0.161602, 1790, 642, 4257, 3274, 3285, -7506
0.161736, 1790, 642, 4257, 3274, 3285, -7506
0.161871, 1790, 642, 4257, 3274, 3285, -7506
0.162005, 1790, 642, 4257, 3274, 3285, -7506
0.162140, 1790, 642, 4257, 3274, 3285, -7506
0.162274, -1528, -82, 5144, 5266, 4618, -7374
0.162409, -1528, -82, 5144, 5266, 4618, -7374
0.162544, -1528, -82, 5144, 5266, 4618, -7374
0.162678, -1528, -82, 5144, 5266, 4618, -7374
0.162813, -1528, -82, 5144, 5266, 4618, -7374
0.162951, -1528, -82, 5144, 5266, 4618, -7374
0.163085, -1528, -82, 5144, 5266, 4618, -7374
0.163220, 782, 778, 711, 6359, 5130, -6080
0.163361, 782, 778, 711, 6359, 5130, -6080
0.163497, 782, 778, 711, 6359, 5130, -6080
0.163631, 782, 778, 711, 6359, 5130, -6080
0.163766, 782, 778, 711, 6359, 5130, -6080
0.163900, 782, 778, 711, 6359, 5130, -6080
0.164035, 782, 778, 711, 6359, 5130, -6080
0.164169, 782, 778, 711, 6359, 5130, -6080
0.164303, 2079, 408, -2624, 4347, 4728, -6836
0.164438, 2079, 408, -2624, 4347, 4728, -6836
0.164573, 2079, 408, -2624, 4347, 4728, -6836
0.164707, 2079, 408, -2624, 4347, 4728, -6836
0.164842, 2079, 408, -2624, 4347, 4728, -6836
0.164976, 2079, 408, -2624, 4347, 4728, -6836
0.165111, 2079, 408, -2624, 4347, 4728, -6836
0.165245, -725, -62, -1451, 1539, 4172, -7580
0.165380, -725, -62, -1451, 1539, 4172, -7580
0.165514, -725, -62, -1451, 1539, 4172, -7580
0.165649, -725, -62, -1451, 1539, 4172, -7580
0.165783, -725, -62, -1451, 1539, 4172, -7580
0.165918, -725, -62, -1451, 1539, 4172, -7580
0.166052, -725, -62, -1451, 1539, 4172, -7580
0.166187, -725, -62, -1451, 1539, 4172, -7580
0.166321, -4024, 184, 790, 83, 4124, -6126
0.166456, -4024, 184, 790, 83, 4124, -6126
0.166591, -4024, 184, 790, 83, 4124, -6126
0.166725, -4024, 184, 790, 83, 4124, -6126
0.166860, -4024, 184, 790, 83, 4124, -6126
0.166995, -4024, 184, 790, 83, 4124, -6126
0.167129, -4024, 184, 790, 83, 4124, -6126
0.167264, -6987, 76, 2286, -141, 4500, -2717
0.167398, -6987, 76, 2286, -141, 4500, -2717
0.167533, -6987, 76, 2286, -141, 4500, -2717
0.167667, -6987, 76, 2286, -141, 4500, -2717
0.167802, -6987, 76, 2286, -141, 4500, -2717
0.167936, -6987, 76, 2286, -141, 4500, -2717
0.168071, -6987, 76, 2286, -141, 4500, -2717
0.168205, -6987, 76, 2286, -141, 4500, -2717
0.168340, -7517, 316, 2375, 236, 4142, 2049
0.168474, -7517, 316, 2375, 236, 4142, 2049
0.168609, -7517, 316, 2375, 236, 4142, 2049
0.168743, -7517, 316, 2375, 236, 4142, 2049
0.168878, -7517, 316, 2375, 236, 4142, 2049
0.169012, -7517, 316, 2375, 236, 4142, 2049
0.169147, -7517, 316, 2375, 236, 4142, 2049
0.169282, -4956, 490, 1858, 64, 2261, 6343
0.169416, -4956, 490, 1858, 64, 2261, 6343
0.169551, -4956, 490, 1858, 64, 2261, 6343
0.169686, -4956, 490, 1858, 64, 2261, 6343
0.169820, -4956, 490, 1858, 64, 2261, 6343
0.169955, -4956, 490, 1858, 64, 2261, 6343
0.170089, -4956, 490, 1858, 64, 2261, 6343
0.170224, -4956, 490, 1858, 64, 2261, 6343
0.170358, -1150, 441, 2122, -845, -314, 8539
0.170493, -1150, 441, 2122, -845, -314, 8539
0.170628, -1150, 441, 2122, -845, -314, 8539
0.170763, -1150, 441, 2122, -845, -314, 8539
0.170898, -1150, 441, 2122, -845, -314, 8539
0.171033, -1150, 441, 2122, -845, -314, 8539
0.171167, -1150, 441, 2122, -845, -314, 8539
0.171302, 696, 510, 2423, -1809, -2201, 8621
0.171436, 696, 510, 2423, -1809, -2201, 8621
0.171571, 696, 510, 2423, -1809, -2201, 8621
0.171708, 696, 510, 2423, -1809, -2201, 8621
0.171838, 696, 510, 2423, -1809, -2201, 8621
0.171972, 696, 510, 2423, -1809, -2201, 8621
0.172107, 696, 510, 2423, -1809, -2201, 8621
0.172242, 696, 510, 2423, -1809, -2201, 8621
0.172376, 633, 512, 2279, -2658, -3044, 8102
0.172511, 633, 512, 2279, -2658, -3044, 8102
0.172646, 633, 512, 2279, -2658, -3044, 8102
0.172780, 633, 512, 2279, -2658, -3044, 8102
0.172915, 633, 512, 2279, -2658, -3044, 8102
0.173049, 633, 512, 2279, -2658, -3044, 8102
0.173184, 633, 512, 2279, -2658, -3044, 8102
0.173319, 633, 512, 2279, -2658, -3044, 8102
0.173453, 1387, 406, 2127, -3268, -3317, 7618
0.173588, 1387, 406, 2127, -3268, -3317, 7618
0.173723, 1387, 406, 2127, -3268, -3317, 7618
0.173857, 1387, 406, 2127, -3268, -3317, 7618
0.173992, 1387, 406, 2127, -3268, -3317, 7618
0.174127, 1387, 406, 2127, -3268, -3317, 7618
0.174261, 1387, 406, 2127, -3268, -3317, 7618
0.174396, 2881, 261, 2058, -3506, -3332, 6406
0.174531, 2881, 261, 2058, -3506, -3332, 6406
0.174665, 2881, 261, 2058, -3506, -3332, 6406
0.174800, 2881, 261, 2058, -3506, -3332, 6406
0.174935, 2881, 261, 2058, -3506, -3332, 6406
0.175070, 2881, 261, 2058, -3506, -3332, 6406
0.175204, 2881, 261, 2058, -3506, -3332, 6406
0.175339, 2881, 261, 2058, -3506, -3332, 6406
0.175473, 3691, 95, 1986, -3463, -3115, 4353
0.175614, 3691, 95, 1986, -3463, -3115, 4353
0.175749, 3691, 95, 1986, -3463, -3115, 4353
0.175884, 3691, 95, 1986, -3463, -3115, 4353
0.176018, 3691, 95, 1986, -3463, -3115, 4353
0.176153, 3691, 95, 1986, -3463, -3115, 4353
0.176287, 3691, 95, 1986, -3463, -3115, 4353
0.176422, 4185, -310, 1998, -3237, -2693, 1978
0.176557, 4185, -310, 1998, -3237, -2693, 1978
0.176691, 4185, -310, 1998, -3237, -2693, 1978
0.176826, 4185, -310, 1998, -3237, -2693, 1978
0.176961, 4185, -310, 1998, -3237, -2693, 1978
0.177096, 4185, -310, 1998, -3237, -2693, 1978
0.177230, 4185, -310, 1998, -3237, -2693, 1978
0.177365, 4185, -310, 1998, -3237, -2693, 1978
0.177500, 4328, -868, 2238, -2664, -2056, -748
0.177634, 4328, -868, 2238, -2664, -2056, -748
0.177769, 4328, -868, 2238, -2664, -2056, -748
0.177904, 4328, -868, 2238, -2664, -2056, -748
0.178038, 4328, -868, 2238, -2664, -2056, -748
0.178173, 4328, -868, 2238, -2664, -2056, -748
0.178308, 4328, -868, 2238, -2664, -2056, -748
0.178442, 2969, -357, 1471, -1899, -1002, -3306
0.178577, 2969, -357, 1471, -1899, -1002, -3306
0.178712, 2969, -357, 1471, -1899, -1002, -3306
0.178847, 2969, -357, 1471, -1899, -1002, -3306
0.178982, 2969, -357, 1471, -1899, -1002, -3306
0.179117, 2969, -357, 1471, -1899, -1002, -3306
0.179251, 2969, -357, 1471, -1899, -1002, -3306
0.179386, 2969, -357, 1471, -1899, -1002, -3306
0.179521, 1106, 403, 270, -1809, 507, -4689
0.179656, 1106, 403, 270, -1809, 507, -4689
0.179790, 1106, 403, 270, -1809, 507, -4689
0.179925, 1106, 403, 270, -1809, 507, -4689
0.180059, 1106, 403, 270, -1809, 507, -4689
0.180194, 1106, 403, 270, -1809, 507, -4689
0.180329, 1106, 403, 270, -1809, 507, -4689
0.180463, -452, 268, 532, -2178, 2155, -4850
0.180598, -452, 268, 532, -2178, 2155, -4850
0.180733, -452, 268, 532, -2178, 2155, -4850
0.180868, -452, 268, 532, -2178, 2155, -4850
0.181003, -452, 268, 532, -2178, 2155, -4850
0.181137, -452, 268, 532, -2178, 2155, -4850
0.181272, -452, 268, 532, -2178, 2155, -4850
0.181407, -452, 268, 532, -2178, 2155, -4850
0.181541, -562, 817, 1153, -2288, 3503, -4135
0.181676, -562, 817, 1153, -2288, 3503, -4135
0.181811, -562, 817, 1153, -2288, 3503, -4135
0.181945, -562, 817, 1153, -2288, 3503, -4135
0.182080, -562, 817, 1153, -2288, 3503, -4135
0.182215, -562, 817, 1153, -2288, 3503, -4135
0.182349, -562, 817, 1153, -2288, 3503, -4135
0.182484, 666, 1032, 2932, -2052, 4365, -3602
0.182619, 666, 1032, 2932, -2052, 4365, -3602
0.182754, 666, 1032, 2932, -2052, 4365, -3602
0.182889, 666, 1032, 2932, -2052, 4365, -3602
0.183023, 666, 1032, 2932, -2052, 4365, -3602
0.183158, 666, 1032, 2932, -2052, 4365, -3602
0.183293, 666, 1032, 2932, -2052, 4365, -3602
0.183427, 666, 1032, 2932, -2052, 4365, -3602
0.183562, 1365, 451, 4246, -1031, 4812, -3872
0.183697, 1365, 451, 4246, -1031, 4812, -3872
0.183831, 1365, 451, 4246, -1031, 4812, -3872
0.183966, 1365, 451, 4246, -1031, 4812, -3872
0.184101, 1365, 451, 4246, -1031, 4812, -3872
0.184235, 1365, 451, 4246, -1031, 4812, -3872
0.184370, 1365, 451, 4246, -1031, 4812, -3872
0.184505, 251, 291, 2678, -149, 4863, -4273
0.184639, 251, 291, 2678, -149, 4863, -4273
0.184774, 251, 291, 2678, -149, 4863, -4273
0.184909, 251, 291, 2678, -149, 4863, -4273
0.185043, 251, 291, 2678, -149, 4863, -4273
0.185178, 251, 291, 2678, -149, 4863, -4273
0.185312, 251, 291, 2678, -149, 4863, -4273
0.185447, 251, 291, 2678, -149, 4863, -4273
0.185582, -3382, 274, 1123, -260, 4585, -3438
0.185717, -3382, 274, 1123, -260, 4585, -3438
0.185851, -3382, 274, 1123, -260, 4585, -3438
0.185986, -3382, 274, 1123, -260, 4585, -3438
0.186121, -3382, 274, 1123, -260, 4585, -3438
0.186255, -3382, 274, 1123, -260, 4585, -3438
0.186390, -3382, 274, 1123, -260, 4585, -3438
0.186525, -4193, 977, 5, -1013, 3891, -771
0.186660, -4193, 977, 5, -1013, 3891, -771
0.186794, -4193, 977, 5, -1013, 3891, -771
0.186929, -4193, 977, 5, -1013, 3891, -771
0.187064, -4193, 977, 5, -1013, 3891, -771
0.187198, -4193, 977, 5, -1013, 3891, -771
0.187333, -4193, 977, 5, -1013, 3891, -771
0.187467, -4193, 977, 5, -1013, 3891, -771
0.187602, -1439, 972, 526, -2354, 2987, 1517
0.187742, -1439, 972, 526, -2354, 2987, 1517
0.187877, -1439, 972, 526, -2354, 2987, 1517
0.188011, -1439, 972, 526, -2354, 2987, 1517
0.188146, -1439, 972, 526, -2354, 2987, 1517
0.188281, -1439, 972, 526, -2354, 2987, 1517
0.188415, -1439, 972, 526, -2354, 2987, 1517
0.188550, 956, 449, 2007, -3259, 2203, 2050
0.188685, 956, 449, 2007, -3259, 2203, 2050
0.188819, 956, 449, 2007, -3259, 2203, 2050
0.188954, 956, 449, 2007, -3259, 2203, 2050
0.189088, 956, 449, 2007, -3259, 2203, 2050
0.189223, 956, 449, 2007, -3259, 2203, 2050
0.189358, 956, 449, 2007, -3259, 2203, 2050
0.189492, 956, 449, 2007, -3259, 2203, 2050
0.189627, 3763, 1149, 895, -3986, 1309, 910
0.189762, 3763, 1149, 895, -3986, 1309, 910
0.189897, 3763, 1149, 895, -3986, 1309, 910
0.190031, 3763, 1149, 895, -3986, 1309, 910
0.190166, 3763, 1149, 895, -3986, 1309, 910
0.190300, 3763, 1149, 895, -3986, 1309, 910
0.190435, 3763, 1149, 895, -3986, 1309, 910
0.190570, 2096, 362, 1504, -5165, 554, -1280
0.190705, 2096, 362, 1504, -5165, 554, -1280
0.190840, 2096, 362, 1504, -5165, 554, -1280
0.190974, 2096, 362, 1504, -5165, 554, -1280
0.191109, 2096, 362, 1504, -5165, 554, -1280
0.191244, 2096, 362, 1504, -5165, 554, -1280
0.191378, 2096, 362, 1504, -5165, 554, -1280
0.191513, 2096, 362, 1504, -5165, 554, -1280
0.191647, -1504, -886, 4992, -4449, 330, -1738
0.191782, -1504, -886, 4992, -4449, 330, -1738
0.191917, -1504, -886, 4992, -4449, 330, -1738
0.192052, -1504, -886, 4992, -4449, 330, -1738
0.192186, -1504, -886, 4992, -4449, 330, -1738
0.192321, -1504, -886, 4992, -4449, 330, -1738
0.192455, -1504, -886, 4992, -4449, 330, -1738
0.192590, 514, -23, 5668, -1569, 463, -1026
0.192725, 514, -23, 5668, -1569, 463, -1026
0.192859, 514, -23, 5668, -1569, 463, -1026
0.192994, 514, -23, 5668, -1569, 463, -1026
0.193129, 514, -23, 5668, -1569, 463, -1026
0.193263, 514, -23, 5668, -1569, 463, -1026
0.193398, 514, -23, 5668, -1569, 463, -1026
0.193532, 514, -23, 5668, -1569, 463, -1026
0.193667, 2329, 457, 4511, 867, 857, -1950
0.193802, 2329, 457, 4511, 867, 857, -1950
0.193937, 2329, 457, 4511, 867, 857, -1950
0.194071, 2329, 457, 4511, 867, 857, -1950
0.194206, 2329, 457, 4511, 867, 857, -1950
0.194340, 2329, 457, 4511, 867, 857, -1950
0.194475, 2329, 457, 4511, 867, 857, -1950
0.194610, 2329, 457, 4511, 867, 857, -1950
0.194744, 765, 377, 3368, 2283, 1270, -3242
0.194880, 765, 377, 3368, 2283, 1270, -3242
0.195014, 765, 377, 3368, 2283, 1270, -3242
0.195149, 765, 377, 3368, 2283, 1270, -3242
0.195284, 765, 377, 3368, 2283, 1270, -3242
0.195418, 765, 377, 3368, 2283, 1270, -3242
0.195553, 765, 377, 3368, 2283, 1270, -3242
0.195687, 793, 1003, 2947, 3172, 1429, -3474
0.195822, 793, 1003, 2947, 3172, 1429, -3474
0.195957, 793, 1003, 2947, 3172, 1429, -3474
0.196091, 793, 1003, 2947, 3172, 1429, -3474
0.196226, 793, 1003, 2947, 3172, 1429, -3474
0.196361, 793, 1003, 2947, 3172, 1429, -3474
0.196495, 793, 1003, 2947, 3172, 1429, -3474
0.196630, 793, 1003, 2947, 3172, 1429, -3474
0.196764, 4444, 1787, 4353, 4239, 1546, -4567
0.196899, 4444, 1787, 4353, 4239, 1546, -4567
0.197034, 4444, 1787, 4353, 4239, 1546, -4567
0.197168, 4444, 1787, 4353, 4239, 1546, -4567
0.197303, 4444, 1787, 4353, 4239, 1546, -4567
0.197437, 4444, 1787, 4353, 4239, 1546, -4567
0.197572, 4444, 1787, 4353, 4239, 1546, -4567
0.197707, 2842, 510, 2375, 5109, 2228, -7367
0.197841, 2842, 510, 2375, 5109, 2228, -7367
0.197976, 2842, 510, 2375, 5109, 2228, -7367
0.198111, 2842, 510, 2375, 5109, 2228, -7367
0.198245, 2842, 510, 2375, 5109, 2228, -7367
0.198380, 2842, 510, 2375, 5109, 2228, -7367
0.198514, 2842, 510, 2375, 5109, 2228, -7367
0.198649, 2842, 510, 2375, 5109, 2228, -7367
0.198784, -6609, -1205, -2216, 3722, 3208, -7091
0.198919, -6609, -1205, -2216, 3722, 3208, -7091
0.199053, -6609, -1205, -2216, 3722, 3208, -7091
0.199188, -6609, -1205, -2216, 3722, 3208, -7091
0.199323, -6609, -1205, -2216, 3722, 3208, -7091
0.199457, -6609, -1205, -2216, 3722, 3208, -7091
0.199592, -6609, -1205, -2216, 3722, 3208, -7091
0.199727, -8929, 163, -1704, 1472, 3196, -1561
0.199861, -8929, 163, -1704, 1472, 3196, -1561
0.200000, -8929, 163, -1704, 1472, 3196, -1561
0.200135, -8929, 163, -1704, 1472, 3196, -1561
0.200269, -8929, 163, -1704, 1472, 3196, -1561
0.200404, -8929, 163, -1704, 1472, 3196, -1561
0.200539, -8929, 163, -1704, 1472, 3196, -1561
0.200673, -8929, 163, -1704, 1472, 3196, -1561
0.200808, -2556, 1247, 1837, 864, 2251, 3116
0.200943, -2556, 1247, 1837, 864, 2251, 3116
0.201077, -2556, 1247, 1837, 864, 2251, 3116
0.201212, -2556, 1247, 1837, 864, 2251, 3116
0.201347, -2556, 1247, 1837, 864, 2251, 3116
0.201481, -2556, 1247, 1837, 864, 2251, 3116
0.201616, -2556, 1247, 1837, 864, 2251, 3116
0.201751, 2046, 907, 3741, 870, 1521, 3665
0.201885, 2046, 907, 3741, 870, 1521, 3665
0.202020, 2046, 907, 3741, 870, 1521, 3665
0.202155, 2046, 907, 3741, 870, 1521, 3665
0.202289, 2046, 907, 3741, 870, 1521, 3665
0.202424, 2046, 907, 3741, 870, 1521, 3665
0.202559, 2046, 907, 3741, 870, 1521, 3665
0.202693, 2046, 907, 3741, 870, 1521, 3665
0.202828, 3603, 486, 3552, 845, 963, 2090
0.202963, 3603, 486, 3552, 845, 963, 2090
0.203097, 3603, 486, 3552, 845, 963, 2090
0.203232, 3603, 486, 3552, 845, 963, 2090
0.203367, 3603, 486, 3552, 845, 963, 2090
0.203501, 3603, 486, 3552, 845, 963, 2090
0.203636, 3603, 486, 3552, 845, 963, 2090
0.203770, 3392, -27, 2144, 807, -190, -51
0.203905, 3392, -27, 2144, 807, -190, -51
0.204040, 3392, -27, 2144, 807, -190, -51
0.204174, 3392, -27, 2144, 807, -190, -51
0.204309, 3392, -27, 2144, 807, -190, -51
0.204444, 3392, -27, 2144, 807, -190, -51
0.204578, 3392, -27, 2144, 807, -190, -51
0.204713, 3392, -27, 2144, 807, -190, -51
0.204848, 1794, -1, 1843, 532, -1433, -1840
0.204982, 1794, -1, 1843, 532, -1433, -1840
0.205117, 1794, -1, 1843, 532, -1433, -1840
0.205252, 1794, -1, 1843, 532, -1433, -1840
0.205386, 1794, -1, 1843, 532, -1433, -1840
0.205521, 1794, -1, 1843, 532, -1433, -1840
0.205655, 1794, -1, 1843, 532, -1433, -1840
0.205790, 464, -60, 2626, 877, -1520, -2822
0.205925, 464, -60, 2626, 877, -1520, -2822
0.206059, 464, -60, 2626, 877, -1520, -2822
0.206194, 464, -60, 2626, 877, -1520, -2822
0.206329, 464, -60, 2626, 877, -1520, -2822
0.206463, 464, -60, 2626, 877, -1520, -2822
0.206598, 464, -60, 2626, 877, -1520, -2822
0.206732, 464, -60, 2626, 877, -1520, -2822
0.206867, 586, 213, 2810, 2043, -581, -3160
0.207002, 586, 213, 2810, 2043, -581, -3160
0.207137, 586, 213, 2810, 2043, -581, -3160
0.207271, 586, 213, 2810, 2043, -581, -3160
0.207406, 586, 213, 2810, 2043, -581, -3160
0.207541, 586, 213, 2810, 2043, -581, -3160
0.207675, 586, 213, 2810, 2043, -581, -3160
0.207810, 524, 664, 934, 2646, 391, -3522
0.207945, 524, 664, 934, 2646, 391, -3522
0.208079, 524, 664, 934, 2646, 391, -3522
0.208214, 524, 664, 934, 2646, 391, -3522
0.208349, 524, 664, 934, 2646, 391, -3522
0.208483, 524, 664, 934, 2646, 391, -3522
0.208618, 524, 664, 934, 2646, 391, -3522
0.208753, 524, 664, 934, 2646, 391, -3522
0.208887, -2219, 444, -751, 1701, 1042, -3300
0.209022, -2219, 444, -751, 1701, 1042, -3300
0.209157, -2219, 444, -751, 1701, 1042, -3300
0.209291, -2219, 444, -751, 1701, 1042, -3300
0.209426, -2219, 444, -751, 1701, 1042, -3300
0.209561, -2219, 444, -751, 1701, 1042, -3300
0.209695, -2219, 444, -751, 1701, 1042, -3300
0.209830, -4735, 289, 448, 578, 1461, -1068
0.209965, -4735, 289, 448, 578, 1461, -1068
0.210099, -4735, 289, 448, 578, 1461, -1068
0.210234, -4735, 289, 448, 578, 1461, -1068
0.210369, -4735, 289, 448, 578, 1461, -1068
0.210503, -4735, 289, 448, 578, 1461, -1068
0.210638, -4735, 289, 448, 578, 1461, -1068
0.210773, -4735, 289, 448, 578, 1461, -1068
0.210908, -3657, 377, 1965, 289, 1701, 2105
0.211042, -3657, 377, 1965, 289, 1701, 2105
0.211177, -3657, 377, 1965, 289, 1701, 2105
0.211311, -3657, 377, 1965, 289, 1701, 2105
0.211446, -3657, 377, 1965, 289, 1701, 2105
0.211580, -3657, 377, 1965, 289, 1701, 2105
0.211714, -3657, 377, 1965, 289, 1701, 2105
0.211849, -2249, 490, 2457, 65, 1797, 4345
0.211983, -2249, 490, 2457, 65, 1797, 4345
0.212118, -2249, 490, 2457, 65, 1797, 4345
0.212252, -2249, 490, 2457, 65, 1797, 4345
0.212387, -2249, 490, 2457, 65, 1797, 4345
0.212521, -2249, 490, 2457, 65, 1797, 4345
0.212662, -2249, 490, 2457, 65, 1797, 4345
0.212797, -2249, 490, 2457, 65, 1797, 4345
0.212931, -1525, 543, 2366, -278, 1450, 5799
0.213066, -1525, 543, 2366, -278, 1450, 5799
0.213200, -1525, 543, 2366, -278, 1450, 5799
0.213335, -1525, 543, 2366, -278, 1450, 5799
0.213469, -1525, 543, 2366, -278, 1450, 5799
0.213603, -1525, 543, 2366, -278, 1450, 5799
0.213738, -1525, 543, 2366, -278, 1450, 5799
0.213872, 970, 371, 2071, -719, 355, 6401
0.214007, 970, 371, 2071, -719, 355, 6401
0.214141, 970, 371, 2071, -719, 355, 6401
0.214276, 970, 371, 2071, -719, 355, 6401
0.214410, 970, 371, 2071, -719, 355, 6401
0.214545, 970, 371, 2071, -719, 355, 6401
0.214679, 970, 371, 2071, -719, 355, 6401
0.214813, 970, 371, 2071, -719, 355, 6401
0.214952, 4131, 145, 2153, -1330, -1008, 5135
0.215087, 4131, 145, 2153, -1330, -1008, 5135
0.215222, 4131, 145, 2153, -1330, -1008, 5135
0.215357, 4131, 145, 2153, -1330, -1008, 5135
0.215491, 4131, 145, 2153, -1330, -1008, 5135
0.215626, 4131, 145, 2153, -1330, -1008, 5135
0.215760, 4131, 145, 2153, -1330, -1008, 5135
0.215895, 4131, 145, 2153, -1330, -1008, 5135
0.216029, 5407, 78, 2355, -1711, -1835, 2091
0.216164, 5407, 78, 2355, -1711, -1835, 2091
0.216298, 5407, 78, 2355, -1711, -1835, 2091
0.216433, 5407, 78, 2355, -1711, -1835, 2091
0.216567, 5407, 78, 2355, -1711, -1835, 2091
0.216702, 5407, 78, 2355, -1711, -1835, 2091
0.216836, 5407, 78, 2355, -1711, -1835, 2091
0.216971, 4466, 205, 2458, -1570, -1867, -1254
0.217105, 4466, 205, 2458, -1570, -1867, -1254
0.217240, 4466, 205, 2458, -1570, -1867, -1254
0.217374, 4466, 205, 2458, -1570, -1867, -1254
0.217509, 4466, 205, 2458, -1570, -1867, -1254
0.217643, 4466, 205, 2458, -1570, -1867, -1254
0.217778, 4466, 205, 2458, -1570, -1867, -1254
0.217913, 4466, 205, 2458, -1570, -1867, -1254
0.218047, 3408, 373, 2526, -883, -1341, -3842
0.218182, 3408, 373, 2526, -883, -1341, -3842
0.218316, 3408, 373, 2526, -883, -1341, -3842
0.218451, 3408, 373, 2526, -883, -1341, -3842
0.218585, 3408, 373, 2526, -883, -1341, -3842
0.218720, 3408, 373, 2526, -883, -1341, -3842
0.218855, 3408, 373, 2526, -883, -1341, -3842
0.218989, 2679, 278, 2262, 125, -429, -5875
0.219124, 2679, 278, 2262, 125, -429, -5875
0.219259, 2679, 278, 2262, 125, -429, -5875
0.219393, 2679, 278, 2262, 125, -429, -5875
0.219528, 2679, 278, 2262, 125, -429, -5875
0.219662, 2679, 278, 2262, 125, -429, -5875
0.219797, 2679, 278, 2262, 125, -429, -5875
0.219931, 2679, 278, 2262, 125, -429, -5875
0.220066, 999, 98, 2010, 1137, 800, -7177
0.220200, 999, 98, 2010, 1137, 800, -7177
0.220335, 999, 98, 2010, 1137, 800, -7177
0.220469, 999, 98, 2010, 1137, 800, -7177
0.220604, 999, 98, 2010, 1137, 800, -7177
0.220739, 999, 98, 2010, 1137, 800, -7177
0.220873, 999, 98, 2010, 1137, 800, -7177
0.221008, -755, 574, 1823, 2074, 2094, -7204
0.221143, -755, 574, 1823, 2074, 2094, -7204
0.221277, -755, 574, 1823, 2074, 2094, -7204
0.221412, -755, 574, 1823, 2074, 2094, -7204
0.221547, -755, 574, 1823, 2074, 2094, -7204
0.221681, -755, 574, 1823, 2074, 2094, -7204
0.221816, -755, 574, 1823, 2074, 2094, -7204
0.221951, -755, 574, 1823, 2074, 2094, -7204
0.222085, -2443, 1101, 1228, 2527, 3292, -6052
0.222220, -2443, 1101, 1228, 2527, 3292, -6052
0.222355, -2443, 1101, 1228, 2527, 3292, -6052
0.222489, -2443, 1101, 1228, 2527, 3292, -6052
0.222624, -2443, 1101, 1228, 2527, 3292, -6052
0.222759, -2443, 1101, 1228, 2527, 3292, -6052
0.222894, -2443, 1101, 1228, 2527, 3292, -6052
0.223028, -3822, 642, 1600, 2422, 4244, -3775
0.223163, -3822, 642, 1600, 2422, 4244, -3775
0.223298, -3822, 642, 1600, 2422, 4244, -3775
0.223433, -3822, 642, 1600, 2422, 4244, -3775
0.223567, -3822, 642, 1600, 2422, 4244, -3775
0.223702, -3822, 642, 1600, 2422, 4244, -3775
0.223836, -3822, 642, 1600, 2422, 4244, -3775
0.223971, -3822, 642, 1600, 2422, 4244, -3775
0.224106, -2169, -34, 3122, 2579, 4483, -1157
0.224240, -2169, -34, 3122, 2579, 4483, -1157
0.224375, -2169, -34, 3122, 2579, 4483, -1157
0.224510, -2169, -34, 3122, 2579, 4483, -1157
0.224644, -2169, -34, 3122, 2579, 4483, -1157
0.224779, -2169, -34, 3122, 2579, 4483, -1157
0.224918, -2169, -34, 3122, 2579, 4483, -1157
0.225053, 1574, 405, 3954, 3213, 3884, -238
0.225188, 1574, 405, 3954, 3213, 3884, -238
0.225322, 1574, 405, 3954, 3213, 3884, -238
0.225457, 1574, 405, 3954, 3213, 3884, -238
0.225591, 1574, 405, 3954, 3213, 3884, -238
0.225726, 1574, 405, 3954, 3213, 3884, -238
0.225860, 1574, 405, 3954, 3213, 3884, -238
0.225995, 1574, 405, 3954, 3213, 3884, -238
0.226130, 2295, 1007, 2453, 3404, 3016, -1413
0.226264, 2295, 1007, 2453, 3404, 3016, -1413
0.226399, 2295, 1007, 2453, 3404, 3016, -1413
0.226534, 2295, 1007, 2453, 3404, 3016, -1413
0.226668, 2295, 1007, 2453, 3404, 3016, -1413
0.226803, 2295, 1007, 2453, 3404, 3016, -1413
0.226938, 2295, 1007, 2453, 3404, 3016, -1413
0.227073, -1768, 491, -111, 2261, 2292, -2145
0.227207, -1768, 491, -111, 2261, 2292, -2145
0.227342, -1768, 491, -111, 2261, 2292, -2145
0.227477, -1768, 491, -111, 2261, 2292, -2145
0.227611, -1768, 491, -111, 2261, 2292, -2145
0.227746, -1768, 491, -111, 2261, 2292, -2145
0.227880, -1768, 491, -111, 2261, 2292, -2145
0.228015, -1768, 491, -111, 2261, 2292, -2145
0.228150, -5315, 208, -588, 499, 1482, -196
0.228285, -5315, 208, -588, 499, 1482, -196
0.228419, -5315, 208, -588, 499, 1482, -196
0.228554, -5315, 208, -588, 499, 1482, -196
0.228689, -5315, 208, -588, 499, 1482, -196
0.228823, -5315, 208, -588, 499, 1482, -196
0.228958, -5315, 208, -588, 499, 1482, -196
0.229092, -4173, 602, 984, -568, 469, 3114
0.229227, -4173, 602, 984, -568, 469, 3114
0.229362, -4173, 602, 984, -568, 469, 3114
0.229496, -4173, 602, 984, -568, 469, 3114
0.229631, -4173, 602, 984, -568, 469, 3114
0.229766, -4173, 602, 984, -568, 469, 3114
0.229900, -4173, 602, 984, -568, 469, 3114
0.230035, -4173, 602, 984, -568, 469, 3114
0.230169, -749, 702, 2228, -972, -413, 5067
0.230304, -749, 702, 2228, -972, -413, 5067
0.230439, -749, 702, 2228, -972, -413, 5067
0.230574, -749, 702, 2228, -972, -413, 5067
0.230708, -749, 702, 2228, -972, -413, 5067
0.230843, -749, 702, 2228, -972, -413, 5067
0.230978, -749, 702, 2228, -972, -413, 5067
0.231112, 3095, 690, 2539, -1264, -1232, 4710
0.231247, 3095, 690, 2539, -1264, -1232, 4710
0.231382, 3095, 690, 2539, -1264, -1232, 4710
0.231517, 3095, 690, 2539, -1264, -1232, 4710
0.231651, 3095, 690, 2539, -1264, -1232, 4710
0.231786, 3095, 690, 2539, -1264, -1232, 4710
0.231920, 3095, 690, 2539, -1264, -1232, 4710
0.232055, 3095, 690, 2539, -1264, -1232, 4710
0.232190, 6259, 733, 2640, -1411, -2200, 2008
0.232324, 6259, 733, 2640, -1411, -2200, 2008
0.232459, 6259, 733, 2640, -1411, -2200, 2008
0.232594, 6259, 733, 2640, -1411, -2200, 2008
0.232728, 6259, 733, 2640, -1411, -2200, 2008
0.232863, 6259, 733, 2640, -1411, -2200, 2008
0.232997, 6259, 733, 2640, -1411, -2200, 2008
0.233132, 4914, 283, 2991, -1177, -2690, -1897
0.233267, 4914, 283, 2991, -1177, -2690, -1897
0.233401, 4914, 283, 2991, -1177, -2690, -1897
0.233536, 4914, 283, 2991, -1177, -2690, -1897
0.233671, 4914, 283, 2991, -1177, -2690, -1897
0.233805, 4914, 283, 2991, -1177, -2690, -1897
0.233940, 4914, 283, 2991, -1177, -2690, -1897
0.234074, 4914, 283, 2991, -1177, -2690, -1897
0.234209, -285, 7, 2018, -562, -2008, -3946
0.234344, -285, 7, 2018, -562, -2008, -3946
0.234478, -285, 7, 2018, -562, -2008, -3946
0.234613, -285, 7, 2018, -562, -2008, -3946
0.234748, -285, 7, 2018, -562, -2008, -3946
0.234883, -285, 7, 2018, -562, -2008, -3946
0.235017, -285, 7, 2018, -562, -2008, -3946
0.235152, -285, 7, 2018, -562, -2008, -3946
0.235292, -3545, 223, 496, -219, -693, -2825
0.235435, -3545, 223, 496, -219, -693, -2825
0.235580, -3545, 223, 496, -219, -693, -2825
0.235721, -3545, 223, 496, -219, -693, -2825
0.235858, -3545, 223, 496, -219, -693, -2825
0.235994, -3545, 223, 496, -219, -693, -2825
0.236130, -3545, 223, 496, -219, -693, -2825
0.236265, -3688, 36, 1900, 70, 396, -388
0.236404, -3688, 36, 1900, 70, 396, -388
0.236544, -3688, 36, 1900, 70, 396, -388
0.236683, -3688, 36, 1900, 70, 396, -388
0.236821, -3688, 36, 1900, 70, 396, -388
0.236960, -3688, 36, 1900, 70, 396, -388
0.237097, -3688, 36, 1900, 70, 396, -388
0.237256, -2496, 42, 3098, 907, 1098, 1905
0.237397, -2496, 42, 3098, 907, 1098, 1905
0.237533, -2496, 42, 3098, 907, 1098, 1905
0.237672, -2496, 42, 3098, 907, 1098, 1905
0.237810, -2496, 42, 3098, 907, 1098, 1905
0.237948, -2496, 42, 3098, 907, 1098, 1905
0.238087, -2496, 42, 3098, 907, 1098, 1905
0.238226, 437, 446, 2211, 1091, 1289, 3197
0.238370, 437, 446, 2211, 1091, 1289, 3197
0.238510, 437, 446, 2211, 1091, 1289, 3197
0.238651, 437, 446, 2211, 1091, 1289, 3197
0.238789, 437, 446, 2211, 1091, 1289, 3197
0.238929, 437, 446, 2211, 1091, 1289, 3197
0.239068, 437, 446, 2211, 1091, 1289, 3197
0.239207, 437, 446, 2211, 1091, 1289, 3197
0.239348, 3385, 373, 2032, 446, 887, 2371
0.239489, 3385, 373, 2032, 446, 887, 2371
0.239629, 3385, 373, 2032, 446, 887, 2371
0.239769, 3385, 373, 2032, 446, 887, 2371
0.239910, 3385, 373, 2032, 446, 887, 2371
0.240049, 3385, 373, 2032, 446, 887, 2371
0.240188, 3385, 373, 2032, 446, 887, 2371
0.240327, 3153, 237, 2424, -65, 332, 225
0.240470, 3153, 237, 2424, -65, 332, 225
0.240609, 3153, 237, 2424, -65, 332, 225
0.240748, 3153, 237, 2424, -65, 332, 225
0.240886, 3153, 237, 2424, -65, 332, 225
0.241025, 3153, 237, 2424, -65, 332, 225
0.241165, 3153, 237, 2424, -65, 332, 225
0.241304, 1967, 609, 2640, -153, 133, -1386
0.241445, 1967, 609, 2640, -153, 133, -1386
0.241583, 1967, 609, 2640, -153, 133, -1386
0.241722, 1967, 609, 2640, -153, 133, -1386
0.241863, 1967, 609, 2640, -153, 133, -1386
0.242002, 1967, 609, 2640, -153, 133, -1386
0.242140, 1967, 609, 2640, -153, 133, -1386
0.242278, 3349, 953, 2857, 356, 198, -2809
0.242420, 3349, 953, 2857, 356, 198, -2809
0.242560, 3349, 953, 2857, 356, 198, -2809
0.242699, 3349, 953, 2857, 356, 198, -2809
0.242842, 3349, 953, 2857, 356, 198, -2809
0.242982, 3349, 953, 2857, 356, 198, -2809
0.243123, 3349, 953, 2857, 356, 198, -2809
0.243263, 3349, 953, 2857, 356, 198, -2809
0.243407, 2593, 178, 3566, 1419, 408, -5046
0.243551, 2593, 178, 3566, 1419, 408, -5046
0.243688, 2593, 178, 3566, 1419, 408, -5046
0.243823, 2593, 178, 3566, 1419, 408, -5046
0.243958, 2593, 178, 3566, 1419, 408, -5046
0.244093, 2593, 178, 3566, 1419, 408, -5046
0.244230, 2593, 178, 3566, 1419, 408, -5046
0.244365, -2407, -165, 3557, 2955, 900, -5655
0.244499, -2407, -165, 3557, 2955, 900, -5655
0.244633, -2407, -165, 3557, 2955, 900, -5655
0.244767, -2407, -165, 3557, 2955, 900, -5655
0.244901, -2407, -165, 3557, 2955, 900, -5655
0.245035, -2407, -165, 3557, 2955, 900, -5655
0.245164, -2407, -165, 3557, 2955, 900, -5655
0.245298, -4015, 1211, 2291, 4337, 1333, -3255
0.245432, -4015, 1211, 2291, 4337, 1333, -3255
0.245561, -4015, 1211, 2291, 4337, 1333, -3255
0.245695, -4015, 1211, 2291, 4337, 1333, -3255
0.245829, -4015, 1211, 2291, 4337, 1333, -3255
0.245963, -4015, 1211, 2291, 4337, 1333, -3255
0.246097, -4015, 1211, 2291, 4337, 1333, -3255
0.246231, -4015, 1211, 2291, 4337, 1333, -3255
0.246365, -2380, 1336, 1625, 4725, 1418, -877
0.246499, -2380, 1336, 1625, 4725, 1418, -877
0.246633, -2380, 1336, 1625, 4725, 1418, -877
0.246767, -2380, 1336, 1625, 4725, 1418, -877
0.246903, -2380, 1336, 1625, 4725, 1418, -877
0.247037, -2380, 1336, 1625, 4725, 1418, -877
0.247171, -2380, 1336, 1625, 4725, 1418, -877
0.247305, -2380, 1336, 1625, 4725, 1418, -877
0.247439, -502, 987, 2043, 4375, 1199, 405
0.247573, -502, 987, 2043, 4375, 1199, 405
0.247707, -502, 987, 2043, 4375, 1199, 405
0.247841, -502, 987, 2043, 4375, 1199, 405
0.247975, -502, 987, 2043, 4375, 1199, 405
0.248104, -502, 987, 2043, 4375, 1199, 405
0.248239, -502, 987, 2043, 4375, 1199, 405
0.248373, 3050, 2075, 2782, 4158, 793, 346
0.248507, 3050, 2075, 2782, 4158, 793, 346
0.248641, 3050, 2075, 2782, 4158, 793, 346
0.248775, 3050, 2075, 2782, 4158, 793, 346
0.248909, 3050, 2075, 2782, 4158, 793, 346
0.249043, 3050, 2075, 2782, 4158, 793, 346
0.249177, 3050, 2075, 2782, 4158, 793, 346
0.249311, 3050, 2075, 2782, 4158, 793, 346
0.249445, 3464, 1546, 1983, 3786, 707, -1506
0.249579, 3464, 1546, 1983, 3786, 707, -1506
0.249713, 3464, 1546, 1983, 3786, 707, -1506
0.249847, 3464, 1546, 1983, 3786, 707, -1506
0.249981, 3464, 1546, 1983, 3786, 707, -1506
0.250143, 3464, 1546, 1983, 3786, 707, -1506
0.250278, 3464, 1546, 1983, 3786, 707, -1506
0.250412, 189, -917, 64, 2514, 962, -2759
0.250546, 189, -917, 64, 2514, 962, -2759
0.250680, 189, -917, 64, 2514, 962, -2759
0.250822, 189, -917, 64, 2514, 962, -2759
0.250957, 189, -917, 64, 2514, 962, -2759
0.251091, 189, -917, 64, 2514, 962, -2759
0.251225, 189, -917, 64, 2514, 962, -2759
0.251358, 189, -917, 64, 2514, 962, -2759
0.251489, -2634, -1605, -95, 1294, 933, -2056
0.251625, -2634, -1605, -95, 1294, 933, -2056
0.251760, -2634, -1605, -95, 1294, 933, -2056
0.251894, -2634, -1605, -95, 1294, 933, -2056
0.252028, -2634, -1605, -95, 1294, 933, -2056
0.252162, -2634, -1605, -95, 1294, 933, -2056
0.252296, -2634, -1605, -95, 1294, 933, -2056
0.252430, -4204, -325, 1113, 1069, 564, 71
0.252564, -4204, -325, 1113, 1069, 564, 71
0.252698, -4204, -325, 1113, 1069, 564, 71
0.252833, -4204, -325, 1113, 1069, 564, 71
0.252967, -4204, -325, 1113, 1069, 564, 71
0.253101, -4204, -325, 1113, 1069, 564, 71
0.253235, -4204, -325, 1113, 1069, 564, 71
0.253369, -4204, -325, 1113, 1069, 564, 71
0.253503, -3286, 318, 2038, 1235, 207, 2346
0.253637, -3286, 318, 2038, 1235, 207, 2346
0.253771, -3286, 318, 2038, 1235, 207, 2346
0.253905, -3286, 318, 2038, 1235, 207, 2346
0.254039, -3286, 318, 2038, 1235, 207, 2346
0.254173, -3286, 318, 2038, 1235, 207, 2346
0.254307, -3286, 318, 2038, 1235, 207, 2346
0.254441, -3486, 264, 1884, 1109, 71, 3973
0.254575, -3486, 264, 1884, 1109, 71, 3973
0.254709, -3486, 264, 1884, 1109, 71, 3973
0.254844, -3486, 264, 1884, 1109, 71, 3973
0.254978, -3486, 264, 1884, 1109, 71, 3973
0.255112, -3486, 264, 1884, 1109, 71, 3973
0.255246, -3486, 264, 1884, 1109, 71, 3973
0.255380, -3486, 264, 1884, 1109, 71, 3973
0.255514, -4881, 332, 996, 309, -250, 6459
0.255648, -4881, 332, 996, 309, -250, 6459
0.255782, -4881, 332, 996, 309, -250, 6459
0.255916, -4881, 332, 996, 309, -250, 6459
0.256050, -4881, 332, 996, 309, -250, 6459
0.256184, -4881, 332, 996, 309, -250, 6459
0.256318, -4881, 332, 996, 309, -250, 6459
0.256452, -2342, 484, 1392, -992, -1261, 9254
0.256586, -2342, 484, 1392, -992, -1261, 9254
0.256720, -2342, 484, 1392, -992, -1261, 9254
0.256854, -2342, 484, 1392, -992, -1261, 9254
0.256988, -2342, 484, 1392, -992, -1261, 9254
0.257122, -2342, 484, 1392, -992, -1261, 9254
0.257256, -2342, 484, 1392, -992, -1261, 9254
0.257389, -2342, 484, 1392, -992, -1261, 9254
0.257523, 532, 622, 2451, -1952, -2281, 9965
0.257658, 532, 622, 2451, -1952, -2281, 9965
0.257792, 532, 622, 2451, -1952, -2281, 9965
0.257926, 532, 622, 2451, -1952, -2281, 9965
0.258060, 532, 622, 2451, -1952, -2281, 9965
0.258194, 532, 622, 2451, -1952, -2281, 9965
0.258328, 532, 622, 2451, -1952, -2281, 9965
0.258462, 532, 622, 2451, -1952, -2281, 9965
0.258596, 488, 612, 2460, -2545, -2625, 9466
0.258730, 488, 612, 2460, -2545, -2625, 9466
0.258865, 488, 612, 2460, -2545, -2625, 9466
0.259000, 488, 612, 2460, -2545, -2625, 9466
0.259134, 488, 612, 2460, -2545, -2625, 9466
0.259269, 488, 612, 2460, -2545, -2625, 9466
0.259404, 488, 612, 2460, -2545, -2625, 9466
0.259538, 283, 483, 2115, -3092, -2725, 9264
0.259673, 283, 483, 2115, -3092, -2725, 9264
0.259808, 283, 483, 2115, -3092, -2725, 9264
0.259937, 283, 483, 2115, -3092, -2725, 9264
0.260074, 283, 483, 2115, -3092, -2725, 9264
0.260209, 283, 483, 2115, -3092, -2725, 9264
0.260344, 283, 483, 2115, -3092, -2725, 9264
0.260478, 283, 483, 2115, -3092, -2725, 9264
0.260615, 624, 412, 2050, -3375, -2968, 9036
0.260752, 624, 412, 2050, -3375, -2968, 9036
0.260894, 624, 412, 2050, -3375, -2968, 9036
0.261032, 624, 412, 2050, -3375, -2968, 9036
0.261169, 624, 412, 2050, -3375, -2968, 9036
0.261304, 624, 412, 2050, -3375, -2968, 9036
0.261438, 624, 412, 2050, -3375, -2968, 9036
0.261573, 584, 401, 2043, -3370, -3089, 8644
0.261708, 584, 401, 2043, -3370, -3089, 8644
0.261843, 584, 401, 2043, -3370, -3089, 8644
0.261977, 584, 401, 2043, -3370, -3089, 8644
0.262112, 584, 401, 2043, -3370, -3089, 8644
0.262247, 584, 401, 2043, -3370, -3089, 8644
0.262382, 584, 401, 2043, -3370, -3089, 8644
0.262544, 203, 366, 1975, -3258, -2847, 8431
0.262681, 203, 366, 1975, -3258, -2847, 8431
0.262822, 203, 366, 1975, -3258, -2847, 8431
0.262957, 203, 366, 1975, -3258, -2847, 8431
0.263092, 203, 366, 1975, -3258, -2847, 8431
0.263227, 203, 366, 1975, -3258, -2847, 8431
0.263361, 203, 366, 1975, -3258, -2847, 8431
0.263496, 203, 366, 1975, -3258, -2847, 8431
0.263631, 102, 325, 1915, -3130, -2420, 8497
0.263765, 102, 325, 1915, -3130, -2420, 8497
0.263900, 102, 325, 1915, -3130, -2420, 8497
0.264035, 102, 325, 1915, -3130, -2420, 8497
0.264169, 102, 325, 1915, -3130, -2420, 8497
0.264304, 102, 325, 1915, -3130, -2420, 8497
0.264439, 102, 325, 1915, -3130, -2420, 8497
0.264574, 909, 268, 1911, -3025, -2046, 8471
0.264708, 909, 268, 1911, -3025, -2046, 8471
0.264843, 909, 268, 1911, -3025, -2046, 8471
0.264978, 909, 268, 1911, -3025, -2046, 8471
0.265113, 909, 268, 1911, -3025, -2046, 8471
0.265247, 909, 268, 1911, -3025, -2046, 8471
0.265382, 909, 268, 1911, -3025, -2046, 8471
0.265517, 909, 268, 1911, -3025, -2046, 8471
0.265651, 2813, 87, 1870, -3001, -1756, 7674
0.265786, 2813, 87, 1870, -3001, -1756, 7674
0.265921, 2813, 87, 1870, -3001, -1756, 7674
0.266055, 2813, 87, 1870, -3001, -1756, 7674
0.266190, 2813, 87, 1870, -3001, -1756, 7674
0.266325, 2813, 87, 1870, -3001, -1756, 7674
0.266460, 2813, 87, 1870, -3001, -1756, 7674
0.266595, 6541, -367, 1943, -3118, -1565, 5328
0.266730, 6541, -367, 1943, -3118, -1565, 5328
0.266865, 6541, -367, 1943, -3118, -1565, 5328
0.267000, 6541, -367, 1943, -3118, -1565, 5328
0.267135, 6541, -367, 1943, -3118, -1565, 5328
0.267270, 6541, -367, 1943, -3118, -1565, 5328
0.267404, 6541, -367, 1943, -3118, -1565, 5328
0.267539, 6541, -367, 1943, -3118, -1565, 5328
0.267674, 12433, -958, 3224, -2927, -1530, 93
0.267809, 12433, -958, 3224, -2927, -1530, 93
0.267943, 12433, -958, 3224, -2927, -1530, 93
0.268078, 12433, -958, 3224, -2927, -1530, 93
0.268213, 12433, -958, 3224, -2927, -1530, 93
0.268347, 12433, -958, 3224, -2927, -1530, 93
0.268482, 12433, -958, 3224, -2927, -1530, 93
0.268617, 16157, -447, 4791, -1562, -1246, -8739
0.268752, 16157, -447, 4791, -1562, -1246, -8739
0.268887, 16157, -447, 4791, -1562, -1246, -8739
0.269021, 16157, -447, 4791, -1562, -1246, -8739
0.269156, 16157, -447, 4791, -1562, -1246, -8739
0.269290, 16157, -447, 4791, -1562, -1246, -8739
0.269425, 16157, -447, 4791, -1562, -1246, -8739
0.269560, 16157, -447, 4791, -1562, -1246, -8739
0.269694, 11894, 701, 4384, 825, 127, -18456
0.269829, 11894, 701, 4384, 825, 127, -18456
0.269963, 11894, 701, 4384, 825, 127, -18456
0.270098, 11894, 701, 4384, 825, 127, -18456
0.270233, 11894, 701, 4384, 825, 127, -18456
0.270367, 11894, 701, 4384, 825, 127, -18456
0.270502, 11894, 701, 4384, 825, 127, -18456
0.270636, 2075, 497, 2842, 3383, 2606, -24133
0.270771, 2075, 497, 2842, 3383, 2606, -24133
0.270906, 2075, 497, 2842, 3383, 2606, -24133
0.271041, 2075, 497, 2842, 3383, 2606, -24133
0.271176, 2075, 497, 2842, 3383, 2606, -24133
0.271311, 2075, 497, 2842, 3383, 2606, -24133
0.271445, 2075, 497, 2842, 3383, 2606, -24133
0.271580, 2075, 497, 2842, 3383, 2606, -24133
0.271715, -5839, -149, 1374, 5611, 5282, -23780
0.271850, -5839, -149, 1374, 5611, 5282, -23780
0.271984, -5839, -149, 1374, 5611, 5282, -23780
0.272119, -5839, -149, 1374, 5611, 5282, -23780
0.272254, -5839, -149, 1374, 5611, 5282, -23780
0.272388, -5839, -149, 1374, 5611, 5282, -23780
0.272523, -5839, -149, 1374, 5611, 5282, -23780
0.272658, -5839, -149, 1374, 5611, 5282, -23780
0.272792, -9302, -145, 32, 6901, 7537, -19052
0.272927, -9302, -145, 32, 6901, 7537, -19052
0.273062, -9302, -145, 32, 6901, 7537, -19052
0.273197, -9302, -145, 32, 6901, 7537, -19052
0.273331, -9302, -145, 32, 6901, 7537, -19052
0.273466, -9302, -145, 32, 6901, 7537, -19052
0.273601, -9302, -145, 32, 6901, 7537, -19052
0.273735, -7524, 900, -300, 6886, 8887, -12645
0.273870, -7524, 900, -300, 6886, 8887, -12645
0.274005, -7524, 900, -300, 6886, 8887, -12645
0.274140, -7524, 900, -300, 6886, 8887, -12645
0.274274, -7524, 900, -300, 6886, 8887, -12645
0.274409, -7524, 900, -300, 6886, 8887, -12645
0.274550, -7524, 900, -300, 6886, 8887, -12645
0.274685, -7524, 900, -300, 6886, 8887, -12645
0.274820, -3082, 1667, 854, 5832, 9122, -7910
0.274955, -3082, 1667, 854, 5832, 9122, -7910
0.275090, -3082, 1667, 854, 5832, 9122, -7910
0.275225, -3082, 1667, 854, 5832, 9122, -7910
0.275359, -3082, 1667, 854, 5832, 9122, -7910
0.275494, -3082, 1667, 854, 5832, 9122, -7910
0.275629, -3082, 1667, 854, 5832, 9122, -7910
0.275763, -2348, 1165, 2885, 4639, 8721, -5666
0.275898, -2348, 1165, 2885, 4639, 8721, -5666
0.276033, -2348, 1165, 2885, 4639, 8721, -5666
0.276167, -2348, 1165, 2885, 4639, 8721, -5666
0.276302, -2348, 1165, 2885, 4639, 8721, -5666
0.276437, -2348, 1165, 2885, 4639, 8721, -5666
0.276572, -2348, 1165, 2885, 4639, 8721, -5666
0.276706, -2348, 1165, 2885, 4639, 8721, -5666
0.276841, -6591, 582, 3952, 4237, 7942, -2985
0.276976, -6591, 582, 3952, 4237, 7942, -2985
0.277106, -6591, 582, 3952, 4237, 7942, -2985
0.277243, -6591, 582, 3952, 4237, 7942, -2985
0.277378, -6591, 582, 3952, 4237, 7942, -2985
0.277514, -6591, 582, 3952, 4237, 7942, -2985
0.277650, -6591, 582, 3952, 4237, 7942, -2985
0.277785, -8412, 368, 2345, 3903, 6289, 1970
0.277920, -8412, 368, 2345, 3903, 6289, 1970
0.278054, -8412, 368, 2345, 3903, 6289, 1970
0.278189, -8412, 368, 2345, 3903, 6289, 1970
0.278324, -8412, 368, 2345, 3903, 6289, 1970
0.278458, -8412, 368, 2345, 3903, 6289, 1970
0.278593, -8412, 368, 2345, 3903, 6289, 1970
0.278723, -8412, 368, 2345, 3903, 6289, 1970
0.278858, -1947, 1168, 1200, 2638, 3258, 6045
0.278993, -1947, 1168, 1200, 2638, 3258, 6045
0.279128, -1947, 1168, 1200, 2638, 3258, 6045
0.279262, -1947, 1168, 1200, 2638, 3258, 6045
0.279397, -1947, 1168, 1200, 2638, 3258, 6045
0.279531, -1947, 1168, 1200, 2638, 3258, 6045
0.279666, -1947, 1168, 1200, 2638, 3258, 6045
0.279801, 2859, 895, 2066, 1269, -95, 5671
0.279936, 2859, 895, 2066, 1269, -95, 5671
0.280070, 2859, 895, 2066, 1269, -95, 5671
0.280205, 2859, 895, 2066, 1269, -95, 5671
0.280340, 2859, 895, 2066, 1269, -95, 5671
0.280474, 2859, 895, 2066, 1269, -95, 5671
0.280609, 2859, 895, 2066, 1269, -95, 5671
0.280744, 2859, 895, 2066, 1269, -95, 5671
0.280878, 818, -592, 1043, -133, -2383, 3803
0.281013, 818, -592, 1043, -133, -2383, 3803
0.281148, 818, -592, 1043, -133, -2383, 3803
0.281283, 818, -592, 1043, -133, -2383, 3803
0.281417, 818, -592, 1043, -133, -2383, 3803
0.281552, 818, -592, 1043, -133, -2383, 3803
0.281687, 818, -592, 1043, -133, -2383, 3803
0.281821, 394, -494, -159, -1854, -3818, 3306
0.281956, 394, -494, -159, -1854, -3818, 3306
0.282091, 394, -494, -159, -1854, -3818, 3306
0.282225, 394, -494, -159, -1854, -3818, 3306
0.282360, 394, -494, -159, -1854, -3818, 3306
0.282495, 394, -494, -159, -1854, -3818, 3306
0.282630, 394, -494, -159, -1854, -3818, 3306
0.282764, 394, -494, -159, -1854, -3818, 3306
0.282899, 2687, 372, 1243, -2606, -4746, 2241
0.283034, 2687, 372, 1243, -2606, -4746, 2241
0.283169, 2687, 372, 1243, -2606, -4746, 2241
0.283303, 2687, 372, 1243, -2606, -4746, 2241
0.283438, 2687, 372, 1243, -2606, -4746, 2241
0.283573, 2687, 372, 1243, -2606, -4746, 2241
0.283707, 2687, 372, 1243, -2606, -4746, 2241
0.283842, 3761, 560, 2589, -2312, -4593, -127
0.283977, 3761, 560, 2589, -2312, -4593, -127
0.284112, 3761, 560, 2589, -2312, -4593, -127
0.284246, 3761, 560, 2589, -2312, -4593, -127
0.284381, 3761, 560, 2589, -2312, -4593, -127
0.284516, 3761, 560, 2589, -2312, -4593, -127
0.284650, 3761, 560, 2589, -2312, -4593, -127
0.284785, 3761, 560, 2589, -2312, -4593, -127
0.284920, 3720, 543, 3138, -1594, -3270, -2614
0.285055, 3720, 543, 3138, -1594, -3270, -2614
0.285189, 3720, 543, 3138, -1594, -3270, -2614
0.285324, 3720, 543, 3138, -1594, -3270, -2614
0.285459, 3720, 543, 3138, -1594, -3270, -2614
0.285593, 3720, 543, 3138, -1594, -3270, -2614
0.285728, 3720, 543, 3138, -1594, -3270, -2614
0.285863, 3816, 589, 2911, -340, -1645, -4882
0.285997, 3816, 589, 2911, -340, -1645, -4882
0.286132, 3816, 589, 2911, -340, -1645, -4882
0.286267, 3816, 589, 2911, -340, -1645, -4882
0.286402, 3816, 589, 2911, -340, -1645, -4882
0.286543, 3816, 589, 2911, -340, -1645, -4882
0.286679, 3816, 589, 2911, -340, -1645, -4882
0.286813, 3816, 589, 2911, -340, -1645, -4882
0.286954, 3122, 735, 1140, 459, -124, -7096
0.287088, 3122, 735, 1140, 459, -124, -7096
0.287223, 3122, 735, 1140, 459, -124, -7096
0.287358, 3122, 735, 1140, 459, -124, -7096
0.287492, 3122, 735, 1140, 459, -124, -7096
0.287627, 3122, 735, 1140, 459, -124, -7096
0.287762, 3122, 735, 1140, 459, -124, -7096
0.287896, -679, 767, 260, 107, 1681, -8153
0.288031, -679, 767, 260, 107, 1681, -8153
0.288166, -679, 767, 260, 107, 1681, -8153
0.288301, -679, 767, 260, 107, 1681, -8153
0.288435, -679, 767, 260, 107, 1681, -8153
0.288570, -679, 767, 260, 107, 1681, -8153
0.288705, -679, 767, 260, 107, 1681, -8153
0.288839, -679, 767, 260, 107, 1681, -8153
0.288974, -3818, 537, 1401, -65, 3717, -6524
0.289109, -3818, 537, 1401, -65, 3717, -6524
0.289244, -3818, 537, 1401, -65, 3717, -6524
0.289378, -3818, 537, 1401, -65, 3717, -6524
0.289513, -3818, 537, 1401, -65, 3717, -6524
0.289647, -3818, 537, 1401, -65, 3717, -6524
0.289782, -3818, 537, 1401, -65, 3717, -6524
0.289917, -2103, 613, 1932, 151, 5214, -3926
0.290051, -2103, 613, 1932, 151, 5214, -3926
0.290186, -2103, 613, 1932, 151, 5214, -3926
0.290321, -2103, 613, 1932, 151, 5214, -3926
0.290456, -2103, 613, 1932, 151, 5214, -3926
0.290590, -2103, 613, 1932, 151, 5214, -3926
0.290725, -2103, 613, 1932, 151, 5214, -3926
0.290860, -2103, 613, 1932, 151, 5214, -3926
0.290995, -2233, 158, 2578, 126, 5953, -2340
0.291130, -2233, 158, 2578, 126, 5953, -2340
0.291264, -2233, 158, 2578, 126, 5953, -2340
0.291399, -2233, 158, 2578, 126, 5953, -2340
0.291534, -2233, 158, 2578, 126, 5953, -2340
0.291668, -2233, 158, 2578, 126, 5953, -2340
0.291803, -2233, 158, 2578, 126, 5953, -2340
0.291938, -5287, -260, 2829, 283, 5814, -31
0.292073, -5287, -260, 2829, 283, 5814, -31
0.292207, -5287, -260, 2829, 283, 5814, -31
0.292342, -5287, -260, 2829, 283, 5814, -31
0.292476, -5287, -260, 2829, 283, 5814, -31
0.292611, -5287, -260, 2829, 283, 5814, -31
0.292746, -5287, -260, 2829, 283, 5814, -31
0.292880, -5287, -260, 2829, 283, 5814, -31
0.293015, -5983, 315, 1404, -78, 4540, 3587
0.293150, -5983, 315, 1404, -78, 4540, 3587
0.293285, -5983, 315, 1404, -78, 4540, 3587
0.293419, -5983, 315, 1404, -78, 4540, 3587
0.293554, -5983, 315, 1404, -78, 4540, 3587
0.293689, -5983, 315, 1404, -78, 4540, 3587
0.293823, -5983, 315, 1404, -78, 4540, 3587
0.293958, -4663, 666, 1453, -1219, 2573, 7023
0.294093, -4663, 666, 1453, -1219, 2573, 7023
0.294227, -4663, 666, 1453, -1219, 2573, 7023
0.294362, -4663, 666, 1453, -1219, 2573, 7023
0.294497, -4663, 666, 1453, -1219, 2573, 7023
0.294631, -4663, 666, 1453, -1219, 2573, 7023
0.294767, -4663, 666, 1453, -1219, 2573, 7023
0.294902, -4663, 666, 1453, -1219, 2573, 7023
0.295037, -1692, 658, 2323, -2199, 448, 9155
0.295172, -1692, 658, 2323, -2199, 448, 9155
0.295307, -1692, 658, 2323, -2199, 448, 9155
0.295441, -1692, 658, 2323, -2199, 448, 9155
0.295576, -1692, 658, 2323, -2199, 448, 9155
0.295711, -1692, 658, 2323, -2199, 448, 9155
0.295845, -1692, 658, 2323, -2199, 448, 9155
0.295980, 472, 620, 2358, -3055, -1345, 9432
0.296115, 472, 620, 2358, -3055, -1345, 9432
0.296250, 472, 620, 2358, -3055, -1345, 9432
0.296384, 472, 620, 2358, -3055, -1345, 9432
0.296519, 472, 620, 2358, -3055, -1345, 9432
0.296654, 472, 620, 2358, -3055, -1345, 9432
0.296789, 472, 620, 2358, -3055, -1345, 9432
0.296923, 472, 620, 2358, -3055, -1345, 9432
0.297058, 805, 457, 2261, -3915, -2635, 8831
0.297193, 805, 457, 2261, -3915, -2635, 8831
0.297327, 805, 457, 2261, -3915, -2635, 8831
0.297462, 805, 457, 2261, -3915, -2635, 8831
0.297597, 805, 457, 2261, -3915, -2635, 8831
0.297731, 805, 457, 2261, -3915, -2635, 8831
0.297866, 805, 457, 2261, -3915, -2635, 8831
0.298000, 2223, 276, 2096, -4461, -3574, 7899
0.298135, 2223, 276, 2096, -4461, -3574, 7899
0.298270, 2223, 276, 2096, -4461, -3574, 7899
0.298405, 2223, 276, 2096, -4461, -3574, 7899
0.298539, 2223, 276, 2096, -4461, -3574, 7899
0.298674, 2223, 276, 2096, -4461, -3574, 7899
0.298809, 2223, 276, 2096, -4461, -3574, 7899
0.298949, 2223, 276, 2096, -4461, -3574, 7899
0.299084, 4675, 175, 1934, -4665, -4086, 5773
0.299219, 4675, 175, 1934, -4665, -4086, 5773
0.299354, 4675, 175, 1934, -4665, -4086, 5773
0.299488, 4675, 175, 1934, -4665, -4086, 5773
0.299623, 4675, 175, 1934, -4665, -4086, 5773
0.299758, 4675, 175, 1934, -4665, -4086, 5773
0.299892, 4675, 175, 1934, -4665, -4086, 5773
0.300027, 4675, 175, 1934, -4665, -4086, 5773
0.300162, 6032, 149, 1633, -4691, -3904, 2319
0.300296, 6032, 149, 1633, -4691, -3904, 2319
0.300431, 6032, 149, 1633, -4691, -3904, 2319
0.300566, 6032, 149, 1633, -4691, -3904, 2319
0.300700, 6032, 149, 1633, -4691, -3904, 2319
0.300835, 6032, 149, 1633, -4691, -3904, 2319
0.300970, 6032, 149, 1633, -4691, -3904, 2319
0.301104, 6153, 361, 805, -4722, -2974, -1597
0.301239, 6153, 361, 805, -4722, -2974, -1597
0.301374, 6153, 361, 805, -4722, -2974, -1597
0.301509, 6153, 361, 805, -4722, -2974, -1597
0.301643, 6153, 361, 805, -4722, -2974, -1597
0.301778, 6153, 361, 805, -4722, -2974, -1597
0.301912, 6153, 361, 805, -4722, -2974, -1597
0.302047, 6153, 361, 805, -4722, -2974, -1597
0.302182, 4350, 162, 1406, -4638, -1406, -5116
0.302317, 4350, 162, 1406, -4638, -1406, -5116
0.302451, 4350, 162, 1406, -4638, -1406, -5116
0.302586, 4350, 162, 1406, -4638, -1406, -5116
0.302721, 4350, 162, 1406, -4638, -1406, -5116
0.302856, 4350, 162, 1406, -4638, -1406, -5116
0.302990, 4350, 162, 1406, -4638, -1406, -5116
0.303125, 571, -328, 4039, -3143, 722, -6949
0.303260, 571, -328, 4039, -3143, 722, -6949
0.303395, 571, -328, 4039, -3143, 722, -6949
0.303529, 571, -328, 4039, -3143, 722, -6949
0.303664, 571, -328, 4039, -3143, 722, -6949
0.303799, 571, -328, 4039, -3143, 722, -6949
0.303933, 571, -328, 4039, -3143, 722, -6949
0.304068, 571, -328, 4039, -3143, 722, -6949
0.304202, -901, 446, 3923, -272, 2907, -6591
0.304338, -901, 446, 3923, -272, 2907, -6591
0.304472, -901, 446, 3923, -272, 2907, -6591
0.304607, -901, 446, 3923, -272, 2907, -6591
0.304741, -901, 446, 3923, -272, 2907, -6591
0.304876, -901, 446, 3923, -272, 2907, -6591
0.305011, -901, 446, 3923, -272, 2907, -6591
0.305146, -961, 709, 1551, 1323, 4530, -5658
0.305280, -961, 709, 1551, 1323, 4530, -5658
0.305415, -961, 709, 1551, 1323, 4530, -5658
0.305550, -961, 709, 1551, 1323, 4530, -5658
0.305684, -961, 709, 1551, 1323, 4530, -5658
0.305819, -961, 709, 1551, 1323, 4530, -5658
0.305954, -961, 709, 1551, 1323, 4530, -5658
0.306088, -961, 709, 1551, 1323, 4530, -5658
0.306223, -1599, 95, 1357, 1301, 5214, -4659
0.306358, -1599, 95, 1357, 1301, 5214, -4659
0.306493, -1599, 95, 1357, 1301, 5214, -4659
0.306627, -1599, 95, 1357, 1301, 5214, -4659
0.306762, -1599, 95, 1357, 1301, 5214, -4659
0.306897, -1599, 95, 1357, 1301, 5214, -4659
0.307032, -1599, 95, 1357, 1301, 5214, -4659
0.307166, -1809, 372, 1914, 1086, 5105, -3319
0.307301, -1809, 372, 1914, 1086, 5105, -3319
0.307436, -1809, 372, 1914, 1086, 5105, -3319
0.307570, -1809, 372, 1914, 1086, 5105, -3319
0.307705, -1809, 372, 1914, 1086, 5105, -3319
0.307840, -1809, 372, 1914, 1086, 5105, -3319
0.307974, -1809, 372, 1914, 1086, 5105, -3319
0.308109, -1809, 372, 1914, 1086, 5105, -3319
0.308244, -3485, 598, 2046, 656, 4933, -1600
0.308379, -3485, 598, 2046, 656, 4933, -1600
0.308513, -3485, 598, 2046, 656, 4933, -1600
0.308648, -3485, 598, 2046, 656, 4933, -1600
0.308782, -3485, 598, 2046, 656, 4933, -1600
0.308917, -3485, 598, 2046, 656, 4933, -1600
0.309052, -3485, 598, 2046, 656, 4933, -1600
0.309187, -3305, 803, 2218, 214, 4550, 862
0.309321, -3305, 803, 2218, 214, 4550, 862
0.309456, -3305, 803, 2218, 214, 4550, 862
0.309591, -3305, 803, 2218, 214, 4550, 862
0.309725, -3305, 803, 2218, 214, 4550, 862
0.309860, -3305, 803, 2218, 214, 4550, 862
0.309995, -3305, 803, 2218, 214, 4550, 862
0.310129, -3305, 803, 2218, 214, 4550, 862
0.310264, 764, 999, 2121, -236, 3289, 2185
0.310399, 764, 999, 2121, -236, 3289, 2185
0.310533, 764, 999, 2121, -236, 3289, 2185
0.310668, 764, 999, 2121, -236, 3289, 2185
0.310803, 764, 999, 2121, -236, 3289, 2185
0.310938, 764, 999, 2121, -236, 3289, 2185
0.311080, 764, 999, 2121, -236, 3289, 2185
0.311216, 4892, 1056, 2917, -790, 1420, 662
0.311351, 4892, 1056, 2917, -790, 1420, 662
0.311485, 4892, 1056, 2917, -790, 1420, 662
0.311620, 4892, 1056, 2917, -790, 1420, 662
0.311755, 4892, 1056, 2917, -790, 1420, 662
0.311889, 4892, 1056, 2917, -790, 1420, 662
0.312024, 4892, 1056, 2917, -790, 1420, 662
0.312159, 4892, 1056, 2917, -790, 1420, 662
0.312293, 6086, 854, 2666, -935, -150, -2938
0.312428, 6086, 854, 2666, -935, -150, -2938
0.312563, 6086, 854, 2666, -935, -150, -2938
0.312697, 6086, 854, 2666, -935, -150, -2938
0.312832, 6086, 854, 2666, -935, -150, -2938
0.312967, 6086, 854, 2666, -935, -150, -2938
0.313101, 6086, 854, 2666, -935, -150, -2938
0.313236, 3260, 354, 1253, -1235, -812, -6451
0.313371, 3260, 354, 1253, -1235, -812, -6451
0.313505, 3260, 354, 1253, -1235, -812, -6451
0.313640, 3260, 354, 1253, -1235, -812, -6451
0.313775, 3260, 354, 1253, -1235, -812, -6451
0.313909, 3260, 354, 1253, -1235, -812, -6451
0.314044, 3260, 354, 1253, -1235, -812, -6451
0.314178, 3260, 354, 1253, -1235, -812, -6451
0.314313, -114, 603, 1410, -1245, -614, -7827
0.314448, -114, 603, 1410, -1245, -614, -7827
0.314583, -114, 603, 1410, -1245, -614, -7827
0.314717, -114, 603, 1410, -1245, -614, -7827
0.314852, -114, 603, 1410, -1245, -614, -7827
0.314986, -114, 603, 1410, -1245, -614, -7827
0.315120, -114, 603, 1410, -1245, -614, -7827
0.315254, -2421, 807, 652, -672, 239, -7204
0.315388, -2421, 807, 652, -672, 239, -7204
0.315523, -2421, 807, 652, -672, 239, -7204
0.315657, -2421, 807, 652, -672, 239, -7204
0.315792, -2421, 807, 652, -672, 239, -7204
0.315926, -2421, 807, 652, -672, 239, -7204
0.316061, -2421, 807, 652, -672, 239, -7204
0.316195, -2421, 807, 652, -672, 239, -7204
0.316330, -6000, 73, 499, -842, 1481, -4878
0.316464, -6000, 73, 499, -842, 1481, -4878
0.316599, -6000, 73, 499, -842, 1481, -4878
0.316733, -6000, 73, 499, -842, 1481, -4878
0.316868, -6000, 73, 499, -842, 1481, -4878
0.317002, -6000, 73, 499, -842, 1481, -4878
0.317137, -6000, 73, 499, -842, 1481, -4878
0.317271, -9307, -458, 2430, -636, 2441, 53
0.317406, -9307, -458, 2430, -636, 2441, 53
0.317540, -9307, -458, 2430, -636, 2441, 53
0.317675, -9307, -458, 2430, -636, 2441, 53
0.317809, -9307, -458, 2430, -636, 2441, 53
0.317944, -9307, -458, 2430, -636, 2441, 53
0.318078, -9307, -458, 2430, -636, 2441, 53
0.318212, -9307, -458, 2430, -636, 2441, 53
0.318347, -6783, 68, 2594, 42, 2335, 6078
0.318481, -6783, 68, 2594, 42, 2335, 6078
0.318616, -6783, 68, 2594, 42, 2335, 6078
0.318750, -6783, 68, 2594, 42, 2335, 6078
0.318885, -6783, 68, 2594, 42, 2335, 6078
0.319020, -6783, 68, 2594, 42, 2335, 6078
0.319154, -6783, 68, 2594, 42, 2335, 6078
0.319289, -937, 561, 2135, -483, 1264, 9149
0.319424, -937, 561, 2135, -483, 1264, 9149
0.319558, -937, 561, 2135, -483, 1264, 9149
0.319693, -937, 561, 2135, -483, 1264, 9149
0.319828, -937, 561, 2135, -483, 1264, 9149
0.319962, -937, 561, 2135, -483, 1264, 9149
0.320097, -937, 561, 2135, -483, 1264, 9149
0.320231, -937, 561, 2135, -483, 1264, 9149
0.320366, 759, 471, 2509, -1647, 50, 8954
0.320501, 759, 471, 2509, -1647, 50, 8954
0.320635, 759, 471, 2509, -1647, 50, 8954
0.320770, 759, 471, 2509, -1647, 50, 8954
0.320905, 759, 471, 2509, -1647, 50, 8954
0.321039, 759, 471, 2509, -1647, 50, 8954
0.321174, 759, 471, 2509, -1647, 50, 8954
0.321308, 759, 471, 2509, -1647, 50, 8954
0.321443, -80, 447, 2495, -2732, -893, 8491
0.321578, -80, 447, 2495, -2732, -893, 8491
0.321713, -80, 447, 2495, -2732, -893, 8491
0.321847, -80, 447, 2495, -2732, -893, 8491
0.321982, -80, 447, 2495, -2732, -893, 8491
0.322116, -80, 447, 2495, -2732, -893, 8491
0.322251, -80, 447, 2495, -2732, -893, 8491
0.322385, 75, 470, 2232, -3653, -1652, 8412
0.322520, 75, 470, 2232, -3653, -1652, 8412
0.322655, 75, 470, 2232, -3653, -1652, 8412
0.322789, 75, 470, 2232, -3653, -1652, 8412
0.322924, 75, 470, 2232, -3653, -1652, 8412
0.323058, 75, 470, 2232, -3653, -1652, 8412
0.323193, 75, 470, 2232, -3653, -1652, 8412
0.323328, 75, 470, 2232, -3653, -1652, 8412
0.323462, 758, 366, 2103, -4164, -2317, 7968
0.323601, 758, 366, 2103, -4164, -2317, 7968
0.323736, 758, 366, 2103, -4164, -2317, 7968
0.323870, 758, 366, 2103, -4164, -2317, 7968
0.324005, 758, 366, 2103, -4164, -2317, 7968
0.324139, 758, 366, 2103, -4164, -2317, 7968
0.324274, 758, 366, 2103, -4164, -2317, 7968
0.324408, 2362, 204, 2360, -4254, -2891, 6942
0.324543, 2362, 204, 2360, -4254, -2891, 6942
0.324677, 2362, 204, 2360, -4254, -2891, 6942
0.324812, 2362, 204, 2360, -4254, -2891, 6942
0.324946, 2362, 204, 2360, -4254, -2891, 6942
0.325081, 2362, 204, 2360, -4254, -2891, 6942
0.325215, 2362, 204, 2360, -4254, -2891, 6942
0.325350, 2362, 204, 2360, -4254, -2891, 6942
0.325484, 5000, 82, 2825, -3940, -3298, 4764
0.325619, 5000, 82, 2825, -3940, -3298, 4764
0.325753, 5000, 82, 2825, -3940, -3298, 4764
0.325888, 5000, 82, 2825, -3940, -3298, 4764
0.326023, 5000, 82, 2825, -3940, -3298, 4764
0.326157, 5000, 82, 2825, -3940, -3298, 4764
0.326292, 5000, 82, 2825, -3940, -3298, 4764
0.326427, 6553, 39, 2925, -3240, -3273, 1157
0.326561, 6553, 39, 2925, -3240, -3273, 1157
0.326696, 6553, 39, 2925, -3240, -3273, 1157
0.326831, 6553, 39, 2925, -3240, -3273, 1157
0.326966, 6553, 39, 2925, -3240, -3273, 1157
0.327100, 6553, 39, 2925, -3240, -3273, 1157
0.327235, 6553, 39, 2925, -3240, -3273, 1157
0.327370, 6553, 39, 2925, -3240, -3273, 1157
0.327504, 5857, 340, 2650, -2270, -2579, -2898
0.327639, 5857, 340, 2650, -2270, -2579, -2898
0.327774, 5857, 340, 2650, -2270, -2579, -2898
0.327908, 5857, 340, 2650, -2270, -2579, -2898
0.328043, 5857, 340, 2650, -2270, -2579, -2898
0.328178, 5857, 340, 2650, -2270, -2579, -2898
0.328312, 5857, 340, 2650, -2270, -2579, -2898
0.328447, 3071, 349, 2519, -1117, -1118, -5918
0.328582, 3071, 349, 2519, -1117, -1118, -5918
0.328716, 3071, 349, 2519, -1117, -1118, -5918
0.328851, 3071, 349, 2519, -1117, -1118, -5918
0.328986, 3071, 349, 2519, -1117, -1118, -5918
0.329120, 3071, 349, 2519, -1117, -1118, -5918
0.329255, 3071, 349, 2519, -1117, -1118, -5918
0.329389, 3071, 349, 2519, -1117, -1118, -5918
0.329524, 311, 256, 2872, 347, 848, -6992
0.329659, 311, 256, 2872, 347, 848, -6992
0.329793, 311, 256, 2872, 347, 848, -6992
0.329928, 311, 256, 2872, 347, 848, -6992
0.330063, 311, 256, 2872, 347, 848, -6992
0.330197, 311, 256, 2872, 347, 848, -6992
0.330332, 311, 256, 2872, 347, 848, -6992
0.330467, -1841, 327, 1648, 1754, 2831, -6569
0.330602, -1841, 327, 1648, 1754, 2831, -6569
0.330736, -1841, 327, 1648, 1754, 2831, -6569
0.330871, -1841, 327, 1648, 1754, 2831, -6569
0.331006, -1841, 327, 1648, 1754, 2831, -6569
0.331141, -1841, 327, 1648, 1754, 2831, -6569
0.331275, -1841, 327, 1648, 1754, 2831, -6569
0.331410, -1841, 327, 1648, 1754, 2831, -6569
0.331545, -6098, -409, -867, 1535, 4458, -4324
0.331679, -6098, -409, -867, 1535, 4458, -4324
0.331814, -6098, -409, -867, 1535, 4458, -4324
0.331949, -6098, -409, -867, 1535, 4458, -4324
0.332083, -6098, -409, -867, 1535, 4458, -4324
0.332218, -6098, -409, -867, 1535, 4458, -4324
0.332353, -6098, -409, -867, 1535, 4458, -4324
0.332487, -7408, -212, -307, 35, 4954, 376
0.332622, -7408, -212, -307, 35, 4954, 376
0.332757, -7408, -212, -307, 35, 4954, 376
0.332891, -7408, -212, -307, 35, 4954, 376
0.333026, -7408, -212, -307, 35, 4954, 376
0.333161, -7408, -212, -307, 35, 4954, 376
0.333295, -7408, -212, -307, 35, 4954, 376
0.333430, -7408, -212, -307, 35, 4954, 376
0.333560, -1943, 821, 2153, -890, 4145, 4253
0.333695, -1943, 821, 2153, -890, 4145, 4253
0.333830, -1943, 821, 2153, -890, 4145, 4253
0.333964, -1943, 821, 2153, -890, 4145, 4253
0.334099, -1943, 821, 2153, -890, 4145, 4253
0.334234, -1943, 821, 2153, -890, 4145, 4253
0.334368, -1943, 821, 2153, -890, 4145, 4253
0.334503, 3447, 673, 3181, -1572, 3176, 4285
0.334638, 3447, 673, 3181, -1572, 3176, 4285
0.334772, 3447, 673, 3181, -1572, 3176, 4285
0.334908, 3447, 673, 3181, -1572, 3176, 4285
0.335042, 3447, 673, 3181, -1572, 3176, 4285
0.335177, 3447, 673, 3181, -1572, 3176, 4285
0.335312, 3447, 673, 3181, -1572, 3176, 4285
0.335446, 3447, 673, 3181, -1572, 3176, 4285
0.335581, 5265, 0, 3702, -2171, 2354, 1669
0.335716, 5265, 0, 3702, -2171, 2354, 1669
0.335854, 5265, 0, 3702, -2171, 2354, 1669
0.335989, 5265, 0, 3702, -2171, 2354, 1669
0.336124, 5265, 0, 3702, -2171, 2354, 1669
0.336258, 5265, 0, 3702, -2171, 2354, 1669
0.336393, 5265, 0, 3702, -2171, 2354, 1669
0.336528, 5740, 71, 4498, -1649, 1113, -1836
0.336663, 5740, 71, 4498, -1649, 1113, -1836
0.336797, 5740, 71, 4498, -1649, 1113, -1836
0.336932, 5740, 71, 4498, -1649, 1113, -1836
0.337067, 5740, 71, 4498, -1649, 1113, -1836
0.337201, 5740, 71, 4498, -1649, 1113, -1836
0.337336, 5740, 71, 4498, -1649, 1113, -1836
0.337471, 5740, 71, 4498, -1649, 1113, -1836
0.337605, 4704, 667, 4186, -244, -32, -5497
0.337740, 4704, 667, 4186, -244, -32, -5497
0.337875, 4704, 667, 4186, -244, -32, -5497
0.338010, 4704, 667, 4186, -244, -32, -5497
0.338144, 4704, 667, 4186, -244, -32, -5497
0.338279, 4704, 667, 4186, -244, -32, -5497
0.338414, 4704, 667, 4186, -244, -32, -5497
0.338548, 2057, 1146, 3116, 1266, -212, -8189
0.338683, 2057, 1146, 3116, 1266, -212, -8189
0.338822, 2057, 1146, 3116, 1266, -212, -8189
0.338957, 2057, 1146, 3116, 1266, -212, -8189
0.339092, 2057, 1146, 3116, 1266, -212, -8189
0.339226, 2057, 1146, 3116, 1266, -212, -8189
0.339361, 2057, 1146, 3116, 1266, -212, -8189
0.339496, 2057, 1146, 3116, 1266, -212, -8189
0.339630, -1715, 1186, 1937, 2847, 499, -8970
0.339765, -1715, 1186, 1937, 2847, 499, -8970
0.339900, -1715, 1186, 1937, 2847, 499, -8970
0.340035, -1715, 1186, 1937, 2847, 499, -8970
0.340169, -1715, 1186, 1937, 2847, 499, -8970
0.340304, -1715, 1186, 1937, 2847, 499, -8970
0.340438, -1715, 1186, 1937, 2847, 499, -8970
0.340573, -8271, 286, -1400, 2983, 1630, -6508
0.340708, -8271, 286, -1400, 2983, 1630, -6508
0.340843, -8271, 286, -1400, 2983, 1630, -6508
0.340977, -8271, 286, -1400, 2983, 1630, -6508
0.341112, -8271, 286, -1400, 2983, 1630, -6508
0.341247, -8271, 286, -1400, 2983, 1630, -6508
0.341381, -8271, 286, -1400, 2983, 1630, -6508
0.341516, -8271, 286, -1400, 2983, 1630, -6508
0.341651, -11715, -15, -3062, 787, 2417, 318
0.341786, -11715, -15, -3062, 787, 2417, 318
0.341920, -11715, -15, -3062, 787, 2417, 318
0.342055, -11715, -15, -3062, 787, 2417, 318
0.342190, -11715, -15, -3062, 787, 2417, 318
0.342325, -11715, -15, -3062, 787, 2417, 318
0.342459, -11715, -15, -3062, 787, 2417, 318
0.342594, -11715, -15, -3062, 787, 2417, 318
0.342729, -5823, 672, 583, -995, 2102, 7292
0.342864, -5823, 672, 583, -995, 2102, 7292
0.342999, -5823, 672, 583, -995, 2102, 7292
0.343134, -5823, 672, 583, -995, 2102, 7292
0.343268, -5823, 672, 583, -995, 2102, 7292
0.343403, -5823, 672, 583, -995, 2102, 7292
0.343537, -5823, 672, 583, -995, 2102, 7292
0.343672, 620, 836, 3406, -1579, 1421, 9625
0.343807, 620, 836, 3406, -1579, 1421, 9625
0.343942, 620, 836, 3406, -1579, 1421, 9625
0.344076, 620, 836, 3406, -1579, 1421, 9625
0.344211, 620, 836, 3406, -1579, 1421, 9625
0.344346, 620, 836, 3406, -1579, 1421, 9625
0.344480, 620, 836, 3406, -1579, 1421, 9625
0.344615, 620, 836, 3406, -1579, 1421, 9625
0.344750, 727, 590, 2678, -2646, 1121, 9234
0.344885, 727, 590, 2678, -2646, 1121, 9234
0.345019, 727, 590, 2678, -2646, 1121, 9234
0.345154, 727, 590, 2678, -2646, 1121, 9234
0.345289, 727, 590, 2678, -2646, 1121, 9234
0.345423, 727, 590, 2678, -2646, 1121, 9234
0.345558, 727, 590, 2678, -2646, 1121, 9234
0.345692, 54, 405, 1939, -3886, 207, 9084
0.345827, 54, 405, 1939, -3886, 207, 9084
0.345962, 54, 405, 1939, -3886, 207, 9084
0.346097, 54, 405, 1939, -3886, 207, 9084
0.346231, 54, 405, 1939, -3886, 207, 9084
0.346366, 54, 405, 1939, -3886, 207, 9084
0.346501, 54, 405, 1939, -3886, 207, 9084
0.346635, 54, 405, 1939, -3886, 207, 9084
0.346770, 2089, 307, 2204, -4593, -1639, 8526
0.346905, 2089, 307, 2204, -4593, -1639, 8526
0.347040, 2089, 307, 2204, -4593, -1639, 8526
0.347175, 2089, 307, 2204, -4593, -1639, 8526
0.347309, 2089, 307, 2204, -4593, -1639, 8526
0.347444, 2089, 307, 2204, -4593, -1639, 8526
0.347579, 2089, 307, 2204, -4593, -1639, 8526
0.347714, 4035, 202, 2204, -4974, -3141, 6394
0.347848, 4035, 202, 2204, -4974, -3141, 6394
0.347983, 4035, 202, 2204, -4974, -3141, 6394
0.348122, 4035, 202, 2204, -4974, -3141, 6394
0.348257, 4035, 202, 2204, -4974, -3141, 6394
0.348391, 4035, 202, 2204, -4974, -3141, 6394
0.348526, 4035, 202, 2204, -4974, -3141, 6394
0.348660, 4035, 202, 2204, -4974, -3141, 6394
0.348795, 4257, 109, 1757, -5106, -3534, 3463
0.348930, 4257, 109, 1757, -5106, -3534, 3463
0.349064, 4257, 109, 1757, -5106, -3534, 3463
0.349199, 4257, 109, 1757, -5106, -3534, 3463
0.349334, 4257, 109, 1757, -5106, -3534, 3463
0.349468, 4257, 109, 1757, -5106, -3534, 3463
0.349603, 4257, 109, 1757, -5106, -3534, 3463
0.349737, 5894, 24, 2154, -4902, -3354, 351
0.349872, 5894, 24, 2154, -4902, -3354, 351
0.350007, 5894, 24, 2154, -4902, -3354, 351
0.350141, 5894, 24, 2154, -4902, -3354, 351
0.350276, 5894, 24, 2154, -4902, -3354, 351
0.350411, 5894, 24, 2154, -4902, -3354, 351
0.350545, 5894, 24, 2154, -4902, -3354, 351
0.350680, 5894, 24, 2154, -4902, -3354, 351
0.350818, 6939, -315, 3593, -3899, -2829, -3891
0.350956, 6939, -315, 3593, -3899, -2829, -3891
0.351091, 6939, -315, 3593, -3899, -2829, -3891
0.351226, 6939, -315, 3593, -3899, -2829, -3891
0.351360, 6939, -315, 3593, -3899, -2829, -3891
0.351495, 6939, -315, 3593, -3899, -2829, -3891
0.351629, 6939, -315, 3593, -3899, -2829, -3891
0.351764, 2681, -33, 3585, -1929, -1401, -7667
0.351899, 2681, -33, 3585, -1929, -1401, -7667
0.352034, 2681, -33, 3585, -1929, -1401, -7667
0.352168, 2681, -33, 3585, -1929, -1401, -7667
0.352303, 2681, -33, 3585, -1929, -1401, -7667
0.352437, 2681, -33, 3585, -1929, -1401, -7667
0.352572, 2681, -33, 3585, -1929, -1401, -7667
0.352707, 2681, -33, 3585, -1929, -1401, -7667
0.352841, -4661, 506, 742, -518, 858, -7702
0.352976, -4661, 506, 742, -518, 858, -7702
0.353111, -4661, 506, 742, -518, 858, -7702
0.353246, -4661, 506, 742, -518, 858, -7702
0.353380, -4661, 506, 742, -518, 858, -7702
0.353515, -4661, 506, 742, -518, 858, -7702
0.353650, -4661, 506, 742, -518, 858, -7702
0.353784, -9986, 531, -926, -761, 2939, -3158
0.353919, -9986, 531, -926, -761, 2939, -3158
0.354054, -9986, 531, -926, -761, 2939, -3158
0.354188, -9986, 531, -926, -761, 2939, -3158
0.354323, -9986, 531, -926, -761, 2939, -3158
0.354458, -9986, 531, -926, -761, 2939, -3158
0.354592, -9986, 531, -926, -761, 2939, -3158
0.354727, -9986, 531, -926, -761, 2939, -3158
0.354862, -7247, 929, 1135, -1286, 3757, 3312
0.354997, -7247, 929, 1135, -1286, 3757, 3312
0.355131, -7247, 929, 1135, -1286, 3757, 3312
0.355266, -7247, 929, 1135, -1286, 3757, 3312
0.355401, -7247, 929, 1135, -1286, 3757, 3312
0.355535, -7247, 929, 1135, -1286, 3757, 3312
0.355670, -7247, 929, 1135, -1286, 3757, 3312
0.355804, 792, 790, 3018, -1374, 3524, 6632
0.355939, 792, 790, 3018, -1374, 3524, 6632
0.356074, 792, 790, 3018, -1374, 3524, 6632
0.356208, 792, 790, 3018, -1374, 3524, 6632
0.356343, 792, 790, 3018, -1374, 3524, 6632
0.356478, 792, 790, 3018, -1374, 3524, 6632
0.356613, 792, 790, 3018, -1374, 3524, 6632
0.356747, 792, 790, 3018, -1374, 3524, 6632
0.356882, 7420, 162, 2685, -2118, 2980, 4953
0.357017, 7420, 162, 2685, -2118, 2980, 4953
0.357151, 7420, 162, 2685, -2118, 2980, 4953
0.357286, 7420, 162, 2685, -2118, 2980, 4953
0.357421, 7420, 162, 2685, -2118, 2980, 4953
0.357555, 7420, 162, 2685, -2118, 2980, 4953
0.357690, 7420, 162, 2685, -2118, 2980, 4953
0.357824, 11709, -27, 2419, -3377, 2027, -470
0.357959, 11709, -27, 2419, -3377, 2027, -470
0.358094, 11709, -27, 2419, -3377, 2027, -470
0.358229, 11709, -27, 2419, -3377, 2027, -470
0.358363, 11709, -27, 2419, -3377, 2027, -470
0.358498, 11709, -27, 2419, -3377, 2027, -470
0.358633, 11709, -27, 2419, -3377, 2027, -470
0.358767, 11709, -27, 2419, -3377, 2027, -470
0.358902, 10784, 64, 2831, -3774, 1080, -7840
0.359037, 10784, 64, 2831, -3774, 1080, -7840
0.359172, 10784, 64, 2831, -3774, 1080, -7840
0.359306, 10784, 64, 2831, -3774, 1080, -7840
0.359441, 10784, 64, 2831, -3774, 1080, -7840
0.359576, 10784, 64, 2831, -3774, 1080, -7840
0.359710, 10784, 64, 2831, -3774, 1080, -7840
0.359845, 3924, 618, 1501, -3274, 1140, -13565
0.359980, 3924, 618, 1501, -3274, 1140, -13565
0.360114, 3924, 618, 1501, -3274, 1140, -13565
0.360258, 3924, 618, 1501, -3274, 1140, -13565
0.360393, 3924, 618, 1501, -3274, 1140, -13565
0.360528, 3924, 618, 1501, -3274, 1140, -13565
0.360662, 3924, 618, 1501, -3274, 1140, -13565
0.360797, 3924, 618, 1501, -3274, 1140, -13565
0.360931, -5488, 327, 133, -2599, 2380, -14353
0.361066, -5488, 327, 133, -2599, 2380, -14353
0.361201, -5488, 327, 133, -2599, 2380, -14353
0.361335, -5488, 327, 133, -2599, 2380, -14353
0.361470, -5488, 327, 133, -2599, 2380, -14353
0.361605, -5488, 327, 133, -2599, 2380, -14353
0.361739, -5488, 327, 133, -2599, 2380, -14353
0.361874, -10227, -73, 620, -1602, 3732, -9702
0.362009, -10227, -73, 620, -1602, 3732, -9702
0.362143, -10227, -73, 620, -1602, 3732, -9702
0.362278, -10227, -73, 620, -1602, 3732, -9702
0.362412, -10227, -73, 620, -1602, 3732, -9702
0.362547, -10227, -73, 620, -1602, 3732, -9702
0.362682, -10227, -73, 620, -1602, 3732, -9702
0.362819, -10227, -73, 620, -1602, 3732, -9702
0.362954, -6356, 730, 993, -887, 4073, -3527
0.363088, -6356, 730, 993, -887, 4073, -3527
0.363223, -6356, 730, 993, -887, 4073, -3527
0.363358, -6356, 730, 993, -887, 4073, -3527
0.363492, -6356, 730, 993, -887, 4073, -3527
