Time, ax, ay, az, gx, gy, gz
0.000026, -2556, 211, 1594, 2731, 2910, -4777
0.000215, -2556, 211, 1594, 2731, 2910, -4777
0.000369, -2556, 211, 1594, 2731, 2910, -4777
0.000510, -2556, 211, 1594, 2731, 2910, -4777
0.000655, -2556, 211, 1594, 2731, 2910, -4777
0.000821, -2556, 211, 1594, 2731, 2910, -4777
0.001011, -4711, 17, 1145, 2385, 2258, -2754
0.001172, -4711, 17, 1145, 2385, 2258, -2754
0.001323, -4711, 17, 1145, 2385, 2258, -2754
0.001466, -4711, 17, 1145, 2385, 2258, -2754
0.001607, -4711, 17, 1145, 2385, 2258, -2754
0.001752, -4711, 17, 1145, 2385, 2258, -2754
0.001894, -4711, 17, 1145, 2385, 2258, -2754
0.002038, -5939, -124, 708, 1667, 1091, 507
0.002187, -5939, -124, 708, 1667, 1091, 507
0.002327, -5939, -124, 708, 1667, 1091, 507
0.002468, -5939, -124, 708, 1667, 1091, 507
0.002611, -5939, -124, 708, 1667, 1091, 507
0.002758, -5939, -124, 708, 1667, 1091, 507
0.002900, -5939, -124, 708, 1667, 1091, 507
0.003054, -3931, -127, 887, 637, -708, 3838
0.003212, -3931, -127, 887, 637, -708, 3838
0.003359, -3931, -127, 887, 637, -708, 3838
0.003505, -3931, -127, 887, 637, -708, 3838
0.003652, -3931, -127, 887, 637, -708, 3838
0.003808, -3931, -127, 887, 637, -708, 3838
0.003957, -1340, 573, 541, -552, -2578, 5487
0.004102, -1340, 573, 541, -552, -2578, 5487
0.004245, -1340, 573, 541, -552, -2578, 5487
0.004390, -1340, 573, 541, -552, -2578, 5487
0.004530, -1340, 573, 541, -552, -2578, 5487
0.004670, -1340, 573, 541, -552, -2578, 5487
0.004808, -1340, 573, 541, -552, -2578, 5487
0.004947, -1340, 573, 541, -552, -2578, 5487
0.005087, -1005, 1221, -270, -2258, -3727, 5900
0.005344, -1005, 1221, -270, -2258, -3727, 5900
0.005498, -1005, 1221, -270, -2258, -3727, 5900
0.005641, -1005, 1221, -270, -2258, -3727, 5900
0.005779, -1005, 1221, -270, -2258, -3727, 5900
0.005918, -1005, 1221, -270, -2258, -3727, 5900
0.006058, -379, 1047, 233, -4072, -4227, 6339
0.006201, -379, 1047, 233, -4072, -4227, 6339
0.006344, -379, 1047, 233, -4072, -4227, 6339
0.006485, -379, 1047, 233, -4072, -4227, 6339
0.006625, -379, 1047, 233, -4072, -4227, 6339
0.006764, -379, 1047, 233, -4072, -4227, 6339
0.006902, -379, 1047, 233, -4072, -4227, 6339
0.007039, 2811, 237, 2733, -4858, -4416, 6057
0.007181, 2811, 237, 2733, -4858, -4416, 6057
0.007319, 2811, 237, 2733, -4858, -4416, 6057
0.007456, 2811, 237, 2733, -4858, -4416, 6057
0.007594, 2811, 237, 2733, -4858, -4416, 6057
0.007731, 2811, 237, 2733, -4858, -4416, 6057
0.007868, 2811, 237, 2733, -4858, -4416, 6057
0.008005, 6626, 67, 7626, -3052, -3827, 3538
0.008142, 6626, 67, 7626, -3052, -3827, 3538
0.008280, 6626, 67, 7626, -3052, -3827, 3538
0.008417, 6626, 67, 7626, -3052, -3827, 3538
0.008554, 6626, 67, 7626, -3052, -3827, 3538
0.008691, 6626, 67, 7626, -3052, -3827, 3538
0.008828, 6626, 67, 7626, -3052, -3827, 3538
0.008965, 6626, 67, 7626, -3052, -3827, 3538
0.009103, 6813, 1450, 7352, 1098, -1957, -696
0.009243, 6813, 1450, 7352, 1098, -1957, -696
0.009380, 6813, 1450, 7352, 1098, -1957, -696
0.009518, 6813, 1450, 7352, 1098, -1957, -696
0.009655, 6813, 1450, 7352, 1098, -1957, -696
0.009792, 6813, 1450, 7352, 1098, -1957, -696
0.009929, 6813, 1450, 7352, 1098, -1957, -696
0.010066, 4177, 1370, 1204, 3231, 370, -4330
0.010207, 4177, 1370, 1204, 3231, 370, -4330
0.010344, 4177, 1370, 1204, 3231, 370, -4330
0.010481, 4177, 1370, 1204, 3231, 370, -4330
0.010618, 4177, 1370, 1204, 3231, 370, -4330
0.010755, 4177, 1370, 1204, 3231, 370, -4330
0.010892, 4177, 1370, 1204, 3231, 370, -4330
0.011029, 4177, 1370, 1204, 3231, 370, -4330
0.011167, 1489, 102, -97, 2722, 2060, -6239
0.011307, 1489, 102, -97, 2722, 2060, -6239
0.011444, 1489, 102, -97, 2722, 2060, -6239
0.011581, 1489, 102, -97, 2722, 2060, -6239
0.011718, 1489, 102, -97, 2722, 2060, -6239
0.011856, 1489, 102, -97, 2722, 2060, -6239
0.011993, 1489, 102, -97, 2722, 2060, -6239
0.012130, 33, 183, 1940, 2697, 3203, -6599
0.012270, 33, 183, 1940, 2697, 3203, -6599
0.012408, 33, 183, 1940, 2697, 3203, -6599
0.012545, 33, 183, 1940, 2697, 3203, -6599
0.012682, 33, 183, 1940, 2697, 3203, -6599
0.012819, 33, 183, 1940, 2697, 3203, -6599
0.012956, 33, 183, 1940, 2697, 3203, -6599
0.013137, 45, 606, 2172, 3103, 4289, -6355
0.013281, 45, 606, 2172, 3103, 4289, -6355
0.013420, 45, 606, 2172, 3103, 4289, -6355
0.013557, 45, 606, 2172, 3103, 4289, -6355
0.013694, 45, 606, 2172, 3103, 4289, -6355
0.013831, 45, 606, 2172, 3103, 4289, -6355
0.013968, 45, 606, 2172, 3103, 4289, -6355
0.014105, 30, 572, 1966, 3124, 4977, -6302
0.014245, 30, 572, 1966, 3124, 4977, -6302
0.014384, 30, 572, 1966, 3124, 4977, -6302
0.014521, 30, 572, 1966, 3124, 4977, -6302
0.014658, 30, 572, 1966, 3124, 4977, -6302
0.014795, 30, 572, 1966, 3124, 4977, -6302
0.014932, 30, 572, 1966, 3124, 4977, -6302
0.015069, 30, 572, 1966, 3124, 4977, -6302
0.015206, -259, 430, 1980, 3063, 5063, -6268
0.015346, -259, 430, 1980, 3063, 5063, -6268
0.015483, -259, 430, 1980, 3063, 5063, -6268
0.015620, -259, 430, 1980, 3063, 5063, -6268
0.015758, -259, 430, 1980, 3063, 5063, -6268
0.015895, -259, 430, 1980, 3063, 5063, -6268
0.016032, -259, 430, 1980, 3063, 5063, -6268
0.016169, -656, 387, 2076, 3060, 4743, -6095
0.016310, -656, 387, 2076, 3060, 4743, -6095
0.016447, -656, 387, 2076, 3060, 4743, -6095
0.016584, -656, 387, 2076, 3060, 4743, -6095
0.016721, -656, 387, 2076, 3060, 4743, -6095
0.016858, -656, 387, 2076, 3060, 4743, -6095
0.016995, -656, 387, 2076, 3060, 4743, -6095
0.017132, -1553, 350, 2326, 3161, 3855, -5658
0.017269, -1553, 350, 2326, 3161, 3855, -5658
0.017406, -1553, 350, 2326, 3161, 3855, -5658
0.017543, -1553, 350, 2326, 3161, 3855, -5658
0.017681, -1553, 350, 2326, 3161, 3855, -5658
0.017818, -1553, 350, 2326, 3161, 3855, -5658
0.017955, -1553, 350, 2326, 3161, 3855, -5658
0.018092, -1553, 350, 2326, 3161, 3855, -5658
0.018229, -3150, 366, 2721, 3623, 2575, -4557
0.018369, -3150, 366, 2721, 3623, 2575, -4557
0.018506, -3150, 366, 2721, 3623, 2575, -4557
0.018643, -3150, 366, 2721, 3623, 2575, -4557
0.018780, -3150, 366, 2721, 3623, 2575, -4557
0.018918, -3150, 366, 2721, 3623, 2575, -4557
0.019055, -3150, 366, 2721, 3623, 2575, -4557
0.019192, -4834, 584, 2844, 4386, 1288, -2318
0.019332, -4834, 584, 2844, 4386, 1288, -2318
0.019469, -4834, 584, 2844, 4386, 1288, -2318
0.019606, -4834, 584, 2844, 4386, 1288, -2318
0.019743, -4834, 584, 2844, 4386, 1288, -2318
0.019881, -4834, 584, 2844, 4386, 1288, -2318
0.020019, -4834, 584, 2844, 4386, 1288, -2318
0.020156, -4834, 584, 2844, 4386, 1288, -2318
0.020293, -4596, 680, 2868, 5005, -70, 772
0.020433, -4596, 680, 2868, 5005, -70, 772
0.020571, -4596, 680, 2868, 5005, -70, 772
0.020708, -4596, 680, 2868, 5005, -70, 772
0.020845, -4596, 680, 2868, 5005, -70, 772
0.020982, -4596, 680, 2868, 5005, -70, 772
0.021119, -4596, 680, 2868, 5005, -70, 772
0.021256, -2145, 719, 3136, 5413, -1590, 3153
0.021396, -2145, 719, 3136, 5413, -1590, 3153
0.021533, -2145, 719, 3136, 5413, -1590, 3153
0.021670, -2145, 719, 3136, 5413, -1590, 3153
0.021807, -2145, 719, 3136, 5413, -1590, 3153
0.021945, -2145, 719, 3136, 5413, -1590, 3153
0.022082, -2145, 719, 3136, 5413, -1590, 3153
0.022219, -906, 1104, 2890, 5718, -2804, 3941
0.022360, -906, 1104, 2890, 5718, -2804, 3941
0.022497, -906, 1104, 2890, 5718, -2804, 3941
0.022634, -906, 1104, 2890, 5718, -2804, 3941
0.022771, -906, 1104, 2890, 5718, -2804, 3941
0.022909, -906, 1104, 2890, 5718, -2804, 3941
0.023046, -906, 1104, 2890, 5718, -2804, 3941
0.023183, -906, 1104, 2890, 5718, -2804, 3941
0.023320, -2059, 1062, 2149, 5700, -3266, 4553
0.023460, -2059, 1062, 2149, 5700, -3266, 4553
0.023597, -2059, 1062, 2149, 5700, -3266, 4553
0.023734, -2059, 1062, 2149, 5700, -3266, 4553
0.023872, -2059, 1062, 2149, 5700, -3266, 4553
0.024009, -2059, 1062, 2149, 5700, -3266, 4553
0.024146, -2059, 1062, 2149, 5700, -3266, 4553
0.024283, -2421, 760, 1625, 5379, -3433, 5963
0.024423, -2421, 760, 1625, 5379, -3433, 5963
0.024560, -2421, 760, 1625, 5379, -3433, 5963
0.024697, -2421, 760, 1625, 5379, -3433, 5963
0.024834, -2421, 760, 1625, 5379, -3433, 5963
0.024972, -2421, 760, 1625, 5379, -3433, 5963
0.025109, -2421, 760, 1625, 5379, -3433, 5963
0.025246, 13, 611, 1788, 5001, -3784, 6964
0.025383, 13, 611, 1788, 5001, -3784, 6964
0.025528, 13, 611, 1788, 5001, -3784, 6964
0.025665, 13, 611, 1788, 5001, -3784, 6964
0.025803, 13, 611, 1788, 5001, -3784, 6964
0.025940, 13, 611, 1788, 5001, -3784, 6964
0.026077, 13, 611, 1788, 5001, -3784, 6964
0.026214, 13, 611, 1788, 5001, -3784, 6964
0.026351, 3043, 136, 1428, 4466, -4024, 6147
0.026491, 3043, 136, 1428, 4466, -4024, 6147
0.026628, 3043, 136, 1428, 4466, -4024, 6147
0.026765, 3043, 136, 1428, 4466, -4024, 6147
0.026902, 3043, 136, 1428, 4466, -4024, 6147
0.027039, 3043, 136, 1428, 4466, -4024, 6147
0.027177, 3043, 136, 1428, 4466, -4024, 6147
0.027314, 3906, -84, 32, 3349, -3670, 3776
0.027454, 3906, -84, 32, 3349, -3670, 3776
0.027591, 3906, -84, 32, 3349, -3670, 3776
0.027728, 3906, -84, 32, 3349, -3670, 3776
0.027866, 3906, -84, 32, 3349, -3670, 3776
0.028004, 3906, -84, 32, 3349, -3670, 3776
0.028141, 3906, -84, 32, 3349, -3670, 3776
0.028278, 4232, 64, 139, 1933, -2640, 1198
0.028415, 4232, 64, 139, 1933, -2640, 1198
0.028552, 4232, 64, 139, 1933, -2640, 1198
0.028689, 4232, 64, 139, 1933, -2640, 1198
0.028826, 4232, 64, 139, 1933, -2640, 1198
0.028963, 4232, 64, 139, 1933, -2640, 1198
0.029100, 4232, 64, 139, 1933, -2640, 1198
0.029237, 4232, 64, 139, 1933, -2640, 1198
0.029374, 5480, 393, 1615, 1349, -1147, -1746
0.029515, 5480, 393, 1615, 1349, -1147, -1746
0.029652, 5480, 393, 1615, 1349, -1147, -1746
0.029789, 5480, 393, 1615, 1349, -1147, -1746
0.029926, 5480, 393, 1615, 1349, -1147, -1746
0.030063, 5480, 393, 1615, 1349, -1147, -1746
0.030200, 5480, 393, 1615, 1349, -1147, -1746
0.030337, 4307, 789, 2250, 1721, 845, -5134
0.030477, 4307, 789, 2250, 1721, 845, -5134
0.030614, 4307, 789, 2250, 1721, 845, -5134
0.030751, 4307, 789, 2250, 1721, 845, -5134
0.030888, 4307, 789, 2250, 1721, 845, -5134
0.031025, 4307, 789, 2250, 1721, 845, -5134
0.031161, 4307, 789, 2250, 1721, 845, -5134
0.031296, 4307, 789, 2250, 1721, 845, -5134
0.031432, 963, 643, 1978, 2291, 2947, -6980
0.031568, 963, 643, 1978, 2291, 2947, -6980
0.031703, 963, 643, 1978, 2291, 2947, -6980
0.031840, 963, 643, 1978, 2291, 2947, -6980
0.031977, 963, 643, 1978, 2291, 2947, -6980
0.032114, 963, 643, 1978, 2291, 2947, -6980
0.032252, 963, 643, 1978, 2291, 2947, -6980
0.032389, -342, 332, 1693, 2749, 4193, -6917
0.032529, -342, 332, 1693, 2749, 4193, -6917
0.032666, -342, 332, 1693, 2749, 4193, -6917
0.032803, -342, 332, 1693, 2749, 4193, -6917
0.032940, -342, 332, 1693, 2749, 4193, -6917
0.033077, -342, 332, 1693, 2749, 4193, -6917
0.033214, -342, 332, 1693, 2749, 4193, -6917
0.033351, -134, 398, 1828, 3043, 4457, -6573
0.033488, -134, 398, 1828, 3043, 4457, -6573
0.033626, -134, 398, 1828, 3043, 4457, -6573
0.033763, -134, 398, 1828, 3043, 4457, -6573
0.033900, -134, 398, 1828, 3043, 4457, -6573
0.034036, -134, 398, 1828, 3043, 4457, -6573
0.034173, -134, 398, 1828, 3043, 4457, -6573
0.034311, -134, 398, 1828, 3043, 4457, -6573
0.034448, -412, 501, 2000, 3094, 4207, -6365
0.034588, -412, 501, 2000, 3094, 4207, -6365
0.034725, -412, 501, 2000, 3094, 4207, -6365
0.034862, -412, 501, 2000, 3094, 4207, -6365
0.034999, -412, 501, 2000, 3094, 4207, -6365
0.035136, -412, 501, 2000, 3094, 4207, -6365
0.035273, -412, 501, 2000, 3094, 4207, -6365
0.035410, -1038, 418, 1899, 3001, 3680, -5931
0.035551, -1038, 418, 1899, 3001, 3680, -5931
0.035688, -1038, 418, 1899, 3001, 3680, -5931
0.035825, -1038, 418, 1899, 3001, 3680, -5931
0.035961, -1038, 418, 1899, 3001, 3680, -5931
0.036096, -1038, 418, 1899, 3001, 3680, -5931
0.036232, -1038, 418, 1899, 3001, 3680, -5931
0.036367, -1038, 418, 1899, 3001, 3680, -5931
0.036503, -1957, 361, 1746, 2925, 3041, -5099
0.036639, -1957, 361, 1746, 2925, 3041, -5099
0.036774, -1957, 361, 1746, 2925, 3041, -5099
0.036910, -1957, 361, 1746, 2925, 3041, -5099
0.037045, -1957, 361, 1746, 2925, 3041, -5099
0.037181, -1957, 361, 1746, 2925, 3041, -5099
0.037316, -1957, 361, 1746, 2925, 3041, -5099
0.037452, -2336, 376, 1716, 2825, 2294, -3735
0.037588, -2336, 376, 1716, 2825, 2294, -3735
0.037723, -2336, 376, 1716, 2825, 2294, -3735
0.037859, -2336, 376, 1716, 2825, 2294, -3735
0.037994, -2336, 376, 1716, 2825, 2294, -3735
0.038136, -2336, 376, 1716, 2825, 2294, -3735
0.038272, -2336, 376, 1716, 2825, 2294, -3735
0.038407, -2336, 376, 1716, 2825, 2294, -3735
0.038542, -893, 357, 1899, 2671, 1280, -2503
0.038678, -893, 357, 1899, 2671, 1280, -2503
0.038814, -893, 357, 1899, 2671, 1280, -2503
0.038949, -893, 357, 1899, 2671, 1280, -2503
0.039084, -893, 357, 1899, 2671, 1280, -2503
0.039219, -893, 357, 1899, 2671, 1280, -2503
0.039355, -893, 357, 1899, 2671, 1280, -2503
0.039490, 1131, 578, 2253, 2647, 237, -2485
0.039626, 1131, 578, 2253, 2647, 237, -2485
0.039761, 1131, 578, 2253, 2647, 237, -2485
0.039898, 1131, 578, 2253, 2647, 237, -2485
0.040035, 1131, 578, 2253, 2647, 237, -2485
0.040172, 1131, 578, 2253, 2647, 237, -2485
0.040309, 1131, 578, 2253, 2647, 237, -2485
0.040446, 1747, 962, 2405, 2867, -252, -3508
0.040583, 1747, 962, 2405, 2867, -252, -3508
0.040720, 1747, 962, 2405, 2867, -252, -3508
0.040857, 1747, 962, 2405, 2867, -252, -3508
0.040994, 1747, 962, 2405, 2867, -252, -3508
0.041131, 1747, 962, 2405, 2867, -252, -3508
0.041268, 1747, 962, 2405, 2867, -252, -3508
0.041404, 1747, 962, 2405, 2867, -252, -3508
0.041541, 1143, 894, 2198, 3169, -50, -4537
0.041681, 1143, 894, 2198, 3169, -50, -4537
0.041818, 1143, 894, 2198, 3169, -50, -4537
0.041955, 1143, 894, 2198, 3169, -50, -4537
0.042092, 1143, 894, 2198, 3169, -50, -4537
0.042229, 1143, 894, 2198, 3169, -50, -4537
0.042366, 1143, 894, 2198, 3169, -50, -4537
0.042502, 314, 555, 1928, 3445, 464, -5022
0.042640, 314, 555, 1928, 3445, 464, -5022
0.042777, 314, 555, 1928, 3445, 464, -5022
0.042913, 314, 555, 1928, 3445, 464, -5022
0.043050, 314, 555, 1928, 3445, 464, -5022
0.043187, 314, 555, 1928, 3445, 464, -5022
0.043324, 314, 555, 1928, 3445, 464, -5022
0.043461, 314, 555, 1928, 3445, 464, -5022
0.043598, -97, 482, 1838, 3665, 942, -5005
0.043738, -97, 482, 1838, 3665, 942, -5005
0.043876, -97, 482, 1838, 3665, 942, -5005
0.044015, -97, 482, 1838, 3665, 942, -5005
0.044154, -97, 482, 1838, 3665, 942, -5005
0.044292, -97, 482, 1838, 3665, 942, -5005
0.044429, -97, 482, 1838, 3665, 942, -5005
0.044567, -50, 557, 1928, 3792, 1385, -4781
0.044708, -50, 557, 1928, 3792, 1385, -4781
0.044846, -50, 557, 1928, 3792, 1385, -4781
0.044995, -50, 557, 1928, 3792, 1385, -4781
0.045133, -50, 557, 1928, 3792, 1385, -4781
0.045271, -50, 557, 1928, 3792, 1385, -4781
0.045409, -50, 557, 1928, 3792, 1385, -4781
0.045546, -172, 571, 2134, 3851, 1849, -4589
0.045688, -172, 571, 2134, 3851, 1849, -4589
0.045826, -172, 571, 2134, 3851, 1849, -4589
0.045964, -172, 571, 2134, 3851, 1849, -4589
0.046101, -172, 571, 2134, 3851, 1849, -4589
0.046239, -172, 571, 2134, 3851, 1849, -4589
0.046376, -172, 571, 2134, 3851, 1849, -4589
0.046513, -172, 571, 2134, 3851, 1849, -4589
0.046650, -1093, 732, 2394, 3939, 2200, -4302
0.046791, -1093, 732, 2394, 3939, 2200, -4302
0.046928, -1093, 732, 2394, 3939, 2200, -4302
0.047066, -1093, 732, 2394, 3939, 2200, -4302
0.047203, -1093, 732, 2394, 3939, 2200, -4302
0.047341, -1093, 732, 2394, 3939, 2200, -4302
0.047478, -1093, 732, 2394, 3939, 2200, -4302
0.047616, -1948, 914, 2454, 4103, 2312, -3455
0.047756, -1948, 914, 2454, 4103, 2312, -3455
0.047895, -1948, 914, 2454, 4103, 2312, -3455
0.048032, -1948, 914, 2454, 4103, 2312, -3455
0.048170, -1948, 914, 2454, 4103, 2312, -3455
0.048307, -1948, 914, 2454, 4103, 2312, -3455
0.048445, -1948, 914, 2454, 4103, 2312, -3455
0.048582, -1015, 832, 2196, 4190, 2010, -2397
0.048723, -1015, 832, 2196, 4190, 2010, -2397
0.048861, -1015, 832, 2196, 4190, 2010, -2397
0.048998, -1015, 832, 2196, 4190, 2010, -2397
0.049136, -1015, 832, 2196, 4190, 2010, -2397
0.049272, -1015, 832, 2196, 4190, 2010, -2397
0.049410, -1015, 832, 2196, 4190, 2010, -2397
0.049547, -1015, 832, 2196, 4190, 2010, -2397
0.049684, 608, 508, 1873, 4085, 1405, -2236
0.049825, 608, 508, 1873, 4085, 1405, -2236
0.049963, 608, 508, 1873, 4085, 1405, -2236
0.050098, 608, 508, 1873, 4085, 1405, -2236
0.050238, 608, 508, 1873, 4085, 1405, -2236
0.050377, 608, 508, 1873, 4085, 1405, -2236
0.050515, 608, 508, 1873, 4085, 1405, -2236
0.050653, 987, 147, 1644, 3847, 933, -2892
0.050805, 987, 147, 1644, 3847, 933, -2892
0.050942, 987, 147, 1644, 3847, 933, -2892
0.051081, 987, 147, 1644, 3847, 933, -2892
0.051218, 987, 147, 1644, 3847, 933, -2892
0.051355, 987, 147, 1644, 3847, 933, -2892
0.051492, 987, 147, 1644, 3847, 933, -2892
0.051629, 915, 251, 1625, 3587, 637, -3648
0.051771, 915, 251, 1625, 3587, 637, -3648
0.051910, 915, 251, 1625, 3587, 637, -3648
0.052048, 915, 251, 1625, 3587, 637, -3648
0.052185, 915, 251, 1625, 3587, 637, -3648
0.052323, 915, 251, 1625, 3587, 637, -3648
0.052460, 915, 251, 1625, 3587, 637, -3648
0.052597, 915, 251, 1625, 3587, 637, -3648
0.052734, 648, 575, 1798, 3448, 543, -4379
0.052876, 648, 575, 1798, 3448, 543, -4379
0.053014, 648, 575, 1798, 3448, 543, -4379
0.053151, 648, 575, 1798, 3448, 543, -4379
0.053287, 648, 575, 1798, 3448, 543, -4379
0.053421, 648, 575, 1798, 3448, 543, -4379
0.053555, 648, 575, 1798, 3448, 543, -4379
0.053689, -234, 589, 1892, 3465, 841, -4688
0.053823, -234, 589, 1892, 3465, 841, -4688
0.053957, -234, 589, 1892, 3465, 841, -4688
0.054091, -234, 589, 1892, 3465, 841, -4688
0.054225, -234, 589, 1892, 3465, 841, -4688
0.054360, -234, 589, 1892, 3465, 841, -4688
0.054494, -234, 589, 1892, 3465, 841, -4688
0.054628, -234, 589, 1892, 3465, 841, -4688
0.054762, -552, 552, 1886, 3542, 1211, -4350
0.054896, -552, 552, 1886, 3542, 1211, -4350
0.055030, -552, 552, 1886, 3542, 1211, -4350
0.055164, -552, 552, 1886, 3542, 1211, -4350
0.055298, -552, 552, 1886, 3542, 1211, -4350
0.055432, -552, 552, 1886, 3542, 1211, -4350
0.055567, -552, 552, 1886, 3542, 1211, -4350
0.055701, 23, 572, 1924, 3590, 1314, -4029
0.055835, 23, 572, 1924, 3590, 1314, -4029
0.055969, 23, 572, 1924, 3590, 1314, -4029
0.056104, 23, 572, 1924, 3590, 1314, -4029
0.056238, 23, 572, 1924, 3590, 1314, -4029
0.056372, 23, 572, 1924, 3590, 1314, -4029
0.056506, 23, 572, 1924, 3590, 1314, -4029
0.056640, 23, 572, 1924, 3590, 1314, -4029
0.056774, 409, 528, 1961, 3558, 1273, -4149
0.056909, 409, 528, 1961, 3558, 1273, -4149
0.057043, 409, 528, 1961, 3558, 1273, -4149
0.057177, 409, 528, 1961, 3558, 1273, -4149
0.057311, 409, 528, 1961, 3558, 1273, -4149
0.057445, 409, 528, 1961, 3558, 1273, -4149
0.057579, 409, 528, 1961, 3558, 1273, -4149
0.057714, 234, 511, 1937, 3479, 1274, -4424
0.057848, 234, 511, 1937, 3479, 1274, -4424
0.057982, 234, 511, 1937, 3479, 1274, -4424
0.058116, 234, 511, 1937, 3479, 1274, -4424
0.058250, 234, 511, 1937, 3479, 1274, -4424
0.058384, 234, 511, 1937, 3479, 1274, -4424
0.058518, 234, 511, 1937, 3479, 1274, -4424
0.058652, 234, 511, 1937, 3479, 1274, -4424
0.058787, -240, 493, 1907, 3446, 1382, -4514
0.058921, -240, 493, 1907, 3446, 1382, -4514
0.059055, -240, 493, 1907, 3446, 1382, -4514
0.059189, -240, 493, 1907, 3446, 1382, -4514
0.059323, -240, 493, 1907, 3446, 1382, -4514
0.059457, -240, 493, 1907, 3446, 1382, -4514
0.059591, -240, 493, 1907, 3446, 1382, -4514
0.059726, -861, 427, 1932, 3480, 1528, -4234
0.059860, -861, 427, 1932, 3480, 1528, -4234
0.059994, -861, 427, 1932, 3480, 1528, -4234
0.060128, -861, 427, 1932, 3480, 1528, -4234
0.060262, -861, 427, 1932, 3480, 1528, -4234
0.060397, -861, 427, 1932, 3480, 1528, -4234
0.060531, -861, 427, 1932, 3480, 1528, -4234
0.060665, -861, 427, 1932, 3480, 1528, -4234
0.060799, -1162, 381, 2033, 3544, 1518, -3589
0.060933, -1162, 381, 2033, 3544, 1518, -3589
0.061068, -1162, 381, 2033, 3544, 1518, -3589
0.061202, -1162, 381, 2033, 3544, 1518, -3589
0.061336, -1162, 381, 2033, 3544, 1518, -3589
0.061470, -1162, 381, 2033, 3544, 1518, -3589
0.061604, -1162, 381, 2033, 3544, 1518, -3589
0.061738, -1658, 214, 2035, 3577, 1312, -2818
0.061872, -1658, 214, 2035, 3577, 1312, -2818
0.062007, -1658, 214, 2035, 3577, 1312, -2818
0.062141, -1658, 214, 2035, 3577, 1312, -2818
0.062274, -1658, 214, 2035, 3577, 1312, -2818
0.062410, -1658, 214, 2035, 3577, 1312, -2818
0.062539, -1658, 214, 2035, 3577, 1312, -2818
0.062674, -1658, 214, 2035, 3577, 1312, -2818
0.062808, -4405, -220, 1544, 3412, 1086, -1348
0.062943, -4405, -220, 1544, 3412, 1086, -1348
0.063078, -4405, -220, 1544, 3412, 1086, -1348
0.063229, -4405, -220, 1544, 3412, 1086, -1348
0.063364, -4405, -220, 1544, 3412, 1086, -1348
0.063498, -4405, -220, 1544, 3412, 1086, -1348
0.063632, -4405, -220, 1544, 3412, 1086, -1348
0.063767, -6736, -450, 745, 2766, 463, 2046
0.063901, -6736, -450, 745, 2766, 463, 2046
0.064031, -6736, -450, 745, 2766, 463, 2046
0.064170, -6736, -450, 745, 2766, 463, 2046
0.064304, -6736, -450, 745, 2766, 463, 2046
0.064439, -6736, -450, 745, 2766, 463, 2046
0.064573, -6736, -450, 745, 2766, 463, 2046
0.064707, -6736, -450, 745, 2766, 463, 2046
0.064841, -3875, 143, 379, 1555, -1318, 5764
0.064976, -3875, 143, 379, 1555, -1318, 5764
0.065110, -3875, 143, 379, 1555, -1318, 5764
0.065244, -3875, 143, 379, 1555, -1318, 5764
0.065388, -3875, 143, 379, 1555, -1318, 5764
0.065533, -3875, 143, 379, 1555, -1318, 5764
0.065671, -3875, 143, 379, 1555, -1318, 5764
0.065806, -1036, 800, 568, -36, -3495, 6996
0.065940, -1036, 800, 568, -36, -3495, 6996
0.066075, -1036, 800, 568, -36, -3495, 6996
0.066209, -1036, 800, 568, -36, -3495, 6996
0.066343, -1036, 800, 568, -36, -3495, 6996
0.066477, -1036, 800, 568, -36, -3495, 6996
0.066611, -1036, 800, 568, -36, -3495, 6996
0.066746, -1036, 800, 568, -36, -3495, 6996
0.066880, -3614, 851, 464, -1641, -4621, 7478
0.067015, -3614, 851, 464, -1641, -4621, 7478
0.067149, -3614, 851, 464, -1641, -4621, 7478
0.067283, -3614, 851, 464, -1641, -4621, 7478
0.067417, -3614, 851, 464, -1641, -4621, 7478
0.067552, -3614, 851, 464, -1641, -4621, 7478
0.067686, -3614, 851, 464, -1641, -4621, 7478
0.067821, -8247, 811, -2154, -3699, -5028, 10602
0.067956, -8247, 811, -2154, -3699, -5028, 10602
0.068090, -8247, 811, -2154, -3699, -5028, 10602
0.068224, -8247, 811, -2154, -3699, -5028, 10602
0.068359, -8247, 811, -2154, -3699, -5028, 10602
0.068493, -8247, 811, -2154, -3699, -5028, 10602
0.068627, -8247, 811, -2154, -3699, -5028, 10602
0.068761, -8247, 811, -2154, -3699, -5028, 10602
0.068895, -10134, 523, -5228, -7599, -6226, 16488
0.069030, -10134, 523, -5228, -7599, -6226, 16488
0.069164, -10134, 523, -5228, -7599, -6226, 16488
0.069298, -10134, 523, -5228, -7599, -6226, 16488
0.069432, -10134, 523, -5228, -7599, -6226, 16488
0.069567, -10134, 523, -5228, -7599, -6226, 16488
0.069701, -10134, 523, -5228, -7599, -6226, 16488
0.069835, -10134, 523, -5228, -7599, -6226, 16488
0.069969, -3367, -1004, 793, -11394, -8854, 21710
0.070104, -3367, -1004, 793, -11394, -8854, 21710
0.070238, -3367, -1004, 793, -11394, -8854, 21710
0.070372, -3367, -1004, 793, -11394, -8854, 21710
0.070506, -3367, -1004, 793, -11394, -8854, 21710
0.070641, -3367, -1004, 793, -11394, -8854, 21710
0.070775, -3367, -1004, 793, -11394, -8854, 21710
0.070909, 5196, -143, 7621, -10884, -10875, 21795
0.071044, 5196, -143, 7621, -10884, -10875, 21795
0.071178, 5196, -143, 7621, -10884, -10875, 21795
0.071312, 5196, -143, 7621, -10884, -10875, 21795
0.071446, 5196, -143, 7621, -10884, -10875, 21795
0.071581, 5196, -143, 7621, -10884, -10875, 21795
0.071715, 5196, -143, 7621, -10884, -10875, 21795
0.071849, 5196, -143, 7621, -10884, -10875, 21795
0.071984, 7002, 2414, 4962, -8533, -10222, 17689
0.072118, 7002, 2414, 4962, -8533, -10222, 17689
0.072252, 7002, 2414, 4962, -8533, -10222, 17689
0.072386, 7002, 2414, 4962, -8533, -10222, 17689
0.072521, 7002, 2414, 4962, -8533, -10222, 17689
0.072655, 7002, 2414, 4962, -8533, -10222, 17689
0.072789, 7002, 2414, 4962, -8533, -10222, 17689
0.072923, 8149, 1097, 4346, -7391, -8224, 12881
0.073057, 8149, 1097, 4346, -7391, -8224, 12881
0.073192, 8149, 1097, 4346, -7391, -8224, 12881
0.073326, 8149, 1097, 4346, -7391, -8224, 12881
0.073460, 8149, 1097, 4346, -7391, -8224, 12881
0.073594, 8149, 1097, 4346, -7391, -8224, 12881
0.073729, 8149, 1097, 4346, -7391, -8224, 12881
0.073863, 8149, 1097, 4346, -7391, -8224, 12881
0.073997, 7578, 343, 4304, -5370, -6209, 7675
0.074131, 7578, 343, 4304, -5370, -6209, 7675
0.074266, 7578, 343, 4304, -5370, -6209, 7675
0.074400, 7578, 343, 4304, -5370, -6209, 7675
0.074534, 7578, 343, 4304, -5370, -6209, 7675
0.074668, 7578, 343, 4304, -5370, -6209, 7675
0.074802, 7578, 343, 4304, -5370, -6209, 7675
0.074957, 3650, 1258, 1454, -3847, -4104, 3484
0.075092, 3650, 1258, 1454, -3847, -4104, 3484
0.075226, 3650, 1258, 1454, -3847, -4104, 3484
0.075361, 3650, 1258, 1454, -3847, -4104, 3484
0.075495, 3650, 1258, 1454, -3847, -4104, 3484
0.075630, 3650, 1258, 1454, -3847, -4104, 3484
0.075765, 3650, 1258, 1454, -3847, -4104, 3484
0.075900, 3650, 1258, 1454, -3847, -4104, 3484
0.076035, 875, 741, 1786, -3681, -2498, 1868
0.076169, 875, 741, 1786, -3681, -2498, 1868
0.076303, 875, 741, 1786, -3681, -2498, 1868
0.076438, 875, 741, 1786, -3681, -2498, 1868
0.076572, 875, 741, 1786, -3681, -2498, 1868
0.076706, 875, 741, 1786, -3681, -2498, 1868
0.076840, 875, 741, 1786, -3681, -2498, 1868
0.076974, 17, 366, 2257, -3028, -1148, 1734
0.077109, 17, 366, 2257, -3028, -1148, 1734
0.077243, 17, 366, 2257, -3028, -1148, 1734
0.077377, 17, 366, 2257, -3028, -1148, 1734
0.077511, 17, 366, 2257, -3028, -1148, 1734
0.077645, 17, 366, 2257, -3028, -1148, 1734
0.077779, 17, 366, 2257, -3028, -1148, 1734
0.077913, 17, 366, 2257, -3028, -1148, 1734
0.078048, 70, 434, 1383, -2826, 635, 1963
0.078182, 70, 434, 1383, -2826, 635, 1963
0.078316, 70, 434, 1383, -2826, 635, 1963
0.078450, 70, 434, 1383, -2826, 635, 1963
0.078584, 70, 434, 1383, -2826, 635, 1963
0.078719, 70, 434, 1383, -2826, 635, 1963
0.078853, 70, 434, 1383, -2826, 635, 1963
0.078987, 733, 607, 3079, -2985, 1887, 2098
0.079121, 733, 607, 3079, -2985, 1887, 2098
0.079255, 733, 607, 3079, -2985, 1887, 2098
0.079390, 733, 607, 3079, -2985, 1887, 2098
0.079524, 733, 607, 3079, -2985, 1887, 2098
0.079658, 733, 607, 3079, -2985, 1887, 2098
0.079793, 733, 607, 3079, -2985, 1887, 2098
0.079927, 733, 607, 3079, -2985, 1887, 2098
0.080061, 1599, 1002, 5397, -1607, 2224, 1552
0.080195, 1599, 1002, 5397, -1607, 2224, 1552
0.080329, 1599, 1002, 5397, -1607, 2224, 1552
0.080464, 1599, 1002, 5397, -1607, 2224, 1552
0.080598, 1599, 1002, 5397, -1607, 2224, 1552
0.080732, 1599, 1002, 5397, -1607, 2224, 1552
0.080866, 1599, 1002, 5397, -1607, 2224, 1552
0.081000, 938, 1213, 4037, 374, 2338, 516
0.081135, 938, 1213, 4037, 374, 2338, 516
0.081269, 938, 1213, 4037, 374, 2338, 516
0.081403, 938, 1213, 4037, 374, 2338, 516
0.081537, 938, 1213, 4037, 374, 2338, 516
0.081671, 938, 1213, 4037, 374, 2338, 516
0.081805, 938, 1213, 4037, 374, 2338, 516
0.081940, 938, 1213, 4037, 374, 2338, 516
0.082074, -1467, 1027, 2088, 1234, 1876, 244
0.082208, -1467, 1027, 2088, 1234, 1876, 244
0.082342, -1467, 1027, 2088, 1234, 1876, 244
0.082476, -1467, 1027, 2088, 1234, 1876, 244
0.082610, -1467, 1027, 2088, 1234, 1876, 244
0.082745, -1467, 1027, 2088, 1234, 1876, 244
0.082879, -1467, 1027, 2088, 1234, 1876, 244
0.083013, -1467, 1027, 2088, 1234, 1876, 244
0.083147, -3251, 1152, 2123, 1626, 575, 1578
0.083281, -3251, 1152, 2123, 1626, 575, 1578
0.083415, -3251, 1152, 2123, 1626, 575, 1578
0.083550, -3251, 1152, 2123, 1626, 575, 1578
0.083684, -3251, 1152, 2123, 1626, 575, 1578
0.083818, -3251, 1152, 2123, 1626, 575, 1578
0.083953, -3251, 1152, 2123, 1626, 575, 1578
0.084087, 204, 1166, 3018, 2293, -1062, 3203
0.084221, 204, 1166, 3018, 2293, -1062, 3203
0.084355, 204, 1166, 3018, 2293, -1062, 3203
0.084489, 204, 1166, 3018, 2293, -1062, 3203
0.084623, 204, 1166, 3018, 2293, -1062, 3203
0.084758, 204, 1166, 3018, 2293, -1062, 3203
0.084892, 204, 1166, 3018, 2293, -1062, 3203
0.085026, 204, 1166, 3018, 2293, -1062, 3203
0.085160, 5280, 412, 2919, 2926, -2363, 1905
0.085294, 5280, 412, 2919, 2926, -2363, 1905
0.085428, 5280, 412, 2919, 2926, -2363, 1905
0.085562, 5280, 412, 2919, 2926, -2363, 1905
0.085697, 5280, 412, 2919, 2926, -2363, 1905
0.085831, 5280, 412, 2919, 2926, -2363, 1905
0.085965, 5280, 412, 2919, 2926, -2363, 1905
0.086099, 2672, -341, 1212, 2986, -2395, -1272
0.086233, 2672, -341, 1212, 2986, -2395, -1272
0.086367, 2672, -341, 1212, 2986, -2395, -1272
0.086502, 2672, -341, 1212, 2986, -2395, -1272
0.086636, 2672, -341, 1212, 2986, -2395, -1272
0.086770, 2672, -341, 1212, 2986, -2395, -1272
0.086904, 2672, -341, 1212, 2986, -2395, -1272
0.087038, 2672, -341, 1212, 2986, -2395, -1272
0.087179, -1949, -640, 193, 2548, -1566, -1716
0.087317, -1949, -640, 193, 2548, -1566, -1716
0.087451, -1949, -640, 193, 2548, -1566, -1716
0.087586, -1949, -640, 193, 2548, -1566, -1716
0.087720, -1949, -640, 193, 2548, -1566, -1716
0.087854, -1949, -640, 193, 2548, -1566, -1716
0.087989, -1949, -640, 193, 2548, -1566, -1716
0.088123, -1519, -279, 657, 2186, -1118, -204
0.088257, -1519, -279, 657, 2186, -1118, -204
0.088391, -1519, -279, 657, 2186, -1118, -204
0.088525, -1519, -279, 657, 2186, -1118, -204
0.088660, -1519, -279, 657, 2186, -1118, -204
0.088794, -1519, -279, 657, 2186, -1118, -204
0.088928, -1519, -279, 657, 2186, -1118, -204
0.089062, -1519, -279, 657, 2186, -1118, -204
0.089196, -393, 538, 1517, 1978, -923, 466
0.089330, -393, 538, 1517, 1978, -923, 466
0.089465, -393, 538, 1517, 1978, -923, 466
0.089599, -393, 538, 1517, 1978, -923, 466
0.089733, -393, 538, 1517, 1978, -923, 466
0.089868, -393, 538, 1517, 1978, -923, 466
0.090002, -393, 538, 1517, 1978, -923, 466
0.090136, 1013, 842, 1955, 1696, -696, 460
0.090271, 1013, 842, 1955, 1696, -696, 460
0.090405, 1013, 842, 1955, 1696, -696, 460
0.090539, 1013, 842, 1955, 1696, -696, 460
0.090673, 1013, 842, 1955, 1696, -696, 460
0.090807, 1013, 842, 1955, 1696, -696, 460
0.090941, 1013, 842, 1955, 1696, -696, 460
0.091076, 1013, 842, 1955, 1696, -696, 460
0.091210, 2895, 796, 2154, 1458, -447, -584
0.091344, 2895, 796, 2154, 1458, -447, -584
0.091478, 2895, 796, 2154, 1458, -447, -584
0.091612, 2895, 796, 2154, 1458, -447, -584
0.091746, 2895, 796, 2154, 1458, -447, -584
0.091881, 2895, 796, 2154, 1458, -447, -584
0.092015, 2895, 796, 2154, 1458, -447, -584
0.092149, 2403, 855, 2358, 1514, 74, -2450
0.092284, 2403, 855, 2358, 1514, 74, -2450
0.092418, 2403, 855, 2358, 1514, 74, -2450
0.092552, 2403, 855, 2358, 1514, 74, -2450
0.092686, 2403, 855, 2358, 1514, 74, -2450
0.092820, 2403, 855, 2358, 1514, 74, -2450
0.092954, 2403, 855, 2358, 1514, 74, -2450
0.093088, 2403, 855, 2358, 1514, 74, -2450
0.093222, 1334, 775, 2257, 1814, 617, -3720
0.093357, 1334, 775, 2257, 1814, 617, -3720
0.093491, 1334, 775, 2257, 1814, 617, -3720
0.093625, 1334, 775, 2257, 1814, 617, -3720
0.093759, 1334, 775, 2257, 1814, 617, -3720
0.093893, 1334, 775, 2257, 1814, 617, -3720
0.094028, 1334, 775, 2257, 1814, 617, -3720
0.094162, 1334, 775, 2257, 1814, 617, -3720
0.094296, 1087, 637, 2017, 2177, 871, -4481
0.094430, 1087, 637, 2017, 2177, 871, -4481
0.094564, 1087, 637, 2017, 2177, 871, -4481
0.094698, 1087, 637, 2017, 2177, 871, -4481
0.094832, 1087, 637, 2017, 2177, 871, -4481
0.094966, 1087, 637, 2017, 2177, 871, -4481
0.095101, 1087, 637, 2017, 2177, 871, -4481
0.095235, 576, 547, 1901, 2430, 1042, -5065
0.095369, 576, 547, 1901, 2430, 1042, -5065
0.095503, 576, 547, 1901, 2430, 1042, -5065
0.095637, 576, 547, 1901, 2430, 1042, -5065
0.095771, 576, 547, 1901, 2430, 1042, -5065
0.095906, 576, 547, 1901, 2430, 1042, -5065
0.096040, 576, 547, 1901, 2430, 1042, -5065
0.096175, 576, 547, 1901, 2430, 1042, -5065
0.096309, 105, 528, 1931, 2510, 1283, -5214
0.096443, 105, 528, 1931, 2510, 1283, -5214
0.096576, 105, 528, 1931, 2510, 1283, -5214
0.096710, 105, 528, 1931, 2510, 1283, -5214
0.096843, 105, 528, 1931, 2510, 1283, -5214
0.096977, 105, 528, 1931, 2510, 1283, -5214
0.097110, 105, 528, 1931, 2510, 1283, -5214
0.097244, 51, 569, 1986, 2531, 1506, -5136
0.097377, 51, 569, 1986, 2531, 1506, -5136
0.097511, 51, 569, 1986, 2531, 1506, -5136
0.097644, 51, 569, 1986, 2531, 1506, -5136
0.097779, 51, 569, 1986, 2531, 1506, -5136
0.097912, 51, 569, 1986, 2531, 1506, -5136
0.098045, 51, 569, 1986, 2531, 1506, -5136
0.098179, 51, 569, 1986, 2531, 1506, -5136
0.098312, 73, 550, 1997, 2556, 1653, -5132
0.098446, 73, 550, 1997, 2556, 1653, -5132
0.098580, 73, 550, 1997, 2556, 1653, -5132
0.098714, 73, 550, 1997, 2556, 1653, -5132
0.098848, 73, 550, 1997, 2556, 1653, -5132
0.098982, 73, 550, 1997, 2556, 1653, -5132
0.099115, 73, 550, 1997, 2556, 1653, -5132
0.099250, -94, 498, 1967, 2555, 1669, -5165
0.099383, -94, 498, 1967, 2555, 1669, -5165
0.099517, -94, 498, 1967, 2555, 1669, -5165
0.099655, -94, 498, 1967, 2555, 1669, -5165
0.099794, -94, 498, 1967, 2555, 1669, -5165
0.099927, -94, 498, 1967, 2555, 1669, -5165
0.100061, -94, 498, 1967, 2555, 1669, -5165
0.100194, -94, 498, 1967, 2555, 1669, -5165
0.100328, -477, 371, 1828, 2503, 1528, -5070
0.100462, -477, 371, 1828, 2503, 1528, -5070
0.100595, -477, 371, 1828, 2503, 1528, -5070
0.100728, -477, 371, 1828, 2503, 1528, -5070
0.100863, -477, 371, 1828, 2503, 1528, -5070
0.100996, -477, 371, 1828, 2503, 1528, -5070
0.101131, -477, 371, 1828, 2503, 1528, -5070
0.101264, -1289, 226, 1451, 2341, 1271, -4705
0.101398, -1289, 226, 1451, 2341, 1271, -4705
0.101531, -1289, 226, 1451, 2341, 1271, -4705
0.101665, -1289, 226, 1451, 2341, 1271, -4705
0.101798, -1289, 226, 1451, 2341, 1271, -4705
0.101931, -1289, 226, 1451, 2341, 1271, -4705
0.102060, -1289, 226, 1451, 2341, 1271, -4705
0.102193, -1289, 226, 1451, 2341, 1271, -4705
0.102329, -4791, 433, 217, 1776, 1026, -3413
0.102463, -4791, 433, 217, 1776, 1026, -3413
0.102597, -4791, 433, 217, 1776, 1026, -3413
0.102731, -4791, 433, 217, 1776, 1026, -3413
0.102865, -4791, 433, 217, 1776, 1026, -3413
0.102999, -4791, 433, 217, 1776, 1026, -3413
0.103133, -4791, 433, 217, 1776, 1026, -3413
0.103267, -4791, 433, 217, 1776, 1026, -3413
0.103401, -12050, 428, -1718, 131, 708, 1104
0.103536, -12050, 428, -1718, 131, 708, 1104
0.103670, -12050, 428, -1718, 131, 708, 1104
0.103804, -12050, 428, -1718, 131, 708, 1104
0.103939, -12050, 428, -1718, 131, 708, 1104
0.104073, -12050, 428, -1718, 131, 708, 1104
0.104207, -12050, 428, -1718, 131, 708, 1104
0.104341, -14010, -507, -2001, -2678, -896, 9660
0.104476, -14010, -507, -2001, -2678, -896, 9660
0.104610, -14010, -507, -2001, -2678, -896, 9660
0.104744, -14010, -507, -2001, -2678, -896, 9660
0.104878, -14010, -507, -2001, -2678, -896, 9660
0.105012, -14010, -507, -2001, -2678, -896, 9660
0.105147, -14010, -507, -2001, -2678, -896, 9660
0.105281, -14010, -507, -2001, -2678, -896, 9660
0.105415, -5685, -504, -775, -5631, -4467, 16960
0.105549, -5685, -504, -775, -5631, -4467, 16960
0.105683, -5685, -504, -775, -5631, -4467, 16960
0.105818, -5685, -504, -775, -5631, -4467, 16960
0.105952, -5685, -504, -775, -5631, -4467, 16960
0.106086, -5685, -504, -775, -5631, -4467, 16960
0.106220, -5685, -504, -775, -5631, -4467, 16960
0.106354, 2549, 637, -361, -8576, -8114, 18081
0.106489, 2549, 637, -361, -8576, -8114, 18081
0.106623, 2549, 637, -361, -8576, -8114, 18081
0.106757, 2549, 637, -361, -8576, -8114, 18081
0.106891, 2549, 637, -361, -8576, -8114, 18081
0.107026, 2549, 637, -361, -8576, -8114, 18081
0.107160, 2549, 637, -361, -8576, -8114, 18081
0.107294, 2549, 637, -361, -8576, -8114, 18081
0.107428, 3873, 880, 2243, -10817, -9817, 15426
0.107562, 3873, 880, 2243, -10817, -9817, 15426
0.107691, 3873, 880, 2243, -10817, -9817, 15426
0.107827, 3873, 880, 2243, -10817, -9817, 15426
0.107962, 3873, 880, 2243, -10817, -9817, 15426
0.108097, 3873, 880, 2243, -10817, -9817, 15426
0.108232, 3873, 880, 2243, -10817, -9817, 15426
0.108367, 3771, 515, 7631, -9501, -9592, 12933
0.108502, 3771, 515, 7631, -9501, -9592, 12933
0.108658, 3771, 515, 7631, -9501, -9592, 12933
0.108806, 3771, 515, 7631, -9501, -9592, 12933
0.108947, 3771, 515, 7631, -9501, -9592, 12933
0.109094, 3771, 515, 7631, -9501, -9592, 12933
0.109242, 3771, 515, 7631, -9501, -9592, 12933
0.109388, 4981, 1472, 8385, -4844, -8228, 10286
0.109533, 4981, 1472, 8385, -4844, -8228, 10286
0.109670, 4981, 1472, 8385, -4844, -8228, 10286
0.109804, 4981, 1472, 8385, -4844, -8228, 10286
0.109939, 4981, 1472, 8385, -4844, -8228, 10286
0.110074, 4981, 1472, 8385, -4844, -8228, 10286
0.110208, 4981, 1472, 8385, -4844, -8228, 10286
0.110342, 4981, 1472, 8385, -4844, -8228, 10286
0.110477, 4264, 1978, 4989, -905, -6413, 7145
0.110619, 4264, 1978, 4989, -905, -6413, 7145
0.110755, 4264, 1978, 4989, -905, -6413, 7145
0.110891, 4264, 1978, 4989, -905, -6413, 7145
0.111025, 4264, 1978, 4989, -905, -6413, 7145
0.111161, 4264, 1978, 4989, -905, -6413, 7145
0.111295, 4264, 1978, 4989, -905, -6413, 7145
0.111430, 3654, 61, 2347, 557, -5117, 4687
0.111594, 3654, 61, 2347, 557, -5117, 4687
0.111737, 3654, 61, 2347, 557, -5117, 4687
0.111874, 3654, 61, 2347, 557, -5117, 4687
0.112008, 3654, 61, 2347, 557, -5117, 4687
0.112143, 3654, 61, 2347, 557, -5117, 4687
0.112278, 3654, 61, 2347, 557, -5117, 4687
0.112412, 2022, -181, 776, 609, -4061, 2654
0.112547, 2022, -181, 776, 609, -4061, 2654
0.112682, 2022, -181, 776, 609, -4061, 2654
0.112816, 2022, -181, 776, 609, -4061, 2654
0.112951, 2022, -181, 776, 609, -4061, 2654
0.113085, 2022, -181, 776, 609, -4061, 2654
0.113220, 2022, -181, 776, 609, -4061, 2654
0.113355, 2022, -181, 776, 609, -4061, 2654
0.113489, -567, 598, 1619, 194, -2403, 2009
0.113624, -567, 598, 1619, 194, -2403, 2009
0.113758, -567, 598, 1619, 194, -2403, 2009
0.113893, -567, 598, 1619, 194, -2403, 2009
0.114027, -567, 598, 1619, 194, -2403, 2009
0.114162, -567, 598, 1619, 194, -2403, 2009
0.114297, -567, 598, 1619, 194, -2403, 2009
0.114431, -567, 598, 1619, 194, -2403, 2009
0.114566, 446, 29, 2391, 28, -802, 2424
0.114700, 446, 29, 2391, 28, -802, 2424
0.114835, 446, 29, 2391, 28, -802, 2424
0.114970, 446, 29, 2391, 28, -802, 2424
0.115104, 446, 29, 2391, 28, -802, 2424
0.115239, 446, 29, 2391, 28, -802, 2424
0.115373, 446, 29, 2391, 28, -802, 2424
0.115508, 1106, 304, 1191, -217, 475, 1851
0.115642, 1106, 304, 1191, -217, 475, 1851
0.115777, 1106, 304, 1191, -217, 475, 1851
0.115912, 1106, 304, 1191, -217, 475, 1851
0.116047, 1106, 304, 1191, -217, 475, 1851
0.116181, 1106, 304, 1191, -217, 475, 1851
0.116316, 1106, 304, 1191, -217, 475, 1851
0.116451, 1106, 304, 1191, -217, 475, 1851
0.116585, 246, 594, 946, -1001, 1394, 1295
0.116720, 246, 594, 946, -1001, 1394, 1295
0.116854, 246, 594, 946, -1001, 1394, 1295
0.116989, 246, 594, 946, -1001, 1394, 1295
0.117124, 246, 594, 946, -1001, 1394, 1295
0.117258, 246, 594, 946, -1001, 1394, 1295
0.117393, 246, 594, 946, -1001, 1394, 1295
0.117528, 750, 419, 1955, -1463, 1246, 1081
0.117662, 750, 419, 1955, -1463, 1246, 1081
0.117797, 750, 419, 1955, -1463, 1246, 1081
0.117931, 750, 419, 1955, -1463, 1246, 1081
0.118066, 750, 419, 1955, -1463, 1246, 1081
0.118201, 750, 419, 1955, -1463, 1246, 1081
0.118335, 750, 419, 1955, -1463, 1246, 1081
0.118470, 750, 419, 1955, -1463, 1246, 1081
0.118605, 468, 911, 2037, -1300, 380, 382
0.118739, 468, 911, 2037, -1300, 380, 382
0.118874, 468, 911, 2037, -1300, 380, 382
0.119008, 468, 911, 2037, -1300, 380, 382
0.119143, 468, 911, 2037, -1300, 380, 382
0.119278, 468, 911, 2037, -1300, 380, 382
0.119412, 468, 911, 2037, -1300, 380, 382
0.119547, -851, 1258, 583, -1429, -497, 208
0.119681, -851, 1258, 583, -1429, -497, 208
0.119816, -851, 1258, 583, -1429, -497, 208
0.119951, -851, 1258, 583, -1429, -497, 208
0.120086, -851, 1258, 583, -1429, -497, 208
0.120220, -851, 1258, 583, -1429, -497, 208
0.120355, -851, 1258, 583, -1429, -497, 208
0.120490, -851, 1258, 583, -1429, -497, 208
0.120624, -1395, 820, -788, -2518, -1513, 981
0.120759, -1395, 820, -788, -2518, -1513, 981
0.120893, -1395, 820, -788, -2518, -1513, 981
0.121028, -1395, 820, -788, -2518, -1513, 981
0.121163, -1395, 820, -788, -2518, -1513, 981
0.121297, -1395, 820, -788, -2518, -1513, 981
0.121432, -1395, 820, -788, -2518, -1513, 981
0.121566, -1084, 187, -214, -3996, -2672, 1924
0.121701, -1084, 187, -214, -3996, -2672, 1924
0.121836, -1084, 187, -214, -3996, -2672, 1924
0.121970, -1084, 187, -214, -3996, -2672, 1924
0.122105, -1084, 187, -214, -3996, -2672, 1924
0.122239, -1084, 187, -214, -3996, -2672, 1924
0.122374, -1084, 187, -214, -3996, -2672, 1924
0.122508, -1084, 187, -214, -3996, -2672, 1924
0.122643, -798, -102, 3037, -4427, -3444, 2743
0.122778, -798, -102, 3037, -4427, -3444, 2743
0.122912, -798, -102, 3037, -4427, -3444, 2743
0.123047, -798, -102, 3037, -4427, -3444, 2743
0.123181, -798, -102, 3037, -4427, -3444, 2743
0.123316, -798, -102, 3037, -4427, -3444, 2743
0.123451, -798, -102, 3037, -4427, -3444, 2743
0.123585, -488, 148, 6023, -2681, -3300, 3565
0.123720, -488, 148, 6023, -2681, -3300, 3565
0.123855, -488, 148, 6023, -2681, -3300, 3565
0.123989, -488, 148, 6023, -2681, -3300, 3565
0.124129, -488, 148, 6023, -2681, -3300, 3565
0.124264, -488, 148, 6023, -2681, -3300, 3565
0.124399, -488, 148, 6023, -2681, -3300, 3565
0.124533, -488, 148, 6023, -2681, -3300, 3565
0.124668, 521, 787, 4229, -220, -2606, 3992
0.124803, 521, 787, 4229, -220, -2606, 3992
0.124937, 521, 787, 4229, -220, -2606, 3992
0.125072, 521, 787, 4229, -220, -2606, 3992
0.125206, 521, 787, 4229, -220, -2606, 3992
0.125341, 521, 787, 4229, -220, -2606, 3992
0.125476, 521, 787, 4229, -220, -2606, 3992
0.125610, 1963, 803, 1463, 476, -2377, 3462
0.125744, 1963, 803, 1463, 476, -2377, 3462
0.125879, 1963, 803, 1463, 476, -2377, 3462
0.126014, 1963, 803, 1463, 476, -2377, 3462
0.126148, 1963, 803, 1463, 476, -2377, 3462
0.126283, 1963, 803, 1463, 476, -2377, 3462
0.126417, 1963, 803, 1463, 476, -2377, 3462
0.126552, 1963, 803, 1463, 476, -2377, 3462
0.126686, 3226, 361, 2182, 316, -2665, 1884
0.126821, 3226, 361, 2182, 316, -2665, 1884
0.126955, 3226, 361, 2182, 316, -2665, 1884
0.127090, 3226, 361, 2182, 316, -2665, 1884
0.127224, 3226, 361, 2182, 316, -2665, 1884
0.127359, 3226, 361, 2182, 316, -2665, 1884
0.127493, 3226, 361, 2182, 316, -2665, 1884
0.127628, 2282, 532, 3089, 858, -2368, -94
0.127762, 2282, 532, 3089, 858, -2368, -94
0.127898, 2282, 532, 3089, 858, -2368, -94
0.128032, 2282, 532, 3089, 858, -2368, -94
0.128167, 2282, 532, 3089, 858, -2368, -94
0.128301, 2282, 532, 3089, 858, -2368, -94
0.128436, 2282, 532, 3089, 858, -2368, -94
0.128570, 2282, 532, 3089, 858, -2368, -94
0.128705, -923, 916, 2272, 1587, -1141, -863
0.128839, -923, 916, 2272, 1587, -1141, -863
0.128974, -923, 916, 2272, 1587, -1141, -863
0.129108, -923, 916, 2272, 1587, -1141, -863
0.129243, -923, 916, 2272, 1587, -1141, -863
0.129377, -923, 916, 2272, 1587, -1141, -863
0.129512, -923, 916, 2272, 1587, -1141, -863
0.129646, -3391, 513, -97, 1403, 8, 457
0.129781, -3391, 513, -97, 1403, 8, 457
0.129915, -3391, 513, -97, 1403, 8, 457
0.130050, -3391, 513, -97, 1403, 8, 457
0.130184, -3391, 513, -97, 1403, 8, 457
0.130319, -3391, 513, -97, 1403, 8, 457
0.130453, -3391, 513, -97, 1403, 8, 457
0.130588, -3391, 513, -97, 1403, 8, 457
0.130723, -2376, -372, -1229, -309, 16, 2596
0.130857, -2376, -372, -1229, -309, 16, 2596
0.130992, -2376, -372, -1229, -309, 16, 2596
0.131126, -2376, -372, -1229, -309, 16, 2596
0.131261, -2376, -372, -1229, -309, 16, 2596
0.131396, -2376, -372, -1229, -309, 16, 2596
0.131530, -2376, -372, -1229, -309, 16, 2596
0.131665, -2376, -372, -1229, -309, 16, 2596
0.131799, 110, 158, 1212, -2099, -1068, 3427
0.131934, 110, 158, 1212, -2099, -1068, 3427
0.132069, 110, 158, 1212, -2099, -1068, 3427
0.132203, 110, 158, 1212, -2099, -1068, 3427
0.132338, 110, 158, 1212, -2099, -1068, 3427
0.132472, 110, 158, 1212, -2099, -1068, 3427
0.132607, 110, 158, 1212, -2099, -1068, 3427
0.132741, -173, 1428, 2880, -2533, -1877, 3098
0.132876, -173, 1428, 2880, -2533, -1877, 3098
0.133011, -173, 1428, 2880, -2533, -1877, 3098
0.133145, -173, 1428, 2880, -2533, -1877, 3098
0.133280, -173, 1428, 2880, -2533, -1877, 3098
0.133414, -173, 1428, 2880, -2533, -1877, 3098
0.133549, -173, 1428, 2880, -2533, -1877, 3098
0.133683, -173, 1428, 2880, -2533, -1877, 3098
0.133818, -497, 1129, 1349, -2729, -2053, 3210
0.133952, -497, 1129, 1349, -2729, -2053, 3210
0.134087, -497, 1129, 1349, -2729, -2053, 3210
0.134221, -497, 1129, 1349, -2729, -2053, 3210
0.134356, -497, 1129, 1349, -2729, -2053, 3210
0.134490, -497, 1129, 1349, -2729, -2053, 3210
0.134625, -497, 1129, 1349, -2729, -2053, 3210
0.134759, 1566, 247, 1150, -3400, -2657, 3064
0.134894, 1566, 247, 1150, -3400, -2657, 3064
0.135028, 1566, 247, 1150, -3400, -2657, 3064
0.135163, 1566, 247, 1150, -3400, -2657, 3064
0.135298, 1566, 247, 1150, -3400, -2657, 3064
0.135432, 1566, 247, 1150, -3400, -2657, 3064
0.135567, 1566, 247, 1150, -3400, -2657, 3064
0.135701, 1566, 247, 1150, -3400, -2657, 3064
0.135836, 1997, 574, 2731, -3331, -3428, 1755
0.135970, 1997, 574, 2731, -3331, -3428, 1755
0.136105, 1997, 574, 2731, -3331, -3428, 1755
0.136239, 1997, 574, 2731, -3331, -3428, 1755
0.136374, 1997, 574, 2731, -3331, -3428, 1755
0.136513, 1997, 574, 2731, -3331, -3428, 1755
0.136648, 1997, 574, 2731, -3331, -3428, 1755
0.136782, -392, 1287, 1540, -2949, -3377, 1063
0.136916, -392, 1287, 1540, -2949, -3377, 1063
0.137051, -392, 1287, 1540, -2949, -3377, 1063
0.137186, -392, 1287, 1540, -2949, -3377, 1063
0.137320, -392, 1287, 1540, -2949, -3377, 1063
0.137455, -392, 1287, 1540, -2949, -3377, 1063
0.137589, -392, 1287, 1540, -2949, -3377, 1063
0.137724, -392, 1287, 1540, -2949, -3377, 1063
0.137858, -1057, 684, -26, -3585, -2981, 1801
0.137993, -1057, 684, -26, -3585, -2981, 1801
0.138127, -1057, 684, -26, -3585, -2981, 1801
0.138262, -1057, 684, -26, -3585, -2981, 1801
0.138396, -1057, 684, -26, -3585, -2981, 1801
0.138531, -1057, 684, -26, -3585, -2981, 1801
0.138665, -1057, 684, -26, -3585, -2981, 1801
0.138800, -143, 81, 438, -4422, -2773, 2429
0.138935, -143, 81, 438, -4422, -2773, 2429
0.139069, -143, 81, 438, -4422, -2773, 2429
0.139204, -143, 81, 438, -4422, -2773, 2429
0.139338, -143, 81, 438, -4422, -2773, 2429
0.139473, -143, 81, 438, -4422, -2773, 2429
0.139608, -143, 81, 438, -4422, -2773, 2429
0.139742, -143, 81, 438, -4422, -2773, 2429
0.139877, -1436, 793, 322, -5237, -2360, 3021
0.140011, -1436, 793, 322, -5237, -2360, 3021
0.140146, -1436, 793, 322, -5237, -2360, 3021
0.140280, -1436, 793, 322, -5237, -2360, 3021
0.140415, -1436, 793, 322, -5237, -2360, 3021
0.140549, -1436, 793, 322, -5237, -2360, 3021
0.140684, -1436, 793, 322, -5237, -2360, 3021
0.140819, -2275, 903, 536, -6508, -2029, 4532
0.140953, -2275, 903, 536, -6508, -2029, 4532
0.141088, -2275, 903, 536, -6508, -2029, 4532
0.141222, -2275, 903, 536, -6508, -2029, 4532
0.141357, -2275, 903, 536, -6508, -2029, 4532
0.141491, -2275, 903, 536, -6508, -2029, 4532
0.141626, -2275, 903, 536, -6508, -2029, 4532
0.141760, -2275, 903, 536, -6508, -2029, 4532
0.141895, 67, -236, 3195, -6913, -2168, 5683
0.142029, 67, -236, 3195, -6913, -2168, 5683
0.142164, 67, -236, 3195, -6913, -2168, 5683
0.142299, 67, -236, 3195, -6913, -2168, 5683
0.142433, 67, -236, 3195, -6913, -2168, 5683
0.142568, 67, -236, 3195, -6913, -2168, 5683
0.142702, 67, -236, 3195, -6913, -2168, 5683
0.142837, 2303, -844, 6716, -5022, -2123, 5109
0.142971, 2303, -844, 6716, -5022, -2123, 5109
0.143106, 2303, -844, 6716, -5022, -2123, 5109
0.143240, 2303, -844, 6716, -5022, -2123, 5109
0.143375, 2303, -844, 6716, -5022, -2123, 5109
0.143509, 2303, -844, 6716, -5022, -2123, 5109
0.143644, 2303, -844, 6716, -5022, -2123, 5109
0.143778, 2303, -844, 6716, -5022, -2123, 5109
0.143913, 2263, 106, 6558, -1872, -1695, 3672
0.144047, 2263, 106, 6558, -1872, -1695, 3672
0.144181, 2263, 106, 6558, -1872, -1695, 3672
0.144315, 2263, 106, 6558, -1872, -1695, 3672
0.144449, 2263, 106, 6558, -1872, -1695, 3672
0.144583, 2263, 106, 6558, -1872, -1695, 3672
0.144717, 2263, 106, 6558, -1872, -1695, 3672
0.144850, 1656, 1282, 3398, 220, -1547, 2324
0.144984, 1656, 1282, 3398, 220, -1547, 2324
0.145118, 1656, 1282, 3398, 220, -1547, 2324
0.145252, 1656, 1282, 3398, 220, -1547, 2324
0.145386, 1656, 1282, 3398, 220, -1547, 2324
0.145520, 1656, 1282, 3398, 220, -1547, 2324
0.145654, 1656, 1282, 3398, 220, -1547, 2324
0.145788, 1656, 1282, 3398, 220, -1547, 2324
0.145922, 1015, 1227, 2063, 1028, -1766, 1108
0.146056, 1015, 1227, 2063, 1028, -1766, 1108
0.146190, 1015, 1227, 2063, 1028, -1766, 1108
0.146324, 1015, 1227, 2063, 1028, -1766, 1108
0.146458, 1015, 1227, 2063, 1028, -1766, 1108
0.146592, 1015, 1227, 2063, 1028, -1766, 1108
0.146726, 1015, 1227, 2063, 1028, -1766, 1108
0.146859, 1015, 1227, 2063, 1028, -1766, 1108
0.146993, -421, 672, 1919, 1338, -1889, 620
0.147127, -421, 672, 1919, 1338, -1889, 620
0.147261, -421, 672, 1919, 1338, -1889, 620
0.147395, -421, 672, 1919, 1338, -1889, 620
0.147529, -421, 672, 1919, 1338, -1889, 620
0.147663, -421, 672, 1919, 1338, -1889, 620
0.147805, -421, 672, 1919, 1338, -1889, 620
0.147942, -1028, 497, 1510, 1175, -1852, 1218
0.148082, -1028, 497, 1510, 1175, -1852, 1218
0.148217, -1028, 497, 1510, 1175, -1852, 1218
0.148352, -1028, 497, 1510, 1175, -1852, 1218
0.148487, -1028, 497, 1510, 1175, -1852, 1218
0.148631, -1028, 497, 1510, 1175, -1852, 1218
0.148761, -1028, 497, 1510, 1175, -1852, 1218
0.148896, -1028, 497, 1510, 1175, -1852, 1218
0.149031, 374, 362, 1221, 721, -1868, 1700
0.149165, 374, 362, 1221, 721, -1868, 1700
0.149300, 374, 362, 1221, 721, -1868, 1700
0.149434, 374, 362, 1221, 721, -1868, 1700
0.149569, 374, 362, 1221, 721, -1868, 1700
0.149703, 374, 362, 1221, 721, -1868, 1700
0.149838, 374, 362, 1221, 721, -1868, 1700
0.149972, 655, 439, 1054, 56, -1667, 1315
0.150107, 655, 439, 1054, 56, -1667, 1315
0.150241, 655, 439, 1054, 56, -1667, 1315
0.150376, 655, 439, 1054, 56, -1667, 1315
0.150511, 655, 439, 1054, 56, -1667, 1315
0.150645, 655, 439, 1054, 56, -1667, 1315
0.150780, 655, 439, 1054, 56, -1667, 1315
0.150914, 655, 439, 1054, 56, -1667, 1315
0.151049, -1025, 901, 1990, -502, -1159, 1312
0.151183, -1025, 901, 1990, -502, -1159, 1312
0.151318, -1025, 901, 1990, -502, -1159, 1312
0.151452, -1025, 901, 1990, -502, -1159, 1312
0.151587, -1025, 901, 1990, -502, -1159, 1312
0.151721, -1025, 901, 1990, -502, -1159, 1312
0.151856, -1025, 901, 1990, -502, -1159, 1312
0.151991, -1204, 1072, 3083, -218, -861, 2265
0.152125, -1204, 1072, 3083, -218, -861, 2265
0.152260, -1204, 1072, 3083, -218, -861, 2265
0.152394, -1204, 1072, 3083, -218, -861, 2265
0.152529, -1204, 1072, 3083, -218, -861, 2265
0.152663, -1204, 1072, 3083, -218, -861, 2265
0.152798, -1204, 1072, 3083, -218, -861, 2265
0.152933, -1204, 1072, 3083, -218, -861, 2265
0.153067, 1756, 519, 2871, 466, -1157, 2591
0.153201, 1756, 519, 2871, 466, -1157, 2591
0.153336, 1756, 519, 2871, 466, -1157, 2591
0.153471, 1756, 519, 2871, 466, -1157, 2591
0.153605, 1756, 519, 2871, 466, -1157, 2591
0.153740, 1756, 519, 2871, 466, -1157, 2591
0.153874, 1756, 519, 2871, 466, -1157, 2591
0.154009, 4570, 166, 2804, 904, -1760, 745
0.154144, 4570, 166, 2804, 904, -1760, 745
0.154287, 4570, 166, 2804, 904, -1760, 745
0.154431, 4570, 166, 2804, 904, -1760, 745
0.154573, 4570, 166, 2804, 904, -1760, 745
0.154710, 4570, 166, 2804, 904, -1760, 745
0.154845, 4570, 166, 2804, 904, -1760, 745
0.154979, 4570, 166, 2804, 904, -1760, 745
0.155114, 2979, 546, 2924, 1462, -1647, -1966
0.155248, 2979, 546, 2924, 1462, -1647, -1966
0.155383, 2979, 546, 2924, 1462, -1647, -1966
0.155518, 2979, 546, 2924, 1462, -1647, -1966
0.155652, 2979, 546, 2924, 1462, -1647, -1966
0.155794, 2979, 546, 2924, 1462, -1647, -1966
0.155928, 2979, 546, 2924, 1462, -1647, -1966
0.156063, -223, 637, 2413, 2212, -634, -2934
0.156197, -223, 637, 2413, 2212, -634, -2934
0.156332, -223, 637, 2413, 2212, -634, -2934
0.156466, -223, 637, 2413, 2212, -634, -2934
0.156600, -223, 637, 2413, 2212, -634, -2934
0.156735, -223, 637, 2413, 2212, -634, -2934
0.156869, -223, 637, 2413, 2212, -634, -2934
0.157004, -223, 637, 2413, 2212, -634, -2934
0.157138, -357, 442, 2170, 2916, 213, -2481
0.157272, -357, 442, 2170, 2916, 213, -2481
0.157407, -357, 442, 2170, 2916, 213, -2481
0.157541, -357, 442, 2170, 2916, 213, -2481
0.157675, -357, 442, 2170, 2916, 213, -2481
0.157810, -357, 442, 2170, 2916, 213, -2481
0.157944, -357, 442, 2170, 2916, 213, -2481
0.158078, 529, 544, 2299, 3445, 551, -2416
0.158213, 529, 544, 2299, 3445, 551, -2416
0.158347, 529, 544, 2299, 3445, 551, -2416
0.158481, 529, 544, 2299, 3445, 551, -2416
0.158616, 529, 544, 2299, 3445, 551, -2416
0.158750, 529, 544, 2299, 3445, 551, -2416
0.158884, 529, 544, 2299, 3445, 551, -2416
0.159019, 529, 544, 2299, 3445, 551, -2416
0.159153, -666, 772, 2375, 3675, 879, -2453
0.159287, -666, 772, 2375, 3675, 879, -2453
0.159422, -666, 772, 2375, 3675, 879, -2453
0.159561, -666, 772, 2375, 3675, 879, -2453
0.159705, -666, 772, 2375, 3675, 879, -2453
0.159843, -666, 772, 2375, 3675, 879, -2453
0.159977, -666, 772, 2375, 3675, 879, -2453
0.160112, -2211, 728, 2357, 3795, 1187, -1506
0.160247, -2211, 728, 2357, 3795, 1187, -1506
0.160381, -2211, 728, 2357, 3795, 1187, -1506
0.160516, -2211, 728, 2357, 3795, 1187, -1506
0.160650, -2211, 728, 2357, 3795, 1187, -1506
0.160785, -2211, 728, 2357, 3795, 1187, -1506
0.160919, -2211, 728, 2357, 3795, 1187, -1506
0.161073, -1726, 487, 2099, 3895, 1005, -86
0.161208, -1726, 487, 2099, 3895, 1005, -86
0.161343, -1726, 487, 2099, 3895, 1005, -86
0.161477, -1726, 487, 2099, 3895, 1005, -86
0.161612, -1726, 487, 2099, 3895, 1005, -86
0.161746, -1726, 487, 2099, 3895, 1005, -86
0.161881, -1726, 487, 2099, 3895, 1005, -86
0.162015, -1726, 487, 2099, 3895, 1005, -86
0.162150, -907, 492, 1714, 3736, 241, 703
0.162284, -907, 492, 1714, 3736, 241, 703
0.162419, -907, 492, 1714, 3736, 241, 703
0.162553, -907, 492, 1714, 3736, 241, 703
0.162688, -907, 492, 1714, 3736, 241, 703
0.162822, -907, 492, 1714, 3736, 241, 703
0.162957, -907, 492, 1714, 3736, 241, 703
0.163091, -1532, 0, 1170, 3139, -706, 1290
0.163226, -1532, 0, 1170, 3139, -706, 1290
0.163360, -1532, 0, 1170, 3139, -706, 1290
0.163495, -1532, 0, 1170, 3139, -706, 1290
0.163629, -1532, 0, 1170, 3139, -706, 1290
0.163764, -1532, 0, 1170, 3139, -706, 1290
0.163899, -1532, 0, 1170, 3139, -706, 1290
0.164041, -1532, 0, 1170, 3139, -706, 1290
0.164185, -1115, -471, 695, 2211, -1710, 2198
0.164324, -1115, -471, 695, 2211, -1710, 2198
0.164458, -1115, -471, 695, 2211, -1710, 2198
0.164593, -1115, -471, 695, 2211, -1710, 2198
0.164728, -1115, -471, 695, 2211, -1710, 2198
0.164862, -1115, -471, 695, 2211, -1710, 2198
0.164997, -1115, -471, 695, 2211, -1710, 2198
0.165131, 484, 342, 756, 1312, -2651, 2424
0.165266, 484, 342, 756, 1312, -2651, 2424
0.165400, 484, 342, 756, 1312, -2651, 2424
0.165535, 484, 342, 756, 1312, -2651, 2424
0.165669, 484, 342, 756, 1312, -2651, 2424
0.165804, 484, 342, 756, 1312, -2651, 2424
0.165938, 484, 342, 756, 1312, -2651, 2424
0.166073, 484, 342, 756, 1312, -2651, 2424
0.166207, 479, 874, 1318, 613, -2991, 1908
0.166342, 479, 874, 1318, 613, -2991, 1908
0.166477, 479, 874, 1318, 613, -2991, 1908
0.166611, 479, 874, 1318, 613, -2991, 1908
0.166745, 479, 874, 1318, 613, -2991, 1908
0.166880, 479, 874, 1318, 613, -2991, 1908
0.167014, 479, 874, 1318, 613, -2991, 1908
0.167149, -577, 760, 2106, 319, -2729, 1889
0.167284, -577, 760, 2106, 319, -2729, 1889
0.167418, -577, 760, 2106, 319, -2729, 1889
0.167553, -577, 760, 2106, 319, -2729, 1889
0.167687, -577, 760, 2106, 319, -2729, 1889
0.167822, -577, 760, 2106, 319, -2729, 1889
0.167957, -577, 760, 2106, 319, -2729, 1889
0.168091, -577, 760, 2106, 319, -2729, 1889
0.168226, 1577, 735, 2632, 627, -2518, 2187
0.168360, 1577, 735, 2632, 627, -2518, 2187
0.168495, 1577, 735, 2632, 627, -2518, 2187
0.168630, 1577, 735, 2632, 627, -2518, 2187
0.168764, 1577, 735, 2632, 627, -2518, 2187
0.168899, 1577, 735, 2632, 627, -2518, 2187
0.169033, 1577, 735, 2632, 627, -2518, 2187
0.169168, 1577, 735, 2632, 627, -2518, 2187
0.169302, 7036, 868, 2752, 1139, -2605, 137
0.169437, 7036, 868, 2752, 1139, -2605, 137
0.169572, 7036, 868, 2752, 1139, -2605, 137
0.169706, 7036, 868, 2752, 1139, -2605, 137
0.169841, 7036, 868, 2752, 1139, -2605, 137
0.169975, 7036, 868, 2752, 1139, -2605, 137
0.170110, 7036, 868, 2752, 1139, -2605, 137
0.170244, 6668, 1091, 2457, 1512, -1931, -4567
0.170379, 6668, 1091, 2457, 1512, -1931, -4567
0.170514, 6668, 1091, 2457, 1512, -1931, -4567
0.170648, 6668, 1091, 2457, 1512, -1931, -4567
0.170783, 6668, 1091, 2457, 1512, -1931, -4567
0.170917, 6668, 1091, 2457, 1512, -1931, -4567
0.171052, 6668, 1091, 2457, 1512, -1931, -4567
0.171186, 6668, 1091, 2457, 1512, -1931, -4567
0.171321, 919, 631, 1892, 1907, 29, -7310
0.171455, 919, 631, 1892, 1907, 29, -7310
0.171590, 919, 631, 1892, 1907, 29, -7310
0.171724, 919, 631, 1892, 1907, 29, -7310
0.171859, 919, 631, 1892, 1907, 29, -7310
0.171994, 919, 631, 1892, 1907, 29, -7310
0.172128, 919, 631, 1892, 1907, 29, -7310
0.172262, -607, 230, 1596, 2460, 1834, -6937
0.172397, -607, 230, 1596, 2460, 1834, -6937
0.172531, -607, 230, 1596, 2460, 1834, -6937
0.172666, -607, 230, 1596, 2460, 1834, -6937
0.172800, -607, 230, 1596, 2460, 1834, -6937
0.172934, -607, 230, 1596, 2460, 1834, -6937
0.173069, -607, 230, 1596, 2460, 1834, -6937
0.173203, -607, 230, 1596, 2460, 1834, -6937
0.173337, 454, 459, 1805, 2937, 2728, -6531
0.173472, 454, 459, 1805, 2937, 2728, -6531
0.173617, 454, 459, 1805, 2937, 2728, -6531
0.173752, 454, 459, 1805, 2937, 2728, -6531
0.173886, 454, 459, 1805, 2937, 2728, -6531
0.174021, 454, 459, 1805, 2937, 2728, -6531
0.174155, 454, 459, 1805, 2937, 2728, -6531
0.174298, 221, 599, 2061, 3032, 3196, -6600
0.174441, 221, 599, 2061, 3032, 3196, -6600
0.174582, 221, 599, 2061, 3032, 3196, -6600
0.174724, 221, 599, 2061, 3032, 3196, -6600
0.174867, 221, 599, 2061, 3032, 3196, -6600
0.175010, 221, 599, 2061, 3032, 3196, -6600
0.175153, 221, 599, 2061, 3032, 3196, -6600
0.175297, -71, 547, 2023, 2886, 3445, -6471
0.175441, -71, 547, 2023, 2886, 3445, -6471
0.175584, -71, 547, 2023, 2886, 3445, -6471
0.175727, -71, 547, 2023, 2886, 3445, -6471
0.175871, -71, 547, 2023, 2886, 3445, -6471
0.176011, -71, 547, 2023, 2886, 3445, -6471
0.176151, -71, 547, 2023, 2886, 3445, -6471
0.176292, -164, 509, 1955, 2797, 3409, -6361
0.176435, -164, 509, 1955, 2797, 3409, -6361
0.176576, -164, 509, 1955, 2797, 3409, -6361
0.176717, -164, 509, 1955, 2797, 3409, -6361
0.176861, -164, 509, 1955, 2797, 3409, -6361
0.177001, -164, 509, 1955, 2797, 3409, -6361
0.177142, -164, 509, 1955, 2797, 3409, -6361
0.177284, -370, 490, 1961, 2775, 2940, -6278
0.177425, -370, 490, 1961, 2775, 2940, -6278
0.177566, -370, 490, 1961, 2775, 2940, -6278
0.177705, -370, 490, 1961, 2775, 2940, -6278
0.177844, -370, 490, 1961, 2775, 2940, -6278
0.177985, -370, 490, 1961, 2775, 2940, -6278
0.178126, -370, 490, 1961, 2775, 2940, -6278
0.178268, -370, 490, 1961, 2775, 2940, -6278
0.178409, -632, 421, 1938, 2767, 2059, -6082
0.178551, -632, 421, 1938, 2767, 2059, -6082
0.178691, -632, 421, 1938, 2767, 2059, -6082
0.178833, -632, 421, 1938, 2767, 2059, -6082
0.178974, -632, 421, 1938, 2767, 2059, -6082
0.179115, -632, 421, 1938, 2767, 2059, -6082
0.179256, -632, 421, 1938, 2767, 2059, -6082
0.179397, -1217, 266, 1862, 2776, 1134, -5667
0.179540, -1217, 266, 1862, 2776, 1134, -5667
0.179681, -1217, 266, 1862, 2776, 1134, -5667
0.179822, -1217, 266, 1862, 2776, 1134, -5667
0.179963, -1217, 266, 1862, 2776, 1134, -5667
0.180104, -1217, 266, 1862, 2776, 1134, -5667
0.180244, -1217, 266, 1862, 2776, 1134, -5667
0.180384, -3149, 42, 1569, 2707, 487, -4615
0.180527, -3149, 42, 1569, 2707, 487, -4615
0.180668, -3149, 42, 1569, 2707, 487, -4615
0.180809, -3149, 42, 1569, 2707, 487, -4615
0.180950, -3149, 42, 1569, 2707, 487, -4615
0.181091, -3149, 42, 1569, 2707, 487, -4615
0.181232, -3149, 42, 1569, 2707, 487, -4615
0.181373, -8573, 410, 717, 2280, 111, -1600
0.181516, -8573, 410, 717, 2280, 111, -1600
0.181657, -8573, 410, 717, 2280, 111, -1600
0.181798, -8573, 410, 717, 2280, 111, -1600
0.181940, -8573, 410, 717, 2280, 111, -1600
0.182080, -8573, 410, 717, 2280, 111, -1600
0.182223, -8573, 410, 717, 2280, 111, -1600
0.182364, -13141, 568, 402, 1305, -614, 5164
0.182506, -13141, 568, 402, 1305, -614, 5164
0.182649, -13141, 568, 402, 1305, -614, 5164
0.182790, -13141, 568, 402, 1305, -614, 5164
0.182930, -13141, 568, 402, 1305, -614, 5164
0.183071, -13141, 568, 402, 1305, -614, 5164
0.183212, -13141, 568, 402, 1305, -614, 5164
0.183353, -13141, 568, 402, 1305, -614, 5164
0.183494, -8183, -128, -324, -319, -2963, 13008
0.183637, -8183, -128, -324, -319, -2963, 13008
0.183779, -8183, -128, -324, -319, -2963, 13008
0.183921, -8183, -128, -324, -319, -2963, 13008
0.184062, -8183, -128, -324, -319, -2963, 13008
0.184203, -8183, -128, -324, -319, -2963, 13008
0.184345, -8183, -128, -324, -319, -2963, 13008
0.184486, 941, 1310, -3800, -3704, -6669, 15766
0.184629, 941, 1310, -3800, -3704, -6669, 15766
0.184770, 941, 1310, -3800, -3704, -6669, 15766
0.184912, 941, 1310, -3800, -3704, -6669, 15766
0.185053, 941, 1310, -3800, -3704, -6669, 15766
0.185195, 941, 1310, -3800, -3704, -6669, 15766
0.185336, 941, 1310, -3800, -3704, -6669, 15766
0.185477, 4648, 1550, -3614, -9210, -9297, 13658
0.185620, 4648, 1550, -3614, -9210, -9297, 13658
0.185761, 4648, 1550, -3614, -9210, -9297, 13658
0.185902, 4648, 1550, -3614, -9210, -9297, 13658
0.186042, 4648, 1550, -3614, -9210, -9297, 13658
0.186183, 4648, 1550, -3614, -9210, -9297, 13658
0.186351, 4648, 1550, -3614, -9210, -9297, 13658
0.186498, 4218, -1410, 3689, -11973, -9449, 10776
0.186641, 4218, -1410, 3689, -11973, -9449, 10776
0.186783, 4218, -1410, 3689, -11973, -9449, 10776
0.186923, 4218, -1410, 3689, -11973, -9449, 10776
0.187065, 4218, -1410, 3689, -11973, -9449, 10776
0.187207, 4218, -1410, 3689, -11973, -9449, 10776
0.187348, 4218, -1410, 3689, -11973, -9449, 10776
0.187489, 3329, -910, 7561, -9119, -7708, 8490
0.187632, 3329, -910, 7561, -9119, -7708, 8490
0.187773, 3329, -910, 7561, -9119, -7708, 8490
0.187914, 3329, -910, 7561, -9119, -7708, 8490
0.188055, 3329, -910, 7561, -9119, -7708, 8490
0.188197, 3329, -910, 7561, -9119, -7708, 8490
0.188338, 3329, -910, 7561, -9119, -7708, 8490
0.188478, 3443, 1339, 5562, -5301, -5432, 6711
0.188621, 3443, 1339, 5562, -5301, -5432, 6711
0.188763, 3443, 1339, 5562, -5301, -5432, 6711
0.188903, 3443, 1339, 5562, -5301, -5432, 6711
0.189045, 3443, 1339, 5562, -5301, -5432, 6711
0.189186, 3443, 1339, 5562, -5301, -5432, 6711
0.189327, 3443, 1339, 5562, -5301, -5432, 6711
0.189469, 3208, 1434, 4043, -2875, -3731, 4619
0.189613, 3208, 1434, 4043, -2875, -3731, 4619
0.189754, 3208, 1434, 4043, -2875, -3731, 4619
0.189895, 3208, 1434, 4043, -2875, -3731, 4619
0.190036, 3208, 1434, 4043, -2875, -3731, 4619
0.190178, 3208, 1434, 4043, -2875, -3731, 4619
0.190319, 3208, 1434, 4043, -2875, -3731, 4619
0.190460, 1784, 704, 2880, -1400, -2531, 2807
0.190601, 1784, 704, 2880, -1400, -2531, 2807
0.190742, 1784, 704, 2880, -1400, -2531, 2807
0.190882, 1784, 704, 2880, -1400, -2531, 2807
0.191022, 1784, 704, 2880, -1400, -2531, 2807
0.191163, 1784, 704, 2880, -1400, -2531, 2807
0.191304, 1784, 704, 2880, -1400, -2531, 2807
0.191444, 1784, 704, 2880, -1400, -2531, 2807
0.191585, 898, 341, 2694, -911, -1506, 2117
0.191728, 898, 341, 2694, -911, -1506, 2117
0.191869, 898, 341, 2694, -911, -1506, 2117
0.192010, 898, 341, 2694, -911, -1506, 2117
0.192151, 898, 341, 2694, -911, -1506, 2117
0.192291, 898, 341, 2694, -911, -1506, 2117
0.192433, 898, 341, 2694, -911, -1506, 2117
0.192574, 518, 798, 3096, -369, -525, 1836
0.192717, 518, 798, 3096, -369, -525, 1836
0.192859, 518, 798, 3096, -369, -525, 1836
0.193000, 518, 798, 3096, -369, -525, 1836
0.193141, 518, 798, 3096, -369, -525, 1836
0.193282, 518, 798, 3096, -369, -525, 1836
0.193422, 518, 798, 3096, -369, -525, 1836
0.193563, 29, 960, 2462, 50, 580, 1697
0.193706, 29, 960, 2462, 50, 580, 1697
0.193847, 29, 960, 2462, 50, 580, 1697
0.193987, 29, 960, 2462, 50, 580, 1697
0.194129, 29, 960, 2462, 50, 580, 1697
0.194270, 29, 960, 2462, 50, 580, 1697
0.194413, 29, 960, 2462, 50, 580, 1697
0.194556, -38, 784, 2310, -33, 1316, 1710
0.194700, -38, 784, 2310, -33, 1316, 1710
0.194841, -38, 784, 2310, -33, 1316, 1710
0.194984, -38, 784, 2310, -33, 1316, 1710
0.195128, -38, 784, 2310, -33, 1316, 1710
0.195264, -38, 784, 2310, -33, 1316, 1710
0.195398, -38, 784, 2310, -33, 1316, 1710
0.195533, 885, 643, 2193, -121, 1219, 1460
0.195667, 885, 643, 2193, -121, 1219, 1460
0.195802, 885, 643, 2193, -121, 1219, 1460
0.195936, 885, 643, 2193, -121, 1219, 1460
0.196070, 885, 643, 2193, -121, 1219, 1460
0.196204, 885, 643, 2193, -121, 1219, 1460
0.196338, 885, 643, 2193, -121, 1219, 1460
0.196472, 885, 643, 2193, -121, 1219, 1460
0.196606, 1990, 324, 1394, -439, 467, 450
0.196740, 1990, 324, 1394, -439, 467, 450
0.196874, 1990, 324, 1394, -439, 467, 450
0.197008, 1990, 324, 1394, -439, 467, 450
0.197142, 1990, 324, 1394, -439, 467, 450
0.197276, 1990, 324, 1394, -439, 467, 450
0.197410, 1990, 324, 1394, -439, 467, 450
0.197543, 1990, 324, 1394, -439, 467, 450
0.197677, 1054, 537, 717, -1131, -499, -922
0.197811, 1054, 537, 717, -1131, -499, -922
0.197945, 1054, 537, 717, -1131, -499, -922
0.198079, 1054, 537, 717, -1131, -499, -922
0.198213, 1054, 537, 717, -1131, -499, -922
0.198347, 1054, 537, 717, -1131, -499, -922
0.198481, 1054, 537, 717, -1131, -499, -922
0.198615, -501, 770, 992, -1751, -1232, -1342
0.198749, -501, 770, 992, -1751, -1232, -1342
0.198883, -501, 770, 992, -1751, -1232, -1342
0.199017, -501, 770, 992, -1751, -1232, -1342
0.199176, -501, 770, 992, -1751, -1232, -1342
0.199311, -501, 770, 992, -1751, -1232, -1342
0.199445, -501, 770, 992, -1751, -1232, -1342
0.199579, -501, 770, 992, -1751, -1232, -1342
0.199713, 62, 371, 2296, -1774, -1726, -1051
0.199847, 62, 371, 2296, -1774, -1726, -1051
0.199981, 62, 371, 2296, -1774, -1726, -1051
0.200115, 62, 371, 2296, -1774, -1726, -1051
0.200249, 62, 371, 2296, -1774, -1726, -1051
0.200383, 62, 371, 2296, -1774, -1726, -1051
0.200517, 62, 371, 2296, -1774, -1726, -1051
0.200650, 697, 519, 2942, -1111, -1955, -1190
0.200784, 697, 519, 2942, -1111, -1955, -1190
0.200918, 697, 519, 2942, -1111, -1955, -1190
0.201052, 697, 519, 2942, -1111, -1955, -1190
0.201186, 697, 519, 2942, -1111, -1955, -1190
0.201320, 697, 519, 2942, -1111, -1955, -1190
0.201454, 697, 519, 2942, -1111, -1955, -1190
0.201588, 697, 519, 2942, -1111, -1955, -1190
0.201722, 209, 924, 2218, -567, -1742, -1369
0.201856, 209, 924, 2218, -567, -1742, -1369
0.201990, 209, 924, 2218, -567, -1742, -1369
0.202124, 209, 924, 2218, -567, -1742, -1369
0.202258, 209, 924, 2218, -567, -1742, -1369
0.202392, 209, 924, 2218, -567, -1742, -1369
0.202526, 209, 924, 2218, -567, -1742, -1369
0.202659, -143, 662, 1649, -547, -1327, -1174
0.202793, -143, 662, 1649, -547, -1327, -1174
0.202927, -143, 662, 1649, -547, -1327, -1174
0.203061, -143, 662, 1649, -547, -1327, -1174
0.203195, -143, 662, 1649, -547, -1327, -1174
0.203329, -143, 662, 1649, -547, -1327, -1174
0.203463, -143, 662, 1649, -547, -1327, -1174
0.203597, -143, 662, 1649, -547, -1327, -1174
0.203731, -690, 505, 1884, -595, -985, -754
0.203865, -690, 505, 1884, -595, -985, -754
0.203999, -690, 505, 1884, -595, -985, -754
0.204133, -690, 505, 1884, -595, -985, -754
0.204267, -690, 505, 1884, -595, -985, -754
0.204401, -690, 505, 1884, -595, -985, -754
0.204535, -690, 505, 1884, -595, -985, -754
0.204668, -812, 575, 2386, -409, -763, -22
0.204802, -812, 575, 2386, -409, -763, -22
0.204936, -812, 575, 2386, -409, -763, -22
0.205070, -812, 575, 2386, -409, -763, -22
0.205204, -812, 575, 2386, -409, -763, -22
0.205338, -812, 575, 2386, -409, -763, -22
0.205472, -812, 575, 2386, -409, -763, -22
0.205606, -812, 575, 2386, -409, -763, -22
0.205740, 803, 421, 2733, -40, -743, 400
0.205874, 803, 421, 2733, -40, -743, 400
0.206008, 803, 421, 2733, -40, -743, 400
0.206141, 803, 421, 2733, -40, -743, 400
0.206275, 803, 421, 2733, -40, -743, 400
0.206409, 803, 421, 2733, -40, -743, 400
0.206543, 803, 421, 2733, -40, -743, 400
0.206677, 2606, 476, 2657, 371, -777, -430
0.206811, 2606, 476, 2657, 371, -777, -430
0.206945, 2606, 476, 2657, 371, -777, -430
0.207079, 2606, 476, 2657, 371, -777, -430
0.207213, 2606, 476, 2657, 371, -777, -430
0.207347, 2606, 476, 2657, 371, -777, -430
0.207481, 2606, 476, 2657, 371, -777, -430
0.207615, 2606, 476, 2657, 371, -777, -430
0.207748, 2685, 639, 2169, 626, -556, -2101
0.207884, 2685, 639, 2169, 626, -556, -2101
0.208018, 2685, 639, 2169, 626, -556, -2101
0.208152, 2685, 639, 2169, 626, -556, -2101
0.208287, 2685, 639, 2169, 626, -556, -2101
0.208421, 2685, 639, 2169, 626, -556, -2101
0.208555, 2685, 639, 2169, 626, -556, -2101
0.208690, 2685, 639, 2169, 626, -556, -2101
0.208824, 1692, 509, 1841, 709, -166, -3563
0.208959, 1692, 509, 1841, 709, -166, -3563
0.209093, 1692, 509, 1841, 709, -166, -3563
0.209227, 1692, 509, 1841, 709, -166, -3563
0.209362, 1692, 509, 1841, 709, -166, -3563
0.209496, 1692, 509, 1841, 709, -166, -3563
0.209630, 1692, 509, 1841, 709, -166, -3563
0.209765, -132, 551, 1827, 892, 226, -4257
0.209905, -132, 551, 1827, 892, 226, -4257
0.210041, -132, 551, 1827, 892, 226, -4257
0.210175, -132, 551, 1827, 892, 226, -4257
0.210310, -132, 551, 1827, 892, 226, -4257
0.210445, -132, 551, 1827, 892, 226, -4257
0.210579, -132, 551, 1827, 892, 226, -4257
0.210714, -132, 551, 1827, 892, 226, -4257
0.210848, -2418, 820, 1559, 1068, 588, -3570
0.210983, -2418, 820, 1559, 1068, 588, -3570
0.211117, -2418, 820, 1559, 1068, 588, -3570
0.211252, -2418, 820, 1559, 1068, 588, -3570
0.211386, -2418, 820, 1559, 1068, 588, -3570
0.211521, -2418, 820, 1559, 1068, 588, -3570
0.211670, -2418, 820, 1559, 1068, 588, -3570
0.211806, -2475, 552, 1248, 828, 562, -1759
0.211941, -2475, 552, 1248, 828, 562, -1759
0.212076, -2475, 552, 1248, 828, 562, -1759
0.212210, -2475, 552, 1248, 828, 562, -1759
0.212345, -2475, 552, 1248, 828, 562, -1759
0.212479, -2475, 552, 1248, 828, 562, -1759
0.212614, -2475, 552, 1248, 828, 562, -1759
0.212748, -2475, 552, 1248, 828, 562, -1759
0.212883, -864, 192, 926, 127, -24, -417
0.213017, -864, 192, 926, 127, -24, -417
0.213152, -864, 192, 926, 127, -24, -417
0.213286, -864, 192, 926, 127, -24, -417
0.213421, -864, 192, 926, 127, -24, -417
0.213555, -864, 192, 926, 127, -24, -417
0.213690, -864, 192, 926, 127, -24, -417
0.213824, -171, 173, 1290, -804, -721, -47
0.213959, -171, 173, 1290, -804, -721, -47
0.214094, -171, 173, 1290, -804, -721, -47
0.214228, -171, 173, 1290, -804, -721, -47
0.214363, -171, 173, 1290, -804, -721, -47
0.214497, -171, 173, 1290, -804, -721, -47
0.214632, -171, 173, 1290, -804, -721, -47
0.214766, -171, 173, 1290, -804, -721, -47
0.214901, 76, 9, 2795, -1143, -1152, 39
0.215035, 76, 9, 2795, -1143, -1152, 39
0.215165, 76, 9, 2795, -1143, -1152, 39
0.215299, 76, 9, 2795, -1143, -1152, 39
0.215435, 76, 9, 2795, -1143, -1152, 39
0.215569, 76, 9, 2795, -1143, -1152, 39
0.215703, 76, 9, 2795, -1143, -1152, 39
0.215838, 308, 23, 2528, -658, -1317, -68
0.215972, 308, 23, 2528, -658, -1317, -68
0.216106, 308, 23, 2528, -658, -1317, -68
0.216240, 308, 23, 2528, -658, -1317, -68
0.216374, 308, 23, 2528, -658, -1317, -68
0.216508, 308, 23, 2528, -658, -1317, -68
0.216641, 308, 23, 2528, -658, -1317, -68
0.216775, 308, 23, 2528, -658, -1317, -68
0.216909, -366, 531, 849, -669, -1399, -225
0.217043, -366, 531, 849, -669, -1399, -225
0.217177, -366, 531, 849, -669, -1399, -225
0.217311, -366, 531, 849, -669, -1399, -225
0.217445, -366, 531, 849, -669, -1399, -225
0.217579, -366, 531, 849, -669, -1399, -225
0.217713, -366, 531, 849, -669, -1399, -225
0.217847, -1662, 894, 1115, -1290, -1513, 329
0.217981, -1662, 894, 1115, -1290, -1513, 329
0.218115, -1662, 894, 1115, -1290, -1513, 329
0.218249, -1662, 894, 1115, -1290, -1513, 329
0.218383, -1662, 894, 1115, -1290, -1513, 329
0.218517, -1662, 894, 1115, -1290, -1513, 329
0.218651, -1662, 894, 1115, -1290, -1513, 329
0.218784, -1662, 894, 1115, -1290, -1513, 329
0.218918, -2359, 672, 2685, -1334, -1611, 1689
0.219052, -2359, 672, 2685, -1334, -1611, 1689
0.219186, -2359, 672, 2685, -1334, -1611, 1689
0.219320, -2359, 672, 2685, -1334, -1611, 1689
0.219454, -2359, 672, 2685, -1334, -1611, 1689
0.219588, -2359, 672, 2685, -1334, -1611, 1689
0.219722, -2359, 672, 2685, -1334, -1611, 1689
0.219856, -2806, 1000, 3848, -528, -1606, 3448
0.219990, -2806, 1000, 3848, -528, -1606, 3448
0.220124, -2806, 1000, 3848, -528, -1606, 3448
0.220258, -2806, 1000, 3848, -528, -1606, 3448
0.220392, -2806, 1000, 3848, -528, -1606, 3448
0.220526, -2806, 1000, 3848, -528, -1606, 3448
0.220660, -2806, 1000, 3848, -528, -1606, 3448
0.220794, -2806, 1000, 3848, -528, -1606, 3448
0.220928, -1662, 853, 3077, 341, -1755, 5239
0.221062, -1662, 853, 3077, 341, -1755, 5239
0.221196, -1662, 853, 3077, 341, -1755, 5239
0.221330, -1662, 853, 3077, 341, -1755, 5239
0.221464, -1662, 853, 3077, 341, -1755, 5239
0.221598, -1662, 853, 3077, 341, -1755, 5239
0.221732, -1662, 853, 3077, 341, -1755, 5239
0.221866, -1662, 853, 3077, 341, -1755, 5239
0.222000, 344, 139, 274, -102, -2391, 5841
0.222134, 344, 139, 274, -102, -2391, 5841
0.222268, 344, 139, 274, -102, -2391, 5841
0.222402, 344, 139, 274, -102, -2391, 5841
0.222536, 344, 139, 274, -102, -2391, 5841
0.222670, 344, 139, 274, -102, -2391, 5841
0.222803, 344, 139, 274, -102, -2391, 5841
0.222937, 1495, 322, -246, -1962, -3272, 5278
0.223072, 1495, 322, -246, -1962, -3272, 5278
0.223206, 1495, 322, -246, -1962, -3272, 5278
0.223339, 1495, 322, -246, -1962, -3272, 5278
0.223473, 1495, 322, -246, -1962, -3272, 5278
0.223607, 1495, 322, -246, -1962, -3272, 5278
0.223741, 1495, 322, -246, -1962, -3272, 5278
0.223875, 1495, 322, -246, -1962, -3272, 5278
0.224009, 4809, -145, 3087, -2817, -3911, 3650
0.224152, 4809, -145, 3087, -2817, -3911, 3650
0.224287, 4809, -145, 3087, -2817, -3911, 3650
0.224421, 4809, -145, 3087, -2817, -3911, 3650
0.224555, 4809, -145, 3087, -2817, -3911, 3650
0.224689, 4809, -145, 3087, -2817, -3911, 3650
0.224823, 4809, -145, 3087, -2817, -3911, 3650
0.224957, 5876, 364, 4266, -1570, -3453, 63
0.225091, 5876, 364, 4266, -1570, -3453, 63
0.225225, 5876, 364, 4266, -1570, -3453, 63
0.225359, 5876, 364, 4266, -1570, -3453, 63
0.225493, 5876, 364, 4266, -1570, -3453, 63
0.225627, 5876, 364, 4266, -1570, -3453, 63
0.225761, 5876, 364, 4266, -1570, -3453, 63
0.225895, 5876, 364, 4266, -1570, -3453, 63
0.226029, 1825, 1600, 2232, -381, -1604, -2841
0.226163, 1825, 1600, 2232, -381, -1604, -2841
0.226297, 1825, 1600, 2232, -381, -1604, -2841
0.226431, 1825, 1600, 2232, -381, -1604, -2841
0.226565, 1825, 1600, 2232, -381, -1604, -2841
0.226698, 1825, 1600, 2232, -381, -1604, -2841
0.226832, 1825, 1600, 2232, -381, -1604, -2841
0.226966, -1392, 723, 1586, 21, 104, -3047
0.227101, -1392, 723, 1586, 21, 104, -3047
0.227235, -1392, 723, 1586, 21, 104, -3047
0.227369, -1392, 723, 1586, 21, 104, -3047
0.227502, -1392, 723, 1586, 21, 104, -3047
0.227636, -1392, 723, 1586, 21, 104, -3047
0.227770, -1392, 723, 1586, 21, 104, -3047
0.227905, -1392, 723, 1586, 21, 104, -3047
0.228040, -4119, 384, 915, 124, 681, -1522
0.228175, -4119, 384, 915, 124, 681, -1522
0.228309, -4119, 384, 915, 124, 681, -1522
0.228444, -4119, 384, 915, 124, 681, -1522
0.228578, -4119, 384, 915, 124, 681, -1522
0.228713, -4119, 384, 915, 124, 681, -1522
0.228847, -4119, 384, 915, 124, 681, -1522
0.228982, -5417, 795, -149, -854, 358, 1625
0.229116, -5417, 795, -149, -854, 358, 1625
0.229251, -5417, 795, -149, -854, 358, 1625
0.229385, -5417, 795, -149, -854, 358, 1625
0.229520, -5417, 795, -149, -854, 358, 1625
0.229654, -5417, 795, -149, -854, 358, 1625
0.229789, -5417, 795, -149, -854, 358, 1625
0.229923, -5417, 795, -149, -854, 358, 1625
0.230058, -2691, -59, 781, -2459, -659, 4710
0.230192, -2691, -59, 781, -2459, -659, 4710
0.230327, -2691, -59, 781, -2459, -659, 4710
0.230462, -2691, -59, 781, -2459, -659, 4710
0.230596, -2691, -59, 781, -2459, -659, 4710
0.230731, -2691, -59, 781, -2459, -659, 4710
0.230865, -2691, -59, 781, -2459, -659, 4710
0.231000, -2691, -59, 781, -2459, -659, 4710
0.231134, -328, -121, 2011, -3372, -1643, 5855
0.231269, -328, -121, 2011, -3372, -1643, 5855
0.231403, -328, -121, 2011, -3372, -1643, 5855
0.231538, -328, -121, 2011, -3372, -1643, 5855
0.231672, -328, -121, 2011, -3372, -1643, 5855
0.231808, -328, -121, 2011, -3372, -1643, 5855
0.231942, -328, -121, 2011, -3372, -1643, 5855
0.232077, 653, 427, 2903, -3597, -2174, 5857
0.232211, 653, 427, 2903, -3597, -2174, 5857
0.232346, 653, 427, 2903, -3597, -2174, 5857
0.232480, 653, 427, 2903, -3597, -2174, 5857
0.232615, 653, 427, 2903, -3597, -2174, 5857
0.232749, 653, 427, 2903, -3597, -2174, 5857
0.232884, 653, 427, 2903, -3597, -2174, 5857
0.233018, 653, 427, 2903, -3597, -2174, 5857
0.233153, 2098, 221, 4077, -3002, -2628, 5098
0.233287, 2098, 221, 4077, -3002, -2628, 5098
0.233422, 2098, 221, 4077, -3002, -2628, 5098
0.233556, 2098, 221, 4077, -3002, -2628, 5098
0.233691, 2098, 221, 4077, -3002, -2628, 5098
0.233825, 2098, 221, 4077, -3002, -2628, 5098
0.233959, 2098, 221, 4077, -3002, -2628, 5098
0.234094, 1422, 1233, 2562, -1867, -2983, 3679
0.234229, 1422, 1233, 2562, -1867, -2983, 3679
0.234363, 1422, 1233, 2562, -1867, -2983, 3679
0.234498, 1422, 1233, 2562, -1867, -2983, 3679
0.234632, 1422, 1233, 2562, -1867, -2983, 3679
0.234767, 1422, 1233, 2562, -1867, -2983, 3679
0.234901, 1422, 1233, 2562, -1867, -2983, 3679
0.235035, 1422, 1233, 2562, -1867, -2983, 3679
0.235170, -271, 1803, 308, -1996, -3167, 3159
0.235304, -271, 1803, 308, -1996, -3167, 3159
0.235439, -271, 1803, 308, -1996, -3167, 3159
0.235573, -271, 1803, 308, -1996, -3167, 3159
0.235708, -271, 1803, 308, -1996, -3167, 3159
0.235843, -271, 1803, 308, -1996, -3167, 3159
0.235977, -271, 1803, 308, -1996, -3167, 3159
0.236112, 1096, 150, 1814, -2592, -3586, 3224
0.236251, 1096, 150, 1814, -2592, -3586, 3224
0.236386, 1096, 150, 1814, -2592, -3586, 3224
0.236520, 1096, 150, 1814, -2592, -3586, 3224
0.236655, 1096, 150, 1814, -2592, -3586, 3224
0.236789, 1096, 150, 1814, -2592, -3586, 3224
0.236924, 1096, 150, 1814, -2592, -3586, 3224
0.237058, 1096, 150, 1814, -2592, -3586, 3224
0.237193, 1964, -56, 2745, -2121, -3728, 2351
0.237333, 1964, -56, 2745, -2121, -3728, 2351
0.237473, 1964, -56, 2745, -2121, -3728, 2351
0.237608, 1964, -56, 2745, -2121, -3728, 2351
0.237743, 1964, -56, 2745, -2121, -3728, 2351
0.237877, 1964, -56, 2745, -2121, -3728, 2351
0.238011, 1964, -56, 2745, -2121, -3728, 2351
0.238145, -36, 1228, 1280, -1984, -2797, 1717
0.238279, -36, 1228, 1280, -1984, -2797, 1717
0.238413, -36, 1228, 1280, -1984, -2797, 1717
0.238547, -36, 1228, 1280, -1984, -2797, 1717
0.238681, -36, 1228, 1280, -1984, -2797, 1717
0.238815, -36, 1228, 1280, -1984, -2797, 1717
0.238949, -36, 1228, 1280, -1984, -2797, 1717
0.239083, -36, 1228, 1280, -1984, -2797, 1717
0.239216, -676, 945, 862, -2565, -1597, 2169
0.239351, -676, 945, 862, -2565, -1597, 2169
0.239484, -676, 945, 862, -2565, -1597, 2169
0.239618, -676, 945, 862, -2565, -1597, 2169
0.239752, -676, 945, 862, -2565, -1597, 2169
0.239887, -676, 945, 862, -2565, -1597, 2169
0.240021, -676, 945, 862, -2565, -1597, 2169
0.240155, -43, 249, 929, -3217, -949, 2609
0.240289, -43, 249, 929, -3217, -949, 2609
0.240423, -43, 249, 929, -3217, -949, 2609
0.240557, -43, 249, 929, -3217, -949, 2609
0.240691, -43, 249, 929, -3217, -949, 2609
0.240825, -43, 249, 929, -3217, -949, 2609
0.240959, -43, 249, 929, -3217, -949, 2609
0.241093, -43, 249, 929, -3217, -949, 2609
0.241227, -488, 785, 521, -4115, -725, 2908
0.241361, -488, 785, 521, -4115, -725, 2908
0.241495, -488, 785, 521, -4115, -725, 2908
0.241628, -488, 785, 521, -4115, -725, 2908
0.241762, -488, 785, 521, -4115, -725, 2908
0.241896, -488, 785, 521, -4115, -725, 2908
0.242030, -488, 785, 521, -4115, -725, 2908
0.242164, 600, 22, 2056, -4920, -876, 3231
0.242298, 600, 22, 2056, -4920, -876, 3231
0.242432, 600, 22, 2056, -4920, -876, 3231
0.242566, 600, 22, 2056, -4920, -876, 3231
0.242700, 600, 22, 2056, -4920, -876, 3231
0.242834, 600, 22, 2056, -4920, -876, 3231
0.242968, 600, 22, 2056, -4920, -876, 3231
0.243102, 600, 22, 2056, -4920, -876, 3231
0.243236, 3065, -1149, 5078, -4095, -1197, 2335
0.243370, 3065, -1149, 5078, -4095, -1197, 2335
0.243504, 3065, -1149, 5078, -4095, -1197, 2335
0.243638, 3065, -1149, 5078, -4095, -1197, 2335
0.243772, 3065, -1149, 5078, -4095, -1197, 2335
0.243906, 3065, -1149, 5078, -4095, -1197, 2335
0.244040, 3065, -1149, 5078, -4095, -1197, 2335
0.244174, 3065, -1149, 5078, -4095, -1197, 2335
0.244308, 1889, 953, 3548, -2159, -1127, 408
0.244442, 1889, 953, 3548, -2159, -1127, 408
0.244576, 1889, 953, 3548, -2159, -1127, 408
0.244710, 1889, 953, 3548, -2159, -1127, 408
0.244844, 1889, 953, 3548, -2159, -1127, 408
0.244978, 1889, 953, 3548, -2159, -1127, 408
0.245112, 1889, 953, 3548, -2159, -1127, 408
0.245246, -795, 2296, 54, -2110, -813, -214
0.245380, -795, 2296, 54, -2110, -813, -214
0.245514, -795, 2296, 54, -2110, -813, -214
0.245648, -795, 2296, 54, -2110, -813, -214
0.245782, -795, 2296, 54, -2110, -813, -214
0.245916, -795, 2296, 54, -2110, -813, -214
0.246050, -795, 2296, 54, -2110, -813, -214
0.246184, -795, 2296, 54, -2110, -813, -214
0.246318, 166, 47, 2024, -2846, -1138, 192
0.246452, 166, 47, 2024, -2846, -1138, 192
0.246586, 166, 47, 2024, -2846, -1138, 192
0.246720, 166, 47, 2024, -2846, -1138, 192
0.246854, 166, 47, 2024, -2846, -1138, 192
0.246987, 166, 47, 2024, -2846, -1138, 192
0.247121, 166, 47, 2024, -2846, -1138, 192
0.247255, 705, -755, 3690, -1971, -1721, -93
0.247389, 705, -755, 3690, -1971, -1721, -93
0.247523, 705, -755, 3690, -1971, -1721, -93
0.247657, 705, -755, 3690, -1971, -1721, -93
0.247791, 705, -755, 3690, -1971, -1721, -93
0.247925, 705, -755, 3690, -1971, -1721, -93
0.248059, 705, -755, 3690, -1971, -1721, -93
0.248193, 705, -755, 3690, -1971, -1721, -93
0.248327, -1294, 249, 1947, -1322, -1579, 35
0.248461, -1294, 249, 1947, -1322, -1579, 35
0.248604, -1294, 249, 1947, -1322, -1579, 35
0.248739, -1294, 249, 1947, -1322, -1579, 35
0.248873, -1294, 249, 1947, -1322, -1579, 35
0.249007, -1294, 249, 1947, -1322, -1579, 35
0.249141, -1294, 249, 1947, -1322, -1579, 35
0.249275, -1461, 178, 1835, -1447, -1247, 1136
0.249409, -1461, 178, 1835, -1447, -1247, 1136
0.249543, -1461, 178, 1835, -1447, -1247, 1136
0.249677, -1461, 178, 1835, -1447, -1247, 1136
0.249811, -1461, 178, 1835, -1447, -1247, 1136
0.249944, -1461, 178, 1835, -1447, -1247, 1136
0.250078, -1461, 178, 1835, -1447, -1247, 1136
0.250212, -1461, 178, 1835, -1447, -1247, 1136
0.250346, -573, 414, 1323, -1506, -1214, 1918
0.250480, -573, 414, 1323, -1506, -1214, 1918
0.250614, -573, 414, 1323, -1506, -1214, 1918
0.250748, -573, 414, 1323, -1506, -1214, 1918
0.250882, -573, 414, 1323, -1506, -1214, 1918
0.251016, -573, 414, 1323, -1506, -1214, 1918
0.251150, -573, 414, 1323, -1506, -1214, 1918
0.251284, 305, 537, 858, -2313, -1382, 2162
0.251418, 305, 537, 858, -2313, -1382, 2162
0.251552, 305, 537, 858, -2313, -1382, 2162
0.251686, 305, 537, 858, -2313, -1382, 2162
0.251820, 305, 537, 858, -2313, -1382, 2162
0.251954, 305, 537, 858, -2313, -1382, 2162
0.252088, 305, 537, 858, -2313, -1382, 2162
0.252221, 305, 537, 858, -2313, -1382, 2162
0.252355, 1157, 291, 2550, -2857, -1731, 1822
0.252489, 1157, 291, 2550, -2857, -1731, 1822
0.252623, 1157, 291, 2550, -2857, -1731, 1822
0.252757, 1157, 291, 2550, -2857, -1731, 1822
0.252891, 1157, 291, 2550, -2857, -1731, 1822
0.253025, 1157, 291, 2550, -2857, -1731, 1822
0.253159, 1157, 291, 2550, -2857, -1731, 1822
0.253293, 1157, 291, 2550, -2857, -1731, 1822
0.253427, 341, 585, 3447, -2143, -1710, 1235
0.253561, 341, 585, 3447, -2143, -1710, 1235
0.253695, 341, 585, 3447, -2143, -1710, 1235
0.253829, 341, 585, 3447, -2143, -1710, 1235
0.253963, 341, 585, 3447, -2143, -1710, 1235
0.254096, 341, 585, 3447, -2143, -1710, 1235
0.254230, 341, 585, 3447, -2143, -1710, 1235
0.254364, -208, 356, 3646, -1159, -1312, 1289
0.254498, -208, 356, 3646, -1159, -1312, 1289
0.254632, -208, 356, 3646, -1159, -1312, 1289
0.254766, -208, 356, 3646, -1159, -1312, 1289
0.254900, -208, 356, 3646, -1159, -1312, 1289
0.255034, -208, 356, 3646, -1159, -1312, 1289
0.255168, -208, 356, 3646, -1159, -1312, 1289
0.255302, -208, 356, 3646, -1159, -1312, 1289
0.255436, 42, 598, 3462, -40, -1235, 1404
0.255570, 42, 598, 3462, -40, -1235, 1404
0.255704, 42, 598, 3462, -40, -1235, 1404
0.255838, 42, 598, 3462, -40, -1235, 1404
0.255972, 42, 598, 3462, -40, -1235, 1404
0.256106, 42, 598, 3462, -40, -1235, 1404
0.256240, 42, 598, 3462, -40, -1235, 1404
0.256374, -1211, 1669, 1852, 578, -1335, 1571
0.256508, -1211, 1669, 1852, 578, -1335, 1571
0.256642, -1211, 1669, 1852, 578, -1335, 1571
0.256776, -1211, 1669, 1852, 578, -1335, 1571
0.256910, -1211, 1669, 1852, 578, -1335, 1571
0.257044, -1211, 1669, 1852, 578, -1335, 1571
0.257177, -1211, 1669, 1852, 578, -1335, 1571
0.257311, -1211, 1669, 1852, 578, -1335, 1571
0.257445, -1110, 765, 1713, 164, -1457, 2547
0.257579, -1110, 765, 1713, 164, -1457, 2547
0.257713, -1110, 765, 1713, 164, -1457, 2547
0.257847, -1110, 765, 1713, 164, -1457, 2547
0.257981, -1110, 765, 1713, 164, -1457, 2547
0.258115, -1110, 765, 1713, 164, -1457, 2547
0.258249, -1110, 765, 1713, 164, -1457, 2547
0.258383, 784, -179, 2618, 42, -1878, 2896
0.258517, 784, -179, 2618, 42, -1878, 2896
0.258651, 784, -179, 2618, 42, -1878, 2896
0.258795, 784, -179, 2618, 42, -1878, 2896
0.258941, 784, -179, 2618, 42, -1878, 2896
0.259083, 784, -179, 2618, 42, -1878, 2896
0.259223, 784, -179, 2618, 42, -1878, 2896
0.259359, 784, -179, 2618, 42, -1878, 2896
0.259498, 36, 979, 1865, 82, -2002, 2460
0.259640, 36, 979, 1865, 82, -2002, 2460
0.259775, 36, 979, 1865, 82, -2002, 2460
0.259913, 36, 979, 1865, 82, -2002, 2460
0.260056, 36, 979, 1865, 82, -2002, 2460
0.260202, 36, 979, 1865, 82, -2002, 2460
0.260343, 36, 979, 1865, 82, -2002, 2460
0.260481, -647, 867, 1835, -314, -1715, 2737
0.260616, -647, 867, 1835, -314, -1715, 2737
0.260758, -647, 867, 1835, -314, -1715, 2737
0.260927, -647, 867, 1835, -314, -1715, 2737
0.261069, -647, 867, 1835, -314, -1715, 2737
0.261210, -647, 867, 1835, -314, -1715, 2737
0.261356, -647, 867, 1835, -314, -1715, 2737
0.261500, 760, 164, 1976, -495, -1669, 2926
0.261635, 760, 164, 1976, -495, -1669, 2926
0.261771, 760, 164, 1976, -495, -1669, 2926
0.261906, 760, 164, 1976, -495, -1669, 2926
0.262041, 760, 164, 1976, -495, -1669, 2926
0.262176, 760, 164, 1976, -495, -1669, 2926
0.262311, 760, 164, 1976, -495, -1669, 2926
0.262445, 1882, 129, 1454, -728, -1811, 2157
0.262580, 1882, 129, 1454, -728, -1811, 2157
0.262710, 1882, 129, 1454, -728, -1811, 2157
0.262845, 1882, 129, 1454, -728, -1811, 2157
0.262991, 1882, 129, 1454, -728, -1811, 2157
0.263136, 1882, 129, 1454, -728, -1811, 2157
0.263272, 1882, 129, 1454, -728, -1811, 2157
0.263407, 1882, 129, 1454, -728, -1811, 2157
0.263542, 1979, 19, 1289, -1238, -1889, 919
0.263677, 1979, 19, 1289, -1238, -1889, 919
0.263812, 1979, 19, 1289, -1238, -1889, 919
0.263947, 1979, 19, 1289, -1238, -1889, 919
0.264081, 1979, 19, 1289, -1238, -1889, 919
0.264224, 1979, 19, 1289, -1238, -1889, 919
0.264358, 1979, 19, 1289, -1238, -1889, 919
0.264493, 656, 751, 950, -1668, -1664, -54
0.264628, 656, 751, 950, -1668, -1664, -54
0.264762, 656, 751, 950, -1668, -1664, -54
0.264897, 656, 751, 950, -1668, -1664, -54
0.265032, 656, 751, 950, -1668, -1664, -54
0.265166, 656, 751, 950, -1668, -1664, -54
0.265301, 656, 751, 950, -1668, -1664, -54
0.265436, 656, 751, 950, -1668, -1664, -54
0.265570, -467, 1117, 1465, -1997, -1125, -102
0.265705, -467, 1117, 1465, -1997, -1125, -102
0.265839, -467, 1117, 1465, -1997, -1125, -102
0.265974, -467, 1117, 1465, -1997, -1125, -102
0.266109, -467, 1117, 1465, -1997, -1125, -102
0.266243, -467, 1117, 1465, -1997, -1125, -102
0.266378, -467, 1117, 1465, -1997, -1125, -102
0.266522, -71, 152, 3037, -1779, -723, 302
0.266669, -71, 152, 3037, -1779, -723, 302
0.266813, -71, 152, 3037, -1779, -723, 302
0.266957, -71, 152, 3037, -1779, -723, 302
0.267104, -71, 152, 3037, -1779, -723, 302
0.267247, -71, 152, 3037, -1779, -723, 302
0.267391, -71, 152, 3037, -1779, -723, 302
0.267535, 12, -83, 3482, -867, -601, 462
0.267682, 12, -83, 3482, -867, -601, 462
0.267826, 12, -83, 3482, -867, -601, 462
0.267973, 12, -83, 3482, -867, -601, 462
0.268118, 12, -83, 3482, -867, -601, 462
0.268260, 12, -83, 3482, -867, -601, 462
0.268396, 12, -83, 3482, -867, -601, 462
0.268531, -671, 866, 2551, -122, -560, 741
0.268665, -671, 866, 2551, -122, -560, 741
0.268799, -671, 866, 2551, -122, -560, 741
0.268935, -671, 866, 2551, -122, -560, 741
0.269077, -671, 866, 2551, -122, -560, 741
0.269213, -671, 866, 2551, -122, -560, 741
0.269347, -671, 866, 2551, -122, -560, 741
0.269481, -671, 866, 2551, -122, -560, 741
0.269615, -1093, 1472, 1749, 23, -592, 1406
0.269749, -1093, 1472, 1749, 23, -592, 1406
0.269883, -1093, 1472, 1749, 23, -592, 1406
0.270017, -1093, 1472, 1749, 23, -592, 1406
0.270151, -1093, 1472, 1749, 23, -592, 1406
0.270285, -1093, 1472, 1749, 23, -592, 1406
0.270419, -1093, 1472, 1749, 23, -592, 1406
0.270553, -492, 1110, 1493, -283, -841, 2171
0.270687, -492, 1110, 1493, -283, -841, 2171
0.270821, -492, 1110, 1493, -283, -841, 2171
0.270955, -492, 1110, 1493, -283, -841, 2171
0.271088, -492, 1110, 1493, -283, -841, 2171
0.271222, -492, 1110, 1493, -283, -841, 2171
0.271356, -492, 1110, 1493, -283, -841, 2171
0.271490, -492, 1110, 1493, -283, -841, 2171
0.271624, 1617, -118, 1824, -711, -1361, 2251
0.271758, 1617, -118, 1824, -711, -1361, 2251
0.271894, 1617, -118, 1824, -711, -1361, 2251
0.272028, 1617, -118, 1824, -711, -1361, 2251
0.272163, 1617, -118, 1824, -711, -1361, 2251
0.272297, 1617, -118, 1824, -711, -1361, 2251
0.272432, 1617, -118, 1824, -711, -1361, 2251
0.272566, 2312, -680, 1788, -972, -1748, 1147
0.272701, 2312, -680, 1788, -972, -1748, 1147
0.272835, 2312, -680, 1788, -972, -1748, 1147
0.272970, 2312, -680, 1788, -972, -1748, 1147
0.273104, 2312, -680, 1788, -972, -1748, 1147
0.273238, 2312, -680, 1788, -972, -1748, 1147
0.273373, 2312, -680, 1788, -972, -1748, 1147
0.273507, 2312, -680, 1788, -972, -1748, 1147
0.273670, 634, -228, 1691, -1060, -1508, 101
0.273806, 634, -228, 1691, -1060, -1508, 101
0.273938, 634, -228, 1691, -1060, -1508, 101
0.274074, 634, -228, 1691, -1060, -1508, 101
0.274218, 634, -228, 1691, -1060, -1508, 101
0.274362, 634, -228, 1691, -1060, -1508, 101
0.274498, 634, -228, 1691, -1060, -1508, 101
0.274633, -414, 304, 1577, -986, -958, 98
0.274767, -414, 304, 1577, -986, -958, 98
0.274902, -414, 304, 1577, -986, -958, 98
0.275036, -414, 304, 1577, -986, -958, 98
0.275170, -414, 304, 1577, -986, -958, 98
0.275305, -414, 304, 1577, -986, -958, 98
0.275446, -414, 304, 1577, -986, -958, 98
0.275582, -414, 304, 1577, -986, -958, 98
0.275717, 8, 743, 815, -1174, -694, 350
0.275852, 8, 743, 815, -1174, -694, 350
0.275986, 8, 743, 815, -1174, -694, 350
0.276120, 8, 743, 815, -1174, -694, 350
0.276254, 8, 743, 815, -1174, -694, 350
0.276388, 8, 743, 815, -1174, -694, 350
0.276522, 8, 743, 815, -1174, -694, 350
0.276656, 1098, 609, 875, -1889, -749, 170
0.276790, 1098, 609, 875, -1889, -749, 170
0.276924, 1098, 609, 875, -1889, -749, 170
0.277058, 1098, 609, 875, -1889, -749, 170
0.277192, 1098, 609, 875, -1889, -749, 170
0.277326, 1098, 609, 875, -1889, -749, 170
0.277459, 1098, 609, 875, -1889, -749, 170
0.277593, 1098, 609, 875, -1889, -749, 170
0.277727, 1486, 395, 2012, -2371, -768, -524
0.277861, 1486, 395, 2012, -2371, -768, -524
0.277995, 1486, 395, 2012, -2371, -768, -524
0.278129, 1486, 395, 2012, -2371, -768, -524
0.278263, 1486, 395, 2012, -2371, -768, -524
0.278392, 1486, 395, 2012, -2371, -768, -524
0.278533, 1486, 395, 2012, -2371, -768, -524
0.278669, -415, 1081, 2206, -2200, -352, -967
0.278803, -415, 1081, 2206, -2200, -352, -967
0.278937, -415, 1081, 2206, -2200, -352, -967
0.279071, -415, 1081, 2206, -2200, -352, -967
0.279205, -415, 1081, 2206, -2200, -352, -967
0.279339, -415, 1081, 2206, -2200, -352, -967
0.279470, -415, 1081, 2206, -2200, -352, -967
0.279604, -415, 1081, 2206, -2200, -352, -967
0.279738, -1341, 1021, 1243, -2265, 135, -200
0.279873, -1341, 1021, 1243, -2265, 135, -200
0.280007, -1341, 1021, 1243, -2265, 135, -200
0.280141, -1341, 1021, 1243, -2265, 135, -200
0.280275, -1341, 1021, 1243, -2265, 135, -200
0.280409, -1341, 1021, 1243, -2265, 135, -200
0.280543, -1341, 1021, 1243, -2265, 135, -200
0.280677, 512, -72, 1489, -2767, -23, 514
0.280811, 512, -72, 1489, -2767, -23, 514
0.280945, 512, -72, 1489, -2767, -23, 514
0.281079, 512, -72, 1489, -2767, -23, 514
0.281213, 512, -72, 1489, -2767, -23, 514
0.281347, 512, -72, 1489, -2767, -23, 514
0.281481, 512, -72, 1489, -2767, -23, 514
0.281614, 512, -72, 1489, -2767, -23, 514
0.281749, 421, 59, 2875, -2680, -441, 237
0.281883, 421, 59, 2875, -2680, -441, 237
0.282017, 421, 59, 2875, -2680, -441, 237
0.282151, 421, 59, 2875, -2680, -441, 237
0.282285, 421, 59, 2875, -2680, -441, 237
0.282418, 421, 59, 2875, -2680, -441, 237
0.282552, 421, 59, 2875, -2680, -441, 237
0.282686, 421, 59, 2875, -2680, -441, 237
0.282820, -1583, 882, 3102, -1968, -425, 588
0.282950, -1583, 882, 3102, -1968, -425, 588
0.283092, -1583, 882, 3102, -1968, -425, 588
0.283228, -1583, 882, 3102, -1968, -425, 588
0.283362, -1583, 882, 3102, -1968, -425, 588
0.283496, -1583, 882, 3102, -1968, -425, 588
0.283630, -1583, 882, 3102, -1968, -425, 588
0.283764, -1298, 942, 2034, -1541, -359, 1850
0.283899, -1298, 942, 2034, -1541, -359, 1850
0.284034, -1298, 942, 2034, -1541, -359, 1850
0.284175, -1298, 942, 2034, -1541, -359, 1850
0.284313, -1298, 942, 2034, -1541, -359, 1850
0.284448, -1298, 942, 2034, -1541, -359, 1850
0.284582, -1298, 942, 2034, -1541, -359, 1850
0.284717, -1298, 942, 2034, -1541, -359, 1850
0.284851, 999, 250, 2085, -1602, -822, 2268
0.284986, 999, 250, 2085, -1602, -822, 2268
0.285120, 999, 250, 2085, -1602, -822, 2268
0.285255, 999, 250, 2085, -1602, -822, 2268
0.285389, 999, 250, 2085, -1602, -822, 2268
0.285524, 999, 250, 2085, -1602, -822, 2268
0.285658, 999, 250, 2085, -1602, -822, 2268
0.285792, 1263, 190, 3115, -1386, -1371, 1555
0.285927, 1263, 190, 3115, -1386, -1371, 1555
0.286062, 1263, 190, 3115, -1386, -1371, 1555
0.286217, 1263, 190, 3115, -1386, -1371, 1555
0.286352, 1263, 190, 3115, -1386, -1371, 1555
0.286487, 1263, 190, 3115, -1386, -1371, 1555
0.286621, 1263, 190, 3115, -1386, -1371, 1555
0.286755, 31, 511, 3114, -701, -1452, 1113
0.286890, 31, 511, 3114, -701, -1452, 1113
0.287024, 31, 511, 3114, -701, -1452, 1113
0.287159, 31, 511, 3114, -701, -1452, 1113
0.287293, 31, 511, 3114, -701, -1452, 1113
0.287428, 31, 511, 3114, -701, -1452, 1113
0.287562, 31, 511, 3114, -701, -1452, 1113
0.287697, 31, 511, 3114, -701, -1452, 1113
0.287831, -32, 568, 2308, -139, -1271, 1197
0.287966, -32, 568, 2308, -139, -1271, 1197
0.288101, -32, 568, 2308, -139, -1271, 1197
0.288235, -32, 568, 2308, -139, -1271, 1197
0.288370, -32, 568, 2308, -139, -1271, 1197
0.288504, -32, 568, 2308, -139, -1271, 1197
0.288639, -32, 568, 2308, -139, -1271, 1197
0.288773, -32, 568, 2308, -139, -1271, 1197
0.288908, -337, 1025, 1740, 28, -1131, 1283
0.289042, -337, 1025, 1740, 28, -1131, 1283
0.289177, -337, 1025, 1740, 28, -1131, 1283
0.289312, -337, 1025, 1740, 28, -1131, 1283
0.289446, -337, 1025, 1740, 28, -1131, 1283
0.289581, -337, 1025, 1740, 28, -1131, 1283
0.289715, -337, 1025, 1740, 28, -1131, 1283
0.289849, -538, 814, 1829, -121, -1086, 1693
0.289984, -538, 814, 1829, -121, -1086, 1693
0.290119, -538, 814, 1829, -121, -1086, 1693
0.290253, -538, 814, 1829, -121, -1086, 1693
0.290387, -538, 814, 1829, -121, -1086, 1693
0.290522, -538, 814, 1829, -121, -1086, 1693
0.290656, -538, 814, 1829, -121, -1086, 1693
0.290791, -538, 814, 1829, -121, -1086, 1693
0.290925, 869, 39, 1980, -360, -1209, 1950
0.291060, 869, 39, 1980, -360, -1209, 1950
0.291194, 869, 39, 1980, -360, -1209, 1950
0.291329, 869, 39, 1980, -360, -1209, 1950
0.291463, 869, 39, 1980, -360, -1209, 1950
0.291598, 869, 39, 1980, -360, -1209, 1950
0.291732, 869, 39, 1980, -360, -1209, 1950
0.291868, 1581, 295, 1859, -484, -1270, 1277
0.292003, 1581, 295, 1859, -484, -1270, 1277
0.292137, 1581, 295, 1859, -484, -1270, 1277
0.292272, 1581, 295, 1859, -484, -1270, 1277
0.292406, 1581, 295, 1859, -484, -1270, 1277
0.292541, 1581, 295, 1859, -484, -1270, 1277
0.292675, 1581, 295, 1859, -484, -1270, 1277
0.292810, 1581, 295, 1859, -484, -1270, 1277
0.292944, 532, 819, 1315, -690, -972, 575
0.293079, 532, 819, 1315, -690, -972, 575
0.293214, 532, 819, 1315, -690, -972, 575
0.293348, 532, 819, 1315, -690, -972, 575
0.293482, 532, 819, 1315, -690, -972, 575
0.293617, 532, 819, 1315, -690, -972, 575
0.293751, 532, 819, 1315, -690, -972, 575
0.293886, -73, 483, 1066, -1210, -629, 536
0.294021, -73, 483, 1066, -1210, -629, 536
0.294155, -73, 483, 1066, -1210, -629, 536
0.294290, -73, 483, 1066, -1210, -629, 536
0.294424, -73, 483, 1066, -1210, -629, 536
0.294559, -73, 483, 1066, -1210, -629, 536
0.294693, -73, 483, 1066, -1210, -629, 536
0.294828, -73, 483, 1066, -1210, -629, 536
0.294962, -528, 476, 1909, -1465, -504, 813
0.295097, -528, 476, 1909, -1465, -504, 813
0.295231, -528, 476, 1909, -1465, -504, 813
0.295366, -528, 476, 1909, -1465, -504, 813
0.295500, -528, 476, 1909, -1465, -504, 813
0.295635, -528, 476, 1909, -1465, -504, 813
0.295769, -528, 476, 1909, -1465, -504, 813
0.295904, -983, 823, 2657, -1126, -485, 1487
0.296039, -983, 823, 2657, -1126, -485, 1487
0.296173, -983, 823, 2657, -1126, -485, 1487
0.296307, -983, 823, 2657, -1126, -485, 1487
0.296442, -983, 823, 2657, -1126, -485, 1487
0.296576, -983, 823, 2657, -1126, -485, 1487
0.296711, -983, 823, 2657, -1126, -485, 1487
0.296845, -983, 823, 2657, -1126, -485, 1487
0.296980, 953, 12, 2689, -706, -658, 2003
0.297114, 953, 12, 2689, -706, -658, 2003
0.297249, 953, 12, 2689, -706, -658, 2003
0.297383, 953, 12, 2689, -706, -658, 2003
0.297518, 953, 12, 2689, -706, -658, 2003
0.297652, 953, 12, 2689, -706, -658, 2003
0.297787, 953, 12, 2689, -706, -658, 2003
0.297921, 3022, -271, 2234, -464, -1025, 1005
0.298056, 3022, -271, 2234, -464, -1025, 1005
0.298190, 3022, -271, 2234, -464, -1025, 1005
0.298325, 3022, -271, 2234, -464, -1025, 1005
0.298459, 3022, -271, 2234, -464, -1025, 1005
0.298594, 3022, -271, 2234, -464, -1025, 1005
0.298734, 3022, -271, 2234, -464, -1025, 1005
0.298869, 3022, -271, 2234, -464, -1025, 1005
0.299003, 3118, 485, 1566, -513, -1131, -885
0.299138, 3118, 485, 1566, -513, -1131, -885
0.299272, 3118, 485, 1566, -513, -1131, -885
0.299407, 3118, 485, 1566, -513, -1131, -885
0.299545, 3118, 485, 1566, -513, -1131, -885
0.299688, 3118, 485, 1566, -513, -1131, -885
0.299831, 3118, 485, 1566, -513, -1131, -885
0.299975, 3628, 235, 1857, -639, -874, -2842
0.300113, 3628, 235, 1857, -639, -874, -2842
0.300247, 3628, 235, 1857, -639, -874, -2842
0.300381, 3628, 235, 1857, -639, -874, -2842
0.300516, 3628, 235, 1857, -639, -874, -2842
0.300650, 3628, 235, 1857, -639, -874, -2842
0.300784, 3628, 235, 1857, -639, -874, -2842
0.300919, 3628, 235, 1857, -639, -874, -2842
0.301060, 2145, 360, 2499, -153, -177, -4891
0.301201, 2145, 360, 2499, -153, -177, -4891
0.301335, 2145, 360, 2499, -153, -177, -4891
0.301470, 2145, 360, 2499, -153, -177, -4891
0.301604, 2145, 360, 2499, -153, -177, -4891
0.301739, 2145, 360, 2499, -153, -177, -4891
0.301873, 2145, 360, 2499, -153, -177, -4891
0.302008, -1326, 835, 2316, 662, 1013, -5304
0.302142, -1326, 835, 2316, 662, 1013, -5304
0.302277, -1326, 835, 2316, 662, 1013, -5304
0.302411, -1326, 835, 2316, 662, 1013, -5304
0.302546, -1326, 835, 2316, 662, 1013, -5304
0.302680, -1326, 835, 2316, 662, 1013, -5304
0.302815, -1326, 835, 2316, 662, 1013, -5304
0.302949, -1326, 835, 2316, 662, 1013, -5304
0.303084, -2648, 625, 2123, 1209, 1894, -3761
0.303218, -2648, 625, 2123, 1209, 1894, -3761
0.303353, -2648, 625, 2123, 1209, 1894, -3761
0.303487, -2648, 625, 2123, 1209, 1894, -3761
0.303622, -2648, 625, 2123, 1209, 1894, -3761
0.303756, -2648, 625, 2123, 1209, 1894, -3761
0.303891, -2648, 625, 2123, 1209, 1894, -3761
0.304026, -3273, 856, 1668, 1403, 2024, -1720
0.304160, -3273, 856, 1668, 1403, 2024, -1720
0.304294, -3273, 856, 1668, 1403, 2024, -1720
0.304429, -3273, 856, 1668, 1403, 2024, -1720
0.304563, -3273, 856, 1668, 1403, 2024, -1720
0.304697, -3273, 856, 1668, 1403, 2024, -1720
0.304832, -3273, 856, 1668, 1403, 2024, -1720
0.304966, -3273, 856, 1668, 1403, 2024, -1720
0.305100, -2975, 627, 1178, 847, 1552, 623
0.305235, -2975, 627, 1178, 847, 1552, 623
0.305369, -2975, 627, 1178, 847, 1552, 623
0.305504, -2975, 627, 1178, 847, 1552, 623
0.305638, -2975, 627, 1178, 847, 1552, 623
0.305772, -2975, 627, 1178, 847, 1552, 623
0.305907, -2975, 627, 1178, 847, 1552, 623
0.306041, -185, -293, 2407, 154, 429, 2070
0.306175, -185, -293, 2407, 154, 429, 2070
0.306310, -185, -293, 2407, 154, 429, 2070
0.306444, -185, -293, 2407, 154, 429, 2070
0.306579, -185, -293, 2407, 154, 429, 2070
0.306713, -185, -293, 2407, 154, 429, 2070
0.306847, -185, -293, 2407, 154, 429, 2070
0.306981, -185, -293, 2407, 154, 429, 2070
0.307123, -593, 816, 3236, 384, -558, 2084
0.307266, -593, 816, 3236, 384, -558, 2084
0.307403, -593, 816, 3236, 384, -558, 2084
0.307538, -593, 816, 3236, 384, -558, 2084
0.307672, -593, 816, 3236, 384, -558, 2084
0.307807, -593, 816, 3236, 384, -558, 2084
0.307942, -593, 816, 3236, 384, -558, 2084
0.308076, -2491, 1781, 2807, 848, -833, 3003
0.308214, -2491, 1781, 2807, 848, -833, 3003
0.308355, -2491, 1781, 2807, 848, -833, 3003
0.308491, -2491, 1781, 2807, 848, -833, 3003
0.308626, -2491, 1781, 2807, 848, -833, 3003
0.308760, -2491, 1781, 2807, 848, -833, 3003
0.308895, -2491, 1781, 2807, 848, -833, 3003
0.309029, -2491, 1781, 2807, 848, -833, 3003
0.309169, -350, 346, 2913, 1167, -1383, 4311
0.309314, -350, 346, 2913, 1167, -1383, 4311
0.309450, -350, 346, 2913, 1167, -1383, 4311
0.309585, -350, 346, 2913, 1167, -1383, 4311
0.309719, -350, 346, 2913, 1167, -1383, 4311
0.309854, -350, 346, 2913, 1167, -1383, 4311
0.309988, -350, 346, 2913, 1167, -1383, 4311
0.310123, 784, -449, 2080, 1444, -2373, 4141
0.310257, 784, -449, 2080, 1444, -2373, 4141
0.310392, 784, -449, 2080, 1444, -2373, 4141
0.310526, 784, -449, 2080, 1444, -2373, 4141
0.310661, 784, -449, 2080, 1444, -2373, 4141
0.310795, 784, -449, 2080, 1444, -2373, 4141
0.310930, 784, -449, 2080, 1444, -2373, 4141
0.311064, 784, -449, 2080, 1444, -2373, 4141
0.311223, -22, 40, 1077, 1086, -3030, 3802
0.311359, -22, 40, 1077, 1086, -3030, 3802
0.311493, -22, 40, 1077, 1086, -3030, 3802
0.311628, -22, 40, 1077, 1086, -3030, 3802
0.311762, -22, 40, 1077, 1086, -3030, 3802
0.311897, -22, 40, 1077, 1086, -3030, 3802
0.312032, -22, 40, 1077, 1086, -3030, 3802
0.312167, -58, 1124, 1136, 458, -3176, 3963
0.312301, -58, 1124, 1136, 458, -3176, 3963
0.312436, -58, 1124, 1136, 458, -3176, 3963
0.312570, -58, 1124, 1136, 458, -3176, 3963
0.312705, -58, 1124, 1136, 458, -3176, 3963
0.312839, -58, 1124, 1136, 458, -3176, 3963
0.312974, -58, 1124, 1136, 458, -3176, 3963
0.313108, 1904, 541, 2079, 154, -2905, 3663
0.313243, 1904, 541, 2079, 154, -2905, 3663
0.313377, 1904, 541, 2079, 154, -2905, 3663
0.313512, 1904, 541, 2079, 154, -2905, 3663
0.313646, 1904, 541, 2079, 154, -2905, 3663
0.313781, 1904, 541, 2079, 154, -2905, 3663
0.313915, 1904, 541, 2079, 154, -2905, 3663
0.314050, 1904, 541, 2079, 154, -2905, 3663
0.314184, 4337, -1155, 3203, 431, -2264, 2011
0.314319, 4337, -1155, 3203, 431, -2264, 2011
0.314454, 4337, -1155, 3203, 431, -2264, 2011
0.314588, 4337, -1155, 3203, 431, -2264, 2011
0.314723, 4337, -1155, 3203, 431, -2264, 2011
0.314857, 4337, -1155, 3203, 431, -2264, 2011
0.314992, 4337, -1155, 3203, 431, -2264, 2011
0.315126, 4337, -1155, 3203, 431, -2264, 2011
0.315260, 3186, -521, 2441, 1113, -1206, -429
0.315395, 3186, -521, 2441, 1113, -1206, -429
0.315530, 3186, -521, 2441, 1113, -1206, -429
0.315664, 3186, -521, 2441, 1113, -1206, -429
0.315799, 3186, -521, 2441, 1113, -1206, -429
0.315933, 3186, -521, 2441, 1113, -1206, -429
0.316068, 3186, -521, 2441, 1113, -1206, -429
0.316202, 223, 687, 1407, 1429, 113, -1701
0.316337, 223, 687, 1407, 1429, 113, -1701
0.316471, 223, 687, 1407, 1429, 113, -1701
0.316605, 223, 687, 1407, 1429, 113, -1701
0.316740, 223, 687, 1407, 1429, 113, -1701
0.316874, 223, 687, 1407, 1429, 113, -1701
0.317008, 223, 687, 1407, 1429, 113, -1701
0.317143, 223, 687, 1407, 1429, 113, -1701
0.317277, -879, 613, 1994, 1640, 1085, -1449
0.317421, -879, 613, 1994, 1640, 1085, -1449
0.317563, -879, 613, 1994, 1640, 1085, -1449
0.317699, -879, 613, 1994, 1640, 1085, -1449
0.317834, -879, 613, 1994, 1640, 1085, -1449
0.317969, -879, 613, 1994, 1640, 1085, -1449
0.318104, -879, 613, 1994, 1640, 1085, -1449
0.318238, 92, 180, 2327, 2086, 1327, -934
0.318373, 92, 180, 2327, 2086, 1327, -934
0.318508, 92, 180, 2327, 2086, 1327, -934
0.318643, 92, 180, 2327, 2086, 1327, -934
0.318777, 92, 180, 2327, 2086, 1327, -934
0.318912, 92, 180, 2327, 2086, 1327, -934
0.319047, 92, 180, 2327, 2086, 1327, -934
0.319181, 92, 180, 2327, 2086, 1327, -934
0.319316, 1184, 101, 1253, 2005, 1137, -1021
0.319451, 1184, 101, 1253, 2005, 1137, -1021
0.319586, 1184, 101, 1253, 2005, 1137, -1021
0.319720, 1184, 101, 1253, 2005, 1137, -1021
0.319856, 1184, 101, 1253, 2005, 1137, -1021
0.319990, 1184, 101, 1253, 2005, 1137, -1021
0.320125, 1184, 101, 1253, 2005, 1137, -1021
0.320260, 809, 338, 162, 1021, 919, -1560
0.320394, 809, 338, 162, 1021, 919, -1560
0.320524, 809, 338, 162, 1021, 919, -1560
0.320660, 809, 338, 162, 1021, 919, -1560
0.320801, 809, 338, 162, 1021, 919, -1560
0.320939, 809, 338, 162, 1021, 919, -1560
0.321080, 809, 338, 162, 1021, 919, -1560
0.321219, -488, 364, 482, -149, 797, -1730
0.321356, -488, 364, 482, -149, 797, -1730
0.321491, -488, 364, 482, -149, 797, -1730
0.321626, -488, 364, 482, -149, 797, -1730
0.321761, -488, 364, 482, -149, 797, -1730
0.321895, -488, 364, 482, -149, 797, -1730
0.322030, -488, 364, 482, -149, 797, -1730
0.322165, -488, 364, 482, -149, 797, -1730
0.322299, -1503, 335, 1293, -762, 664, -1086
0.322434, -1503, 335, 1293, -762, 664, -1086
0.322569, -1503, 335, 1293, -762, 664, -1086
0.322703, -1503, 335, 1293, -762, 664, -1086
0.322838, -1503, 335, 1293, -762, 664, -1086
0.322973, -1503, 335, 1293, -762, 664, -1086
0.323107, -1503, 335, 1293, -762, 664, -1086
0.323242, -1503, 335, 1293, -762, 664, -1086
0.323376, -1996, 538, 1443, -1041, 365, 148
0.323511, -1996, 538, 1443, -1041, 365, 148
0.323646, -1996, 538, 1443, -1041, 365, 148
0.323807, -1996, 538, 1443, -1041, 365, 148
0.323943, -1996, 538, 1443, -1041, 365, 148
0.324078, -1996, 538, 1443, -1041, 365, 148
0.324212, -1996, 538, 1443, -1041, 365, 148
0.324347, -1737, 569, 2023, -1242, -109, 1576
0.324482, -1737, 569, 2023, -1242, -109, 1576
0.324616, -1737, 569, 2023, -1242, -109, 1576
0.324751, -1737, 569, 2023, -1242, -109, 1576
0.324886, -1737, 569, 2023, -1242, -109, 1576
0.325020, -1737, 569, 2023, -1242, -109, 1576
0.325155, -1737, 569, 2023, -1242, -109, 1576
0.325289, -404, 478, 3004, -1025, -700, 2609
0.325424, -404, 478, 3004, -1025, -700, 2609
0.325559, -404, 478, 3004, -1025, -700, 2609
0.325693, -404, 478, 3004, -1025, -700, 2609
0.325828, -404, 478, 3004, -1025, -700, 2609
0.325962, -404, 478, 3004, -1025, -700, 2609
0.326097, -404, 478, 3004, -1025, -700, 2609
0.326232, -404, 478, 3004, -1025, -700, 2609
0.326366, 1044, 628, 2809, -567, -1262, 2651
0.326501, 1044, 628, 2809, -567, -1262, 2651
0.326636, 1044, 628, 2809, -567, -1262, 2651
0.326770, 1044, 628, 2809, -567, -1262, 2651
0.326905, 1044, 628, 2809, -567, -1262, 2651
0.327039, 1044, 628, 2809, -567, -1262, 2651
0.327174, 1044, 628, 2809, -567, -1262, 2651
0.327309, 902, 787, 1933, -467, -1536, 2022
0.327443, 902, 787, 1933, -467, -1536, 2022
0.327578, 902, 787, 1933, -467, -1536, 2022
0.327712, 902, 787, 1933, -467, -1536, 2022
0.327848, 902, 787, 1933, -467, -1536, 2022
0.327982, 902, 787, 1933, -467, -1536, 2022
0.328117, 902, 787, 1933, -467, -1536, 2022
0.328251, 902, 787, 1933, -467, -1536, 2022
0.328386, -397, 757, 1659, -630, -1476, 1836
0.328521, -397, 757, 1659, -630, -1476, 1836
0.328655, -397, 757, 1659, -630, -1476, 1836
0.328790, -397, 757, 1659, -630, -1476, 1836
0.328924, -397, 757, 1659, -630, -1476, 1836
0.329059, -397, 757, 1659, -630, -1476, 1836
0.329194, -397, 757, 1659, -630, -1476, 1836
0.329328, -330, 560, 1764, -714, -1370, 2283
0.329463, -330, 560, 1764, -714, -1370, 2283
0.329598, -330, 560, 1764, -714, -1370, 2283
0.329732, -330, 560, 1764, -714, -1370, 2283
0.329867, -330, 560, 1764, -714, -1370, 2283
0.330001, -330, 560, 1764, -714, -1370, 2283
0.330136, -330, 560, 1764, -714, -1370, 2283
0.330271, -330, 560, 1764, -714, -1370, 2283
0.330405, 936, 450, 1806, -832, -1325, 2370
0.330540, 936, 450, 1806, -832, -1325, 2370
0.330675, 936, 450, 1806, -832, -1325, 2370
0.330809, 936, 450, 1806, -832, -1325, 2370
0.330944, 936, 450, 1806, -832, -1325, 2370
0.331079, 936, 450, 1806, -832, -1325, 2370
0.331213, 936, 450, 1806, -832, -1325, 2370
0.331348, 936, 450, 1806, -832, -1325, 2370
0.331482, 1732, 588, 1846, -1038, -1120, 1760
0.331617, 1732, 588, 1846, -1038, -1120, 1760
0.331752, 1732, 588, 1846, -1038, -1120, 1760
0.331887, 1732, 588, 1846, -1038, -1120, 1760
0.332021, 1732, 588, 1846, -1038, -1120, 1760
0.332156, 1732, 588, 1846, -1038, -1120, 1760
0.332291, 1732, 588, 1846, -1038, -1120, 1760
0.332425, 1988, 698, 1690, -1245, -711, 734
0.332560, 1988, 698, 1690, -1245, -711, 734
0.332695, 1988, 698, 1690, -1245, -711, 734
0.332829, 1988, 698, 1690, -1245, -711, 734
0.332964, 1988, 698, 1690, -1245, -711, 734
0.333099, 1988, 698, 1690, -1245, -711, 734
0.333233, 1988, 698, 1690, -1245, -711, 734
0.333368, 1988, 698, 1690, -1245, -711, 734
0.333502, 1118, 515, 1605, -1443, -156, -283
0.333637, 1118, 515, 1605, -1443, -156, -283
0.333772, 1118, 515, 1605, -1443, -156, -283
0.333906, 1118, 515, 1605, -1443, -156, -283
0.334041, 1118, 515, 1605, -1443, -156, -283
0.334176, 1118, 515, 1605, -1443, -156, -283
0.334310, 1118, 515, 1605, -1443, -156, -283
0.334445, -57, 300, 1887, -1478, 362, -562
0.334580, -57, 300, 1887, -1478, 362, -562
0.334714, -57, 300, 1887, -1478, 362, -562
0.334849, -57, 300, 1887, -1478, 362, -562
0.334984, -57, 300, 1887, -1478, 362, -562
0.335118, -57, 300, 1887, -1478, 362, -562
0.335253, -57, 300, 1887, -1478, 362, -562
0.335387, -57, 300, 1887, -1478, 362, -562
0.335522, 47, 456, 2056, -1274, 568, -315
0.335657, 47, 456, 2056, -1274, 568, -315
0.335792, 47, 456, 2056, -1274, 568, -315
0.335926, 47, 456, 2056, -1274, 568, -315
0.336060, 47, 456, 2056, -1274, 568, -315
0.336199, 47, 456, 2056, -1274, 568, -315
0.336334, 47, 456, 2056, -1274, 568, -315
0.336468, 812, 532, 2093, -1070, 535, -351
0.336603, 812, 532, 2093, -1070, 535, -351
0.336737, 812, 532, 2093, -1070, 535, -351
0.336872, 812, 532, 2093, -1070, 535, -351
0.337006, 812, 532, 2093, -1070, 535, -351
0.337141, 812, 532, 2093, -1070, 535, -351
0.337275, 812, 532, 2093, -1070, 535, -351
0.337410, 812, 532, 2093, -1070, 535, -351
0.337544, 814, 574, 1937, -1029, 496, -771
0.337679, 814, 574, 1937, -1029, 496, -771
0.337813, 814, 574, 1937, -1029, 496, -771
0.337947, 814, 574, 1937, -1029, 496, -771
0.338082, 814, 574, 1937, -1029, 496, -771
0.338216, 814, 574, 1937, -1029, 496, -771
0.338351, 814, 574, 1937, -1029, 496, -771
0.338485, -298, 654, 1832, -1076, 550, -921
0.338620, -298, 654, 1832, -1076, 550, -921
0.338754, -298, 654, 1832, -1076, 550, -921
0.338888, -298, 654, 1832, -1076, 550, -921
0.339023, -298, 654, 1832, -1076, 550, -921
0.339157, -298, 654, 1832, -1076, 550, -921
0.339292, -298, 654, 1832, -1076, 550, -921
0.339426, -298, 654, 1832, -1076, 550, -921
0.339561, -929, 505, 2181, -980, 524, -365
0.339695, -929, 505, 2181, -980, 524, -365
0.339830, -929, 505, 2181, -980, 524, -365
0.339964, -929, 505, 2181, -980, 524, -365
0.340099, -929, 505, 2181, -980, 524, -365
0.340233, -929, 505, 2181, -980, 524, -365
0.340368, -929, 505, 2181, -980, 524, -365
0.340502, 9, 391, 2442, -654, 201, 258
0.340637, 9, 391, 2442, -654, 201, 258
0.340771, 9, 391, 2442, -654, 201, 258
0.340905, 9, 391, 2442, -654, 201, 258
0.341040, 9, 391, 2442, -654, 201, 258
0.341174, 9, 391, 2442, -654, 201, 258
0.341309, 9, 391, 2442, -654, 201, 258
0.341443, 9, 391, 2442, -654, 201, 258
0.341578, 1538, 439, 2090, -416, -284, 87
0.341712, 1538, 439, 2090, -416, -284, 87
0.341847, 1538, 439, 2090, -416, -284, 87
0.341981, 1538, 439, 2090, -416, -284, 87
0.342116, 1538, 439, 2090, -416, -284, 87
0.342250, 1538, 439, 2090, -416, -284, 87
0.342385, 1538, 439, 2090, -416, -284, 87
0.342519, 1889, 638, 1724, -481, -563, -934
0.342654, 1889, 638, 1724, -481, -563, -934
0.342788, 1889, 638, 1724, -481, -563, -934
0.342923, 1889, 638, 1724, -481, -563, -934
0.343057, 1889, 638, 1724, -481, -563, -934
0.343191, 1889, 638, 1724, -481, -563, -934
0.343326, 1889, 638, 1724, -481, -563, -934
0.343460, 1889, 638, 1724, -481, -563, -934
0.343595, -422, 915, 1393, -636, -313, -1574
0.343729, -422, 915, 1393, -636, -313, -1574
0.343859, -422, 915, 1393, -636, -313, -1574
0.343994, -422, 915, 1393, -636, -313, -1574
0.344128, -422, 915, 1393, -636, -313, -1574
0.344263, -422, 915, 1393, -636, -313, -1574
0.344398, -422, 915, 1393, -636, -313, -1574
0.344527, -422, 915, 1393, -636, -313, -1574
0.344662, -1942, 323, 1233, -888, 69, -650
0.344796, -1942, 323, 1233, -888, 69, -650
0.344931, -1942, 323, 1233, -888, 69, -650
0.345065, -1942, 323, 1233, -888, 69, -650
0.345200, -1942, 323, 1233, -888, 69, -650
0.345335, -1942, 323, 1233, -888, 69, -650
0.345469, -1942, 323, 1233, -888, 69, -650
0.345604, 294, -512, 1987, -1039, -119, 452
0.345739, 294, -512, 1987, -1039, -119, 452
0.345874, 294, -512, 1987, -1039, -119, 452
0.346008, 294, -512, 1987, -1039, -119, 452
0.346143, 294, -512, 1987, -1039, -119, 452
0.346277, 294, -512, 1987, -1039, -119, 452
0.346412, 294, -512, 1987, -1039, -119, 452
0.346547, 294, -512, 1987, -1039, -119, 452
0.346681, 2507, 72, 2238, -880, -573, -143
0.346816, 2507, 72, 2238, -880, -573, -143
0.346951, 2507, 72, 2238, -880, -573, -143
0.347085, 2507, 72, 2238, -880, -573, -143
0.347220, 2507, 72, 2238, -880, -573, -143
0.347354, 2507, 72, 2238, -880, -573, -143
0.347489, 2507, 72, 2238, -880, -573, -143
0.347624, 813, 1151, 1558, -922, -396, -1513
0.347759, 813, 1151, 1558, -922, -396, -1513
0.347894, 813, 1151, 1558, -922, -396, -1513
0.348029, 813, 1151, 1558, -922, -396, -1513
0.348163, 813, 1151, 1558, -922, -396, -1513
0.348298, 813, 1151, 1558, -922, -396, -1513
0.348432, 813, 1151, 1558, -922, -396, -1513
0.348567, 813, 1151, 1558, -922, -396, -1513
0.348702, -2930, 1002, 1623, -1194, 409, -1029
0.348836, -2930, 1002, 1623, -1194, 409, -1029
0.348975, -2930, 1002, 1623, -1194, 409, -1029
0.349110, -2930, 1002, 1623, -1194, 409, -1029
0.349240, -2930, 1002, 1623, -1194, 409, -1029
0.349383, -2930, 1002, 1623, -1194, 409, -1029
0.349520, -2930, 1002, 1623, -1194, 409, -1029
0.349654, -2706, 235, 2561, -1002, 594, 1226
0.349789, -2706, 235, 2561, -1002, 594, 1226
0.349924, -2706, 235, 2561, -1002, 594, 1226
0.350059, -2706, 235, 2561, -1002, 594, 1226
0.350193, -2706, 235, 2561, -1002, 594, 1226
0.350328, -2706, 235, 2561, -1002, 594, 1226
0.350463, -2706, 235, 2561, -1002, 594, 1226
0.350597, -2706, 235, 2561, -1002, 594, 1226
0.350732, 231, 465, 2517, -529, -218, 2425
0.350867, 231, 465, 2517, -529, -218, 2425
0.351002, 231, 465, 2517, -529, -218, 2425
0.351136, 231, 465, 2517, -529, -218, 2425
0.351271, 231, 465, 2517, -529, -218, 2425
0.351406, 231, 465, 2517, -529, -218, 2425
0.351540, 231, 465, 2517, -529, -218, 2425
0.351675, 1401, 709, 1737, -718, -1025, 2040
0.351811, 1401, 709, 1737, -718, -1025, 2040
0.351945, 1401, 709, 1737, -718, -1025, 2040
0.352080, 1401, 709, 1737, -718, -1025, 2040
0.352215, 1401, 709, 1737, -718, -1025, 2040
0.352349, 1401, 709, 1737, -718, -1025, 2040
0.352484, 1401, 709, 1737, -718, -1025, 2040
0.352619, 1401, 709, 1737, -718, -1025, 2040
0.352753, 1123, 668, 1771, -1223, -1304, 1256
0.352888, 1123, 668, 1771, -1223, -1304, 1256
0.353023, 1123, 668, 1771, -1223, -1304, 1256
0.353158, 1123, 668, 1771, -1223, -1304, 1256
0.353292, 1123, 668, 1771, -1223, -1304, 1256
0.353427, 1123, 668, 1771, -1223, -1304, 1256
0.353562, 1123, 668, 1771, -1223, -1304, 1256
0.353696, 650, 445, 2474, -1218, -1194, 750
0.353831, 650, 445, 2474, -1218, -1194, 750
0.353966, 650, 445, 2474, -1218, -1194, 750
0.354101, 650, 445, 2474, -1218, -1194, 750
0.354235, 650, 445, 2474, -1218, -1194, 750
0.354370, 650, 445, 2474, -1218, -1194, 750
0.354504, 650, 445, 2474, -1218, -1194, 750
0.354639, 650, 445, 2474, -1218, -1194, 750
0.354774, 1181, -80, 3314, -558, -998, 447
0.354909, 1181, -80, 3314, -558, -998, 447
0.355043, 1181, -80, 3314, -558, -998, 447
0.355178, 1181, -80, 3314, -558, -998, 447
0.355313, 1181, -80, 3314, -558, -998, 447
0.355447, 1181, -80, 3314, -558, -998, 447
0.355582, 1181, -80, 3314, -558, -998, 447
0.355717, 2000, 175, 3082, 442, -844, -370
0.355852, 2000, 175, 3082, 442, -844, -370
0.355987, 2000, 175, 3082, 442, -844, -370
0.356122, 2000, 175, 3082, 442, -844, -370
0.356257, 2000, 175, 3082, 442, -844, -370
0.356391, 2000, 175, 3082, 442, -844, -370
0.356526, 2000, 175, 3082, 442, -844, -370
0.356661, 2000, 175, 3082, 442, -844, -370
0.356795, 1358, 529, 2571, 1134, -439, -1483
0.356930, 1358, 529, 2571, 1134, -439, -1483
0.357065, 1358, 529, 2571, 1134, -439, -1483
0.357200, 1358, 529, 2571, 1134, -439, -1483
0.357334, 1358, 529, 2571, 1134, -439, -1483
0.357469, 1358, 529, 2571, 1134, -439, -1483
0.357604, 1358, 529, 2571, 1134, -439, -1483
0.357738, -1007, 566, 2888, 1755, 287, -1746
0.357873, -1007, 566, 2888, 1755, 287, -1746
0.358008, -1007, 566, 2888, 1755, 287, -1746
0.358143, -1007, 566, 2888, 1755, 287, -1746
0.358277, -1007, 566, 2888, 1755, 287, -1746
0.358412, -1007, 566, 2888, 1755, 287, -1746
0.358547, -1007, 566, 2888, 1755, 287, -1746
0.358681, -1007, 566, 2888, 1755, 287, -1746
0.358816, -2572, 484, 2702, 2492, 800, -536
0.358951, -2572, 484, 2702, 2492, 800, -536
0.359086, -2572, 484, 2702, 2492, 800, -536
0.359221, -2572, 484, 2702, 2492, 800, -536
0.359355, -2572, 484, 2702, 2492, 800, -536
0.359490, -2572, 484, 2702, 2492, 800, -536
0.359625, -2572, 484, 2702, 2492, 800, -536
0.359759, -1137, 246, 2103, 2769, 571, 1003
0.359895, -1137, 246, 2103, 2769, 571, 1003
0.360029, -1137, 246, 2103, 2769, 571, 1003
0.360163, -1137, 246, 2103, 2769, 571, 1003
0.360297, -1137, 246, 2103, 2769, 571, 1003
0.360431, -1137, 246, 2103, 2769, 571, 1003
0.360565, -1137, 246, 2103, 2769, 571, 1003
0.360698, -1137, 246, 2103, 2769, 571, 1003
0.360832, 1161, 417, 2186, 2624, -182, 1242
0.360966, 1161, 417, 2186, 2624, -182, 1242
0.361100, 1161, 417, 2186, 2624, -182, 1242
0.361234, 1161, 417, 2186, 2624, -182, 1242
0.361385, 1161, 417, 2186, 2624, -182, 1242
0.361521, 1161, 417, 2186, 2624, -182, 1242
0.361655, 1161, 417, 2186, 2624, -182, 1242
0.361789, 1614, 729, 2230, 2473, -687, 337
0.361923, 1614, 729, 2230, 2473, -687, 337
0.362057, 1614, 729, 2230, 2473, -687, 337
0.362191, 1614, 729, 2230, 2473, -687, 337
0.362324, 1614, 729, 2230, 2473, -687, 337
0.362458, 1614, 729, 2230, 2473, -687, 337
0.362592, 1614, 729, 2230, 2473, -687, 337
0.362726, 1614, 729, 2230, 2473, -687, 337
0.362860, 276, 606, 1335, 2169, -654, -421
0.362994, 276, 606, 1335, 2169, -654, -421
0.363128, 276, 606, 1335, 2169, -654, -421
0.363262, 276, 606, 1335, 2169, -654, -421
0.363396, 276, 606, 1335, 2169, -654, -421
0.363530, 276, 606, 1335, 2169, -654, -421
0.363664, 276, 606, 1335, 2169, -654, -421
0.363802, -397, 212, 628, 1546, -550, -302
0.363937, -397, 212, 628, 1546, -550, -302
0.364072, -397, 212, 628, 1546, -550, -302
0.364207, -397, 212, 628, 1546, -550, -302
0.364341, -397, 212, 628, 1546, -550, -302
0.364476, -397, 212, 628, 1546, -550, -302
0.364610, -397, 212, 628, 1546, -550, -302
0.364745, -397, 212, 628, 1546, -550, -302
0.364879, 1263, -33, 808, 835, -815, -217
