Time, ax, ay, az, gx, gy, gz
0.000007, -8618, 22, -2737, 2318, 5773, -7128
0.000167, -8618, 22, -2737, 2318, 5773, -7128
0.000303, -8618, 22, -2737, 2318, 5773, -7128
0.000438, -8618, 22, -2737, 2318, 5773, -7128
0.000574, -8618, 22, -2737, 2318, 5773, -7128
0.000710, -8618, 22, -2737, 2318, 5773, -7128
0.000845, -8325, -892, -1599, -817, 3888, -1475
0.000980, -8325, -892, -1599, -817, 3888, -1475
0.001115, -8325, -892, -1599, -817, 3888, -1475
0.001250, -8325, -892, -1599, -817, 3888, -1475
0.001384, -8325, -892, -1599, -817, 3888, -1475
0.001519, -8325, -892, -1599, -817, 3888, -1475
0.001654, -8325, -892, -1599, -817, 3888, -1475
0.001788, -7229, -1005, 746, -2896, 883, 3036
0.001923, -7229, -1005, 746, -2896, 883, 3036
0.002058, -7229, -1005, 746, -2896, 883, 3036
0.002192, -7229, -1005, 746, -2896, 883, 3036
0.002327, -7229, -1005, 746, -2896, 883, 3036
0.002461, -7229, -1005, 746, -2896, 883, 3036
0.002596, -7229, -1005, 746, -2896, 883, 3036
0.002732, -7229, -1005, 746, -2896, 883, 3036
0.002867, -9254, -941, 1229, -4318, -1624, 7517
0.003002, -9254, -941, 1229, -4318, -1624, 7517
0.003137, -9254, -941, 1229, -4318, -1624, 7517
0.003271, -9254, -941, 1229, -4318, -1624, 7517
0.003406, -9254, -941, 1229, -4318, -1624, 7517
0.003541, -9254, -941, 1229, -4318, -1624, 7517
0.003675, -9254, -941, 1229, -4318, -1624, 7517
0.003810, -5943, -759, 2058, -5499, -4585, 12617
0.003945, -5943, -759, 2058, -5499, -4585, 12617
0.004079, -5943, -759, 2058, -5499, -4585, 12617
0.004214, -5943, -759, 2058, -5499, -4585, 12617
0.004348, -5943, -759, 2058, -5499, -4585, 12617
0.004483, -5943, -759, 2058, -5499, -4585, 12617
0.004618, -5943, -759, 2058, -5499, -4585, 12617
0.004752, -5943, -759, 2058, -5499, -4585, 12617
0.004887, -1300, 82, 4511, -5736, -7577, 14581
0.005022, -1300, 82, 4511, -5736, -7577, 14581
0.005157, -1300, 82, 4511, -5736, -7577, 14581
0.005294, -1300, 82, 4511, -5736, -7577, 14581
0.005429, -1300, 82, 4511, -5736, -7577, 14581
0.005564, -1300, 82, 4511, -5736, -7577, 14581
0.005699, -1300, 82, 4511, -5736, -7577, 14581
0.005833, 3054, -41, 10037, -2988, -8264, 13624
0.005968, 3054, -41, 10037, -2988, -8264, 13624
0.006103, 3054, -41, 10037, -2988, -8264, 13624
0.006237, 3054, -41, 10037, -2988, -8264, 13624
0.006376, 3054, -41, 10037, -2988, -8264, 13624
0.006511, 3054, -41, 10037, -2988, -8264, 13624
0.006645, 3054, -41, 10037, -2988, -8264, 13624
0.006781, 3054, -41, 10037, -2988, -8264, 13624
0.006916, 5763, 732, 8622, 1799, -7501, 10381
0.007051, 5763, 732, 8622, 1799, -7501, 10381
0.007185, 5763, 732, 8622, 1799, -7501, 10381
0.007320, 5763, 732, 8622, 1799, -7501, 10381
0.007455, 5763, 732, 8622, 1799, -7501, 10381
0.007589, 5763, 732, 8622, 1799, -7501, 10381
0.007724, 5763, 732, 8622, 1799, -7501, 10381
0.007859, 1161, 1240, 1972, 4011, -5671, 7001
0.007993, 1161, 1240, 1972, 4011, -5671, 7001
0.008128, 1161, 1240, 1972, 4011, -5671, 7001
0.008263, 1161, 1240, 1972, 4011, -5671, 7001
0.008397, 1161, 1240, 1972, 4011, -5671, 7001
0.008532, 1161, 1240, 1972, 4011, -5671, 7001
0.008666, 1161, 1240, 1972, 4011, -5671, 7001
0.008801, 1161, 1240, 1972, 4011, -5671, 7001
0.008936, -2975, 640, 1568, 4276, -3646, 7212
0.009071, -2975, 640, 1568, 4276, -3646, 7212
0.009205, -2975, 640, 1568, 4276, -3646, 7212
0.009340, -2975, 640, 1568, 4276, -3646, 7212
0.009474, -2975, 640, 1568, 4276, -3646, 7212
0.009609, -2975, 640, 1568, 4276, -3646, 7212
0.009744, -2975, 640, 1568, 4276, -3646, 7212
0.009878, -2975, 640, 1568, 4276, -3646, 7212
0.010013, -2105, 1195, 2183, 4357, -2907, 8992
0.010148, -2105, 1195, 2183, 4357, -2907, 8992
0.010282, -2105, 1195, 2183, 4357, -2907, 8992
0.010417, -2105, 1195, 2183, 4357, -2907, 8992
0.010551, -2105, 1195, 2183, 4357, -2907, 8992
0.010686, -2105, 1195, 2183, 4357, -2907, 8992
0.010821, -2105, 1195, 2183, 4357, -2907, 8992
0.010956, -1731, 915, 3598, 4717, -1884, 10076
0.011091, -1731, 915, 3598, 4717, -1884, 10076
0.011225, -1731, 915, 3598, 4717, -1884, 10076
0.011360, -1731, 915, 3598, 4717, -1884, 10076
0.011494, -1731, 915, 3598, 4717, -1884, 10076
0.011629, -1731, 915, 3598, 4717, -1884, 10076
0.011791, -1731, 915, 3598, 4717, -1884, 10076
0.011927, -3085, 181, 2727, 5323, -892, 11465
0.012062, -3085, 181, 2727, 5323, -892, 11465
0.012197, -3085, 181, 2727, 5323, -892, 11465
0.012331, -3085, 181, 2727, 5323, -892, 11465
0.012466, -3085, 181, 2727, 5323, -892, 11465
0.012601, -3085, 181, 2727, 5323, -892, 11465
0.012735, -3085, 181, 2727, 5323, -892, 11465
0.012870, -3085, 181, 2727, 5323, -892, 11465
0.013004, -483, -135, -800, 3992, -1440, 12625
0.013139, -483, -135, -800, 3992, -1440, 12625
0.013274, -483, -135, -800, 3992, -1440, 12625
0.013408, -483, -135, -800, 3992, -1440, 12625
0.013543, -483, -135, -800, 3992, -1440, 12625
0.013677, -483, -135, -800, 3992, -1440, 12625
0.013812, -483, -135, -800, 3992, -1440, 12625
0.013947, 2387, 639, 1737, 2467, -2361, 11659
0.014082, 2387, 639, 1737, 2467, -2361, 11659
0.014216, 2387, 639, 1737, 2467, -2361, 11659
0.014351, 2387, 639, 1737, 2467, -2361, 11659
0.014485, 2387, 639, 1737, 2467, -2361, 11659
0.014620, 2387, 639, 1737, 2467, -2361, 11659
0.014755, 2387, 639, 1737, 2467, -2361, 11659
0.014890, 2387, 639, 1737, 2467, -2361, 11659
0.015024, 3460, 948, 4575, 2633, -2541, 9355
0.015159, 3460, 948, 4575, 2633, -2541, 9355
0.015294, 3460, 948, 4575, 2633, -2541, 9355
0.015428, 3460, 948, 4575, 2633, -2541, 9355
0.015563, 3460, 948, 4575, 2633, -2541, 9355
0.015698, 3460, 948, 4575, 2633, -2541, 9355
0.015832, 3460, 948, 4575, 2633, -2541, 9355
0.015967, 2913, 88, 4155, 3807, -2067, 6609
0.016102, 2913, 88, 4155, 3807, -2067, 6609
0.016236, 2913, 88, 4155, 3807, -2067, 6609
0.016371, 2913, 88, 4155, 3807, -2067, 6609
0.016505, 2913, 88, 4155, 3807, -2067, 6609
0.016640, 2913, 88, 4155, 3807, -2067, 6609
0.016775, 2913, 88, 4155, 3807, -2067, 6609
0.016909, 2913, 88, 4155, 3807, -2067, 6609
0.017044, -691, 403, 2483, 5401, -1301, 5071
0.017179, -691, 403, 2483, 5401, -1301, 5071
0.017313, -691, 403, 2483, 5401, -1301, 5071
0.017448, -691, 403, 2483, 5401, -1301, 5071
0.017582, -691, 403, 2483, 5401, -1301, 5071
0.017717, -691, 403, 2483, 5401, -1301, 5071
0.017852, -691, 403, 2483, 5401, -1301, 5071
0.017986, -691, 403, 2483, 5401, -1301, 5071
0.018121, -901, 766, -828, 5307, -1217, 5549
0.018256, -901, 766, -828, 5307, -1217, 5549
0.018390, -901, 766, -828, 5307, -1217, 5549
0.018525, -901, 766, -828, 5307, -1217, 5549
0.018660, -901, 766, -828, 5307, -1217, 5549
0.018795, -901, 766, -828, 5307, -1217, 5549
0.018929, -901, 766, -828, 5307, -1217, 5549
0.019064, 1425, 510, -1092, 3505, -1767, 5269
0.019199, 1425, 510, -1092, 3505, -1767, 5269
0.019333, 1425, 510, -1092, 3505, -1767, 5269
0.019468, 1425, 510, -1092, 3505, -1767, 5269
0.019602, 1425, 510, -1092, 3505, -1767, 5269
0.019737, 1425, 510, -1092, 3505, -1767, 5269
0.019871, 1425, 510, -1092, 3505, -1767, 5269
0.020006, 1425, 510, -1092, 3505, -1767, 5269
0.020141, 1697, 380, 1856, 2426, -1730, 3926
0.020275, 1697, 380, 1856, 2426, -1730, 3926
0.020410, 1697, 380, 1856, 2426, -1730, 3926
0.020545, 1697, 380, 1856, 2426, -1730, 3926
0.020679, 1697, 380, 1856, 2426, -1730, 3926
0.020814, 1697, 380, 1856, 2426, -1730, 3926
0.020948, 1697, 380, 1856, 2426, -1730, 3926
0.021083, 1938, 517, 2625, 2585, -1050, 2871
0.021218, 1938, 517, 2625, 2585, -1050, 2871
0.021353, 1938, 517, 2625, 2585, -1050, 2871
0.021487, 1938, 517, 2625, 2585, -1050, 2871
0.021622, 1938, 517, 2625, 2585, -1050, 2871
0.021756, 1938, 517, 2625, 2585, -1050, 2871
0.021891, 1938, 517, 2625, 2585, -1050, 2871
0.022026, 1938, 517, 2625, 2585, -1050, 2871
0.022160, 5374, 983, 1564, 2841, -389, 1062
0.022295, 5374, 983, 1564, 2841, -389, 1062
0.022430, 5374, 983, 1564, 2841, -389, 1062
0.022564, 5374, 983, 1564, 2841, -389, 1062
0.022699, 5374, 983, 1564, 2841, -389, 1062
0.022834, 5374, 983, 1564, 2841, -389, 1062
0.022968, 5374, 983, 1564, 2841, -389, 1062
0.023103, 9089, 1354, 1253, 2784, 303, -3382
0.023238, 9089, 1354, 1253, 2784, 303, -3382
0.023373, 9089, 1354, 1253, 2784, 303, -3382
0.023507, 9089, 1354, 1253, 2784, 303, -3382
0.023642, 9089, 1354, 1253, 2784, 303, -3382
0.023777, 9089, 1354, 1253, 2784, 303, -3382
0.023917, 9089, 1354, 1253, 2784, 303, -3382
0.024052, 9089, 1354, 1253, 2784, 303, -3382
0.024187, 7199, 980, 1413, 2781, 1859, -9114
0.024322, 7199, 980, 1413, 2781, 1859, -9114
0.024456, 7199, 980, 1413, 2781, 1859, -9114
0.024591, 7199, 980, 1413, 2781, 1859, -9114
0.024726, 7199, 980, 1413, 2781, 1859, -9114
0.024860, 7199, 980, 1413, 2781, 1859, -9114
0.024995, 7199, 980, 1413, 2781, 1859, -9114
0.025129, 2273, 464, 1551, 3176, 4105, -12478
0.025264, 2273, 464, 1551, 3176, 4105, -12478
0.025399, 2273, 464, 1551, 3176, 4105, -12478
0.025533, 2273, 464, 1551, 3176, 4105, -12478
0.025668, 2273, 464, 1551, 3176, 4105, -12478
0.025802, 2273, 464, 1551, 3176, 4105, -12478
0.025936, 2273, 464, 1551, 3176, 4105, -12478
0.026071, 2273, 464, 1551, 3176, 4105, -12478
0.026205, 35, 199, 1538, 3920, 5860, -12954
0.026340, 35, 199, 1538, 3920, 5860, -12954
0.026474, 35, 199, 1538, 3920, 5860, -12954
0.026609, 35, 199, 1538, 3920, 5860, -12954
0.026745, 35, 199, 1538, 3920, 5860, -12954
0.026880, 35, 199, 1538, 3920, 5860, -12954
0.027015, 35, 199, 1538, 3920, 5860, -12954
0.027149, 26, 112, 1600, 4612, 6812, -12702
0.027284, 26, 112, 1600, 4612, 6812, -12702
0.027419, 26, 112, 1600, 4612, 6812, -12702
0.027553, 26, 112, 1600, 4612, 6812, -12702
0.027688, 26, 112, 1600, 4612, 6812, -12702
0.027824, 26, 112, 1600, 4612, 6812, -12702
0.027960, 26, 112, 1600, 4612, 6812, -12702
0.028094, 26, 112, 1600, 4612, 6812, -12702
0.028229, -167, 237, 1874, 5013, 7233, -12643
0.028363, -167, 237, 1874, 5013, 7233, -12643
0.028498, -167, 237, 1874, 5013, 7233, -12643
0.028633, -167, 237, 1874, 5013, 7233, -12643
0.028767, -167, 237, 1874, 5013, 7233, -12643
0.028902, -167, 237, 1874, 5013, 7233, -12643
0.029037, -167, 237, 1874, 5013, 7233, -12643
0.029171, -849, 257, 2057, 5150, 7362, -12399
0.029306, -849, 257, 2057, 5150, 7362, -12399
0.029441, -849, 257, 2057, 5150, 7362, -12399
0.029575, -849, 257, 2057, 5150, 7362, -12399
0.029710, -849, 257, 2057, 5150, 7362, -12399
0.029844, -849, 257, 2057, 5150, 7362, -12399
0.029979, -849, 257, 2057, 5150, 7362, -12399
0.030113, -849, 257, 2057, 5150, 7362, -12399
0.030248, -2266, 30, 2220, 5215, 7241, -11693
0.030383, -2266, 30, 2220, 5215, 7241, -11693
0.030517, -2266, 30, 2220, 5215, 7241, -11693
0.030652, -2266, 30, 2220, 5215, 7241, -11693
0.030787, -2266, 30, 2220, 5215, 7241, -11693
0.030922, -2266, 30, 2220, 5215, 7241, -11693
0.031056, -2266, 30, 2220, 5215, 7241, -11693
0.031191, -6253, -184, 2987, 5555, 6842, -9754
0.031326, -6253, -184, 2987, 5555, 6842, -9754
0.031460, -6253, -184, 2987, 5555, 6842, -9754
0.031595, -6253, -184, 2987, 5555, 6842, -9754
0.031730, -6253, -184, 2987, 5555, 6842, -9754
0.031864, -6253, -184, 2987, 5555, 6842, -9754
0.031999, -6253, -184, 2987, 5555, 6842, -9754
0.032133, -6253, -184, 2987, 5555, 6842, -9754
0.032268, -13162, 302, 4850, 6746, 6228, -4539
0.032403, -13162, 302, 4850, 6746, 6228, -4539
0.032537, -13162, 302, 4850, 6746, 6228, -4539
0.032672, -13162, 302, 4850, 6746, 6228, -4539
0.032807, -13162, 302, 4850, 6746, 6228, -4539
0.032941, -13162, 302, 4850, 6746, 6228, -4539
0.033076, -13162, 302, 4850, 6746, 6228, -4539
0.033210, -14848, -520, 6350, 8853, 4486, 4580
0.033345, -14848, -520, 6350, 8853, 4486, 4580
0.033480, -14848, -520, 6350, 8853, 4486, 4580
0.033614, -14848, -520, 6350, 8853, 4486, 4580
0.033749, -14848, -520, 6350, 8853, 4486, 4580
0.033883, -14848, -520, 6350, 8853, 4486, 4580
0.034018, -14848, -520, 6350, 8853, 4486, 4580
0.034153, -14848, -520, 6350, 8853, 4486, 4580
0.034287, -6030, -2362, 4921, 10640, 521, 12238
0.034422, -6030, -2362, 4921, 10640, 521, 12238
0.034557, -6030, -2362, 4921, 10640, 521, 12238
0.034691, -6030, -2362, 4921, 10640, 521, 12238
0.034826, -6030, -2362, 4921, 10640, 521, 12238
0.034961, -6030, -2362, 4921, 10640, 521, 12238
0.035095, -6030, -2362, 4921, 10640, 521, 12238
0.035230, 162, -1685, 795, 10575, -3815, 13400
0.035365, 162, -1685, 795, 10575, -3815, 13400
0.035499, 162, -1685, 795, 10575, -3815, 13400
0.035634, 162, -1685, 795, 10575, -3815, 13400
0.035769, 162, -1685, 795, 10575, -3815, 13400
0.035909, 162, -1685, 795, 10575, -3815, 13400
0.036045, 162, -1685, 795, 10575, -3815, 13400
0.036179, 162, -1685, 795, 10575, -3815, 13400
0.036314, -4566, 337, -1478, 8280, -6255, 12747
0.036449, -4566, 337, -1478, 8280, -6255, 12747
0.036583, -4566, 337, -1478, 8280, -6255, 12747
0.036718, -4566, 337, -1478, 8280, -6255, 12747
0.036853, -4566, 337, -1478, 8280, -6255, 12747
0.036987, -4566, 337, -1478, 8280, -6255, 12747
0.037122, -4566, 337, -1478, 8280, -6255, 12747
0.037257, -5896, 1252, 961, 5789, -7806, 15577
0.037391, -5896, 1252, 961, 5789, -7806, 15577
0.037526, -5896, 1252, 961, 5789, -7806, 15577
0.037660, -5896, 1252, 961, 5789, -7806, 15577
0.037795, -5896, 1252, 961, 5789, -7806, 15577
0.037930, -5896, 1252, 961, 5789, -7806, 15577
0.038064, -5896, 1252, 961, 5789, -7806, 15577
0.038199, -5896, 1252, 961, 5789, -7806, 15577
0.038333, 2438, 742, 2259, 5012, -9495, 17166
0.038468, 2438, 742, 2259, 5012, -9495, 17166
0.038603, 2438, 742, 2259, 5012, -9495, 17166
0.038738, 2438, 742, 2259, 5012, -9495, 17166
0.038872, 2438, 742, 2259, 5012, -9495, 17166
0.039006, 2438, 742, 2259, 5012, -9495, 17166
0.039140, 2438, 742, 2259, 5012, -9495, 17166
0.039274, 2438, 742, 2259, 5012, -9495, 17166
0.039408, 7467, 1160, 1068, 4782, -10037, 13183
0.039542, 7467, 1160, 1068, 4782, -10037, 13183
0.039676, 7467, 1160, 1068, 4782, -10037, 13183
0.039810, 7467, 1160, 1068, 4782, -10037, 13183
0.039945, 7467, 1160, 1068, 4782, -10037, 13183
0.040079, 7467, 1160, 1068, 4782, -10037, 13183
0.040214, 7467, 1160, 1068, 4782, -10037, 13183
0.040348, 7885, 1832, 820, 4020, -8823, 7766
0.040482, 7885, 1832, 820, 4020, -8823, 7766
0.040617, 7885, 1832, 820, 4020, -8823, 7766
0.040751, 7885, 1832, 820, 4020, -8823, 7766
0.040886, 7885, 1832, 820, 4020, -8823, 7766
0.041020, 7885, 1832, 820, 4020, -8823, 7766
0.041155, 7885, 1832, 820, 4020, -8823, 7766
0.041289, 7885, 1832, 820, 4020, -8823, 7766
0.041423, 9524, 921, -1174, 2487, -6899, 2651
0.041558, 9524, 921, -1174, 2487, -6899, 2651
0.041692, 9524, 921, -1174, 2487, -6899, 2651
0.041827, 9524, 921, -1174, 2487, -6899, 2651
0.041961, 9524, 921, -1174, 2487, -6899, 2651
0.042095, 9524, 921, -1174, 2487, -6899, 2651
0.042230, 9524, 921, -1174, 2487, -6899, 2651
0.042364, 6494, 566, -1368, 645, -3891, -2994
0.042499, 6494, 566, -1368, 645, -3891, -2994
0.042633, 6494, 566, -1368, 645, -3891, -2994
0.042770, 6494, 566, -1368, 645, -3891, -2994
0.042905, 6494, 566, -1368, 645, -3891, -2994
0.043039, 6494, 566, -1368, 645, -3891, -2994
0.043174, 6494, 566, -1368, 645, -3891, -2994
0.043309, 6494, 566, -1368, 645, -3891, -2994
0.043443, -907, 630, 2333, 351, 131, -5322
0.043578, -907, 630, 2333, 351, 131, -5322
0.043707, -907, 630, 2333, 351, 131, -5322
0.043842, -907, 630, 2333, 351, 131, -5322
0.043977, -907, 630, 2333, 351, 131, -5322
0.044111, -907, 630, 2333, 351, 131, -5322
0.044246, -907, 630, 2333, 351, 131, -5322
0.044380, -2693, 348, 3760, 1739, 3017, -3404
0.044515, -2693, 348, 3760, 1739, 3017, -3404
0.044650, -2693, 348, 3760, 1739, 3017, -3404
0.044784, -2693, 348, 3760, 1739, 3017, -3404
0.044919, -2693, 348, 3760, 1739, 3017, -3404
0.045054, -2693, 348, 3760, 1739, 3017, -3404
0.045188, -2693, 348, 3760, 1739, 3017, -3404
0.045323, -2693, 348, 3760, 1739, 3017, -3404
0.045457, 1392, 381, 1874, 2812, 3848, -2282
0.045592, 1392, 381, 1874, 2812, 3848, -2282
0.045726, 1392, 381, 1874, 2812, 3848, -2282
0.045861, 1392, 381, 1874, 2812, 3848, -2282
0.045995, 1392, 381, 1874, 2812, 3848, -2282
0.046130, 1392, 381, 1874, 2812, 3848, -2282
0.046264, 1392, 381, 1874, 2812, 3848, -2282
0.046399, 1995, 608, 209, 2171, 3784, -3927
0.046534, 1995, 608, 209, 2171, 3784, -3927
0.046668, 1995, 608, 209, 2171, 3784, -3927
0.046803, 1995, 608, 209, 2171, 3784, -3927
0.046938, 1995, 608, 209, 2171, 3784, -3927
0.047072, 1995, 608, 209, 2171, 3784, -3927
0.047207, 1995, 608, 209, 2171, 3784, -3927
0.047342, 1995, 608, 209, 2171, 3784, -3927
0.047476, -3276, 287, 524, 633, 3889, -4487
0.047611, -3276, 287, 524, 633, 3889, -4487
0.047745, -3276, 287, 524, 633, 3889, -4487
0.047880, -3276, 287, 524, 633, 3889, -4487
0.048020, -3276, 287, 524, 633, 3889, -4487
0.048155, -3276, 287, 524, 633, 3889, -4487
0.048290, -3276, 287, 524, 633, 3889, -4487
0.048425, -7608, -131, 271, -566, 3377, -1414
0.048559, -7608, -131, 271, -566, 3377, -1414
0.048694, -7608, -131, 271, -566, 3377, -1414
0.048828, -7608, -131, 271, -566, 3377, -1414
0.048963, -7608, -131, 271, -566, 3377, -1414
0.049098, -7608, -131, 271, -566, 3377, -1414
0.049232, -7608, -131, 271, -566, 3377, -1414
0.049367, -7608, -131, 271, -566, 3377, -1414
0.049501, -6500, 344, -2316, -2275, 1094, 2984
0.049636, -6500, 344, -2316, -2275, 1094, 2984
0.049771, -6500, 344, -2316, -2275, 1094, 2984
0.049905, -6500, 344, -2316, -2275, 1094, 2984
0.050040, -6500, 344, -2316, -2275, 1094, 2984
0.050169, -6500, 344, -2316, -2275, 1094, 2984
0.050305, -6500, 344, -2316, -2275, 1094, 2984
0.050440, -3713, 125, -2906, -5530, -2237, 5910
0.050575, -3713, 125, -2906, -5530, -2237, 5910
0.050715, -3713, 125, -2906, -5530, -2237, 5910
0.050851, -3713, 125, -2906, -5530, -2237, 5910
0.050985, -3713, 125, -2906, -5530, -2237, 5910
0.051120, -3713, 125, -2906, -5530, -2237, 5910
0.051254, -3713, 125, -2906, -5530, -2237, 5910
0.051389, -3713, 125, -2906, -5530, -2237, 5910
0.051523, -2590, -1414, 3583, -7615, -4824, 7692
0.051658, -2590, -1414, 3583, -7615, -4824, 7692
0.051793, -2590, -1414, 3583, -7615, -4824, 7692
0.051927, -2590, -1414, 3583, -7615, -4824, 7692
0.052062, -2590, -1414, 3583, -7615, -4824, 7692
0.052197, -2590, -1414, 3583, -7615, -4824, 7692
0.052331, -2590, -1414, 3583, -7615, -4824, 7692
0.052466, 2484, -147, 11318, -4467, -5897, 8449
0.052601, 2484, -147, 11318, -4467, -5897, 8449
0.052735, 2484, -147, 11318, -4467, -5897, 8449
0.052870, 2484, -147, 11318, -4467, -5897, 8449
0.053005, 2484, -147, 11318, -4467, -5897, 8449
0.053139, 2484, -147, 11318, -4467, -5897, 8449
0.053274, 2484, -147, 11318, -4467, -5897, 8449
0.053408, 2484, -147, 11318, -4467, -5897, 8449
0.053543, 11437, 3066, 9283, 1380, -5360, 4901
0.053679, 11437, 3066, 9283, 1380, -5360, 4901
0.053813, 11437, 3066, 9283, 1380, -5360, 4901
0.053948, 11437, 3066, 9283, 1380, -5360, 4901
0.054082, 11437, 3066, 9283, 1380, -5360, 4901
0.054217, 11437, 3066, 9283, 1380, -5360, 4901
0.054351, 11437, 3066, 9283, 1380, -5360, 4901
0.054486, 13618, 2822, 1620, 4141, -3253, -3737
0.054620, 13618, 2822, 1620, 4141, -3253, -3737
0.054751, 13618, 2822, 1620, 4141, -3253, -3737
0.054887, 13618, 2822, 1620, 4141, -3253, -3737
0.055022, 13618, 2822, 1620, 4141, -3253, -3737
0.055157, 13618, 2822, 1620, 4141, -3253, -3737
0.055291, 13618, 2822, 1620, 4141, -3253, -3737
0.055426, 13618, 2822, 1620, 4141, -3253, -3737
0.055561, 6680, 952, -791, 3767, -183, -11442
0.055696, 6680, 952, -791, 3767, -183, -11442
0.055830, 6680, 952, -791, 3767, -183, -11442
0.055966, 6680, 952, -791, 3767, -183, -11442
0.056096, 6680, 952, -791, 3767, -183, -11442
0.056230, 6680, 952, -791, 3767, -183, -11442
0.056365, 6680, 952, -791, 3767, -183, -11442
0.056500, 6680, 952, -791, 3767, -183, -11442
0.056634, 594, 366, 984, 3399, 3162, -13627
0.056769, 594, 366, 984, 3399, 3162, -13627
0.056904, 594, 366, 984, 3399, 3162, -13627
0.057039, 594, 366, 984, 3399, 3162, -13627
0.057173, 594, 366, 984, 3399, 3162, -13627
0.057308, 594, 366, 984, 3399, 3162, -13627
0.057442, 594, 366, 984, 3399, 3162, -13627
0.057577, -108, 353, 1773, 4010, 6124, -12998
0.057712, -108, 353, 1773, 4010, 6124, -12998
0.057846, -108, 353, 1773, 4010, 6124, -12998
0.057981, -108, 353, 1773, 4010, 6124, -12998
0.058115, -108, 353, 1773, 4010, 6124, -12998
0.058250, -108, 353, 1773, 4010, 6124, -12998
0.058385, -108, 353, 1773, 4010, 6124, -12998
0.058519, -108, 353, 1773, 4010, 6124, -12998
0.058654, 200, 443, 1727, 4721, 8070, -12832
0.058789, 200, 443, 1727, 4721, 8070, -12832
0.058924, 200, 443, 1727, 4721, 8070, -12832
0.059058, 200, 443, 1727, 4721, 8070, -12832
0.059193, 200, 443, 1727, 4721, 8070, -12832
0.059327, 200, 443, 1727, 4721, 8070, -12832
0.059462, 200, 443, 1727, 4721, 8070, -12832
0.059596, -262, 476, 2012, 4850, 8924, -12885
0.059731, -262, 476, 2012, 4850, 8924, -12885
0.059878, -262, 476, 2012, 4850, 8924, -12885
0.060014, -262, 476, 2012, 4850, 8924, -12885
0.060149, -262, 476, 2012, 4850, 8924, -12885
0.060283, -262, 476, 2012, 4850, 8924, -12885
0.060418, -262, 476, 2012, 4850, 8924, -12885
0.060552, -262, 476, 2012, 4850, 8924, -12885
0.060687, -730, 452, 2289, 4532, 9160, -12640
0.060822, -730, 452, 2289, 4532, 9160, -12640
0.060956, -730, 452, 2289, 4532, 9160, -12640
0.061091, -730, 452, 2289, 4532, 9160, -12640
0.061225, -730, 452, 2289, 4532, 9160, -12640
0.061360, -730, 452, 2289, 4532, 9160, -12640
0.061494, -730, 452, 2289, 4532, 9160, -12640
0.061629, -1577, 299, 2545, 4280, 9050, -12298
0.061764, -1577, 299, 2545, 4280, 9050, -12298
0.061898, -1577, 299, 2545, 4280, 9050, -12298
0.062033, -1577, 299, 2545, 4280, 9050, -12298
0.062168, -1577, 299, 2545, 4280, 9050, -12298
0.062302, -1577, 299, 2545, 4280, 9050, -12298
0.062437, -1577, 299, 2545, 4280, 9050, -12298
0.062571, -1577, 299, 2545, 4280, 9050, -12298
0.062706, -4578, -93, 3381, 4631, 8391, -11340
0.062848, -4578, -93, 3381, 4631, 8391, -11340
0.062983, -4578, -93, 3381, 4631, 8391, -11340
0.063117, -4578, -93, 3381, 4631, 8391, -11340
0.063252, -4578, -93, 3381, 4631, 8391, -11340
0.063387, -4578, -93, 3381, 4631, 8391, -11340
0.063521, -4578, -93, 3381, 4631, 8391, -11340
0.063656, -11948, -783, 3850, 5848, 7301, -7514
0.063791, -11948, -783, 3850, 5848, 7301, -7514
0.063925, -11948, -783, 3850, 5848, 7301, -7514
0.064060, -11948, -783, 3850, 5848, 7301, -7514
0.064194, -11948, -783, 3850, 5848, 7301, -7514
0.064329, -11948, -783, 3850, 5848, 7301, -7514
0.064464, -11948, -783, 3850, 5848, 7301, -7514
0.064598, -11948, -783, 3850, 5848, 7301, -7514
0.064733, -18397, -1187, 1730, 6628, 5076, 1369
0.064867, -18397, -1187, 1730, 6628, 5076, 1369
0.065002, -18397, -1187, 1730, 6628, 5076, 1369
0.065137, -18397, -1187, 1730, 6628, 5076, 1369
0.065271, -18397, -1187, 1730, 6628, 5076, 1369
0.065406, -18397, -1187, 1730, 6628, 5076, 1369
0.065540, -18397, -1187, 1730, 6628, 5076, 1369
0.065675, -14788, -1223, 1276, 5728, 152, 12321
0.065810, -14788, -1223, 1276, 5728, 152, 12321
0.065944, -14788, -1223, 1276, 5728, 152, 12321
0.066079, -14788, -1223, 1276, 5728, 152, 12321
0.066214, -14788, -1223, 1276, 5728, 152, 12321
0.066348, -14788, -1223, 1276, 5728, 152, 12321
0.066483, -14788, -1223, 1276, 5728, 152, 12321
0.066617, -14788, -1223, 1276, 5728, 152, 12321
0.066753, -7157, 460, 4640, 5337, -5824, 19321
0.066887, -7157, 460, 4640, 5337, -5824, 19321
0.067021, -7157, 460, 4640, 5337, -5824, 19321
0.067155, -7157, 460, 4640, 5337, -5824, 19321
0.067289, -7157, 460, 4640, 5337, -5824, 19321
0.067423, -7157, 460, 4640, 5337, -5824, 19321
0.067557, -7157, 460, 4640, 5337, -5824, 19321
0.067691, -3032, 2049, 4333, 5789, -9675, 21621
0.067825, -3032, 2049, 4333, 5789, -9675, 21621
0.067959, -3032, 2049, 4333, 5789, -9675, 21621
0.068093, -3032, 2049, 4333, 5789, -9675, 21621
0.068226, -3032, 2049, 4333, 5789, -9675, 21621
0.068360, -3032, 2049, 4333, 5789, -9675, 21621
0.068494, -3032, 2049, 4333, 5789, -9675, 21621
0.068628, -3032, 2049, 4333, 5789, -9675, 21621
0.068762, 1019, -201, 1120, 4821, -11573, 21726
0.068896, 1019, -201, 1120, 4821, -11573, 21726
0.069030, 1019, -201, 1120, 4821, -11573, 21726
0.069164, 1019, -201, 1120, 4821, -11573, 21726
0.069298, 1019, -201, 1120, 4821, -11573, 21726
0.069432, 1019, -201, 1120, 4821, -11573, 21726
0.069566, 1019, -201, 1120, 4821, -11573, 21726
0.069700, 5069, -1918, -1056, 2962, -12946, 19530
0.069834, 5069, -1918, -1056, 2962, -12946, 19530
0.069968, 5069, -1918, -1056, 2962, -12946, 19530
0.070102, 5069, -1918, -1056, 2962, -12946, 19530
0.070236, 5069, -1918, -1056, 2962, -12946, 19530
0.070370, 5069, -1918, -1056, 2962, -12946, 19530
0.070504, 5069, -1918, -1056, 2962, -12946, 19530
0.070638, 5069, -1918, -1056, 2962, -12946, 19530
0.070773, 3690, -96, -3720, 307, -12902, 15671
0.070908, 3690, -96, -3720, 307, -12902, 15671
0.071042, 3690, -96, -3720, 307, -12902, 15671
0.071177, 3690, -96, -3720, 307, -12902, 15671
0.071312, 3690, -96, -3720, 307, -12902, 15671
0.071451, 3690, -96, -3720, 307, -12902, 15671
0.071586, 3690, -96, -3720, 307, -12902, 15671
0.071721, -2054, 1833, -4489, -3492, -11090, 14328
0.071856, -2054, 1833, -4489, -3492, -11090, 14328
0.071991, -2054, 1833, -4489, -3492, -11090, 14328
0.072125, -2054, 1833, -4489, -3492, -11090, 14328
0.072260, -2054, 1833, -4489, -3492, -11090, 14328
0.072395, -2054, 1833, -4489, -3492, -11090, 14328
0.072529, -2054, 1833, -4489, -3492, -11090, 14328
0.072664, -2054, 1833, -4489, -3492, -11090, 14328
0.072798, 1292, 1219, -1976, -6704, -10032, 15619
0.072933, 1292, 1219, -1976, -6704, -10032, 15619
0.073068, 1292, 1219, -1976, -6704, -10032, 15619
0.073202, 1292, 1219, -1976, -6704, -10032, 15619
0.073337, 1292, 1219, -1976, -6704, -10032, 15619
0.073471, 1292, 1219, -1976, -6704, -10032, 15619
0.073606, 1292, 1219, -1976, -6704, -10032, 15619
0.073741, 1292, 1219, -1976, -6704, -10032, 15619
0.073875, 9891, 399, 279, -8248, -9725, 12832
0.074010, 9891, 399, 279, -8248, -9725, 12832
0.074145, 9891, 399, 279, -8248, -9725, 12832
0.074279, 9891, 399, 279, -8248, -9725, 12832
0.074414, 9891, 399, 279, -8248, -9725, 12832
0.074548, 9891, 399, 279, -8248, -9725, 12832
0.074683, 9891, 399, 279, -8248, -9725, 12832
0.074818, 7603, 1258, 3456, -8454, -7268, 6153
0.074953, 7603, 1258, 3456, -8454, -7268, 6153
0.075088, 7603, 1258, 3456, -8454, -7268, 6153
0.075222, 7603, 1258, 3456, -8454, -7268, 6153
0.075357, 7603, 1258, 3456, -8454, -7268, 6153
0.075493, 7603, 1258, 3456, -8454, -7268, 6153
0.075628, 7603, 1258, 3456, -8454, -7268, 6153
0.075763, 7603, 1258, 3456, -8454, -7268, 6153
0.075897, 2204, 1357, 9156, -6157, -3188, 3025
0.076032, 2204, 1357, 9156, -6157, -3188, 3025
0.076167, 2204, 1357, 9156, -6157, -3188, 3025
0.076301, 2204, 1357, 9156, -6157, -3188, 3025
0.076436, 2204, 1357, 9156, -6157, -3188, 3025
0.076570, 2204, 1357, 9156, -6157, -3188, 3025
0.076705, 2204, 1357, 9156, -6157, -3188, 3025
0.076840, 1654, 1117, 9069, -1038, -109, 2689
0.076975, 1654, 1117, 9069, -1038, -109, 2689
0.077109, 1654, 1117, 9069, -1038, -109, 2689
0.077244, 1654, 1117, 9069, -1038, -109, 2689
0.077378, 1654, 1117, 9069, -1038, -109, 2689
0.077513, 1654, 1117, 9069, -1038, -109, 2689
0.077648, 1654, 1117, 9069, -1038, -109, 2689
0.077782, 1654, 1117, 9069, -1038, -109, 2689
0.077917, -318, 1237, 2487, 2641, 1542, 1598
0.078052, -318, 1237, 2487, 2641, 1542, 1598
0.078186, -318, 1237, 2487, 2641, 1542, 1598
0.078321, -318, 1237, 2487, 2641, 1542, 1598
0.078455, -318, 1237, 2487, 2641, 1542, 1598
0.078590, -318, 1237, 2487, 2641, 1542, 1598
0.078725, -318, 1237, 2487, 2641, 1542, 1598
0.078860, -1517, 2, -654, 2271, 1536, 1731
0.078994, -1517, 2, -654, 2271, 1536, 1731
0.079129, -1517, 2, -654, 2271, 1536, 1731
0.079263, -1517, 2, -654, 2271, 1536, 1731
0.079398, -1517, 2, -654, 2271, 1536, 1731
0.079533, -1517, 2, -654, 2271, 1536, 1731
0.079667, -1517, 2, -654, 2271, 1536, 1731
0.079802, -1517, 2, -654, 2271, 1536, 1731
0.079936, -76, -510, 1356, 685, 14, 2439
0.080071, -76, -510, 1356, 685, 14, 2439
0.080206, -76, -510, 1356, 685, 14, 2439
0.080341, -76, -510, 1356, 685, 14, 2439
0.080476, -76, -510, 1356, 685, 14, 2439
0.080605, -76, -510, 1356, 685, 14, 2439
0.080736, -76, -510, 1356, 685, 14, 2439
0.080872, 1037, 402, 3094, 504, -709, 2027
0.081007, 1037, 402, 3094, 504, -709, 2027
0.081141, 1037, 402, 3094, 504, -709, 2027
0.081276, 1037, 402, 3094, 504, -709, 2027
0.081410, 1037, 402, 3094, 504, -709, 2027
0.081545, 1037, 402, 3094, 504, -709, 2027
0.081680, 1037, 402, 3094, 504, -709, 2027
0.081814, 1037, 402, 3094, 504, -709, 2027
0.081949, 5609, 39, 1380, 607, -354, 365
0.082084, 5609, 39, 1380, 607, -354, 365
0.082218, 5609, 39, 1380, 607, -354, 365
0.082353, 5609, 39, 1380, 607, -354, 365
0.082488, 5609, 39, 1380, 607, -354, 365
0.082622, 5609, 39, 1380, 607, -354, 365
0.082757, 5609, 39, 1380, 607, -354, 365
0.082892, 7693, 354, -907, -305, 231, -4308
0.083027, 7693, 354, -907, -305, 231, -4308
0.083161, 7693, 354, -907, -305, 231, -4308
0.083296, 7693, 354, -907, -305, 231, -4308
0.083431, 7693, 354, -907, -305, 231, -4308
0.083572, 7693, 354, -907, -305, 231, -4308
0.083707, 7693, 354, -907, -305, 231, -4308
0.083842, 7693, 354, -907, -305, 231, -4308
0.083976, -760, 1196, -1510, -1859, 1966, -7944
0.084111, -760, 1196, -1510, -1859, 1966, -7944
0.084246, -760, 1196, -1510, -1859, 1966, -7944
0.084381, -760, 1196, -1510, -1859, 1966, -7944
0.084515, -760, 1196, -1510, -1859, 1966, -7944
0.084650, -760, 1196, -1510, -1859, 1966, -7944
0.084785, -760, 1196, -1510, -1859, 1966, -7944
0.084919, -7177, -381, -238, -3338, 3448, -5440
0.085054, -7177, -381, -238, -3338, 3448, -5440
0.085189, -7177, -381, -238, -3338, 3448, -5440
0.085324, -7177, -381, -238, -3338, 3448, -5440
0.085458, -7177, -381, -238, -3338, 3448, -5440
0.085593, -7177, -381, -238, -3338, 3448, -5440
0.085727, -7177, -381, -238, -3338, 3448, -5440
0.085862, -7177, -381, -238, -3338, 3448, -5440
0.085996, -4961, -1116, 2644, -3115, 2869, -1053
0.086131, -4961, -1116, 2644, -3115, 2869, -1053
0.086267, -4961, -1116, 2644, -3115, 2869, -1053
0.086402, -4961, -1116, 2644, -3115, 2869, -1053
0.086538, -4961, -1116, 2644, -3115, 2869, -1053
0.086673, -4961, -1116, 2644, -3115, 2869, -1053
0.086809, -4961, -1116, 2644, -3115, 2869, -1053
0.086945, -2325, 252, 3781, -1720, 1460, 1134
0.087082, -2325, 252, 3781, -1720, 1460, 1134
0.087223, -2325, 252, 3781, -1720, 1460, 1134
0.087360, -2325, 252, 3781, -1720, 1460, 1134
0.087501, -2325, 252, 3781, -1720, 1460, 1134
0.087638, -2325, 252, 3781, -1720, 1460, 1134
0.087773, -2325, 252, 3781, -1720, 1460, 1134
0.087908, -2325, 252, 3781, -1720, 1460, 1134
0.088043, -919, 629, 3767, -959, 256, 1985
0.088178, -919, 629, 3767, -959, 256, 1985
0.088313, -919, 629, 3767, -959, 256, 1985
0.088447, -919, 629, 3767, -959, 256, 1985
0.088582, -919, 629, 3767, -959, 256, 1985
0.088717, -919, 629, 3767, -959, 256, 1985
0.088851, -919, 629, 3767, -959, 256, 1985
0.088986, 334, 627, 2931, -736, -922, 1971
0.089121, 334, 627, 2931, -736, -922, 1971
0.089255, 334, 627, 2931, -736, -922, 1971
0.089390, 334, 627, 2931, -736, -922, 1971
0.089525, 334, 627, 2931, -736, -922, 1971
0.089659, 334, 627, 2931, -736, -922, 1971
0.089794, 334, 627, 2931, -736, -922, 1971
0.089929, 334, 627, 2931, -736, -922, 1971
0.090063, 20, 872, 1953, -913, -1829, 1260
0.090198, 20, 872, 1953, -913, -1829, 1260
0.090333, 20, 872, 1953, -913, -1829, 1260
0.090467, 20, 872, 1953, -913, -1829, 1260
0.090602, 20, 872, 1953, -913, -1829, 1260
0.090736, 20, 872, 1953, -913, -1829, 1260
0.090871, 20, 872, 1953, -913, -1829, 1260
0.091006, -3204, 714, 3107, -718, -2101, 1387
0.091140, -3204, 714, 3107, -718, -2101, 1387
0.091275, -3204, 714, 3107, -718, -2101, 1387
0.091410, -3204, 714, 3107, -718, -2101, 1387
0.091544, -3204, 714, 3107, -718, -2101, 1387
0.091679, -3204, 714, 3107, -718, -2101, 1387
0.091813, -3204, 714, 3107, -718, -2101, 1387
0.091943, -3204, 714, 3107, -718, -2101, 1387
0.092073, -6441, 624, 2986, 176, -2183, 4028
0.092209, -6441, 624, 2986, 176, -2183, 4028
0.092344, -6441, 624, 2986, 176, -2183, 4028
0.092479, -6441, 624, 2986, 176, -2183, 4028
0.092614, -6441, 624, 2986, 176, -2183, 4028
0.092748, -6441, 624, 2986, 176, -2183, 4028
0.092883, -6441, 624, 2986, 176, -2183, 4028
0.093017, -5892, 674, 781, 281, -2938, 8030
0.093152, -5892, 674, 781, 281, -2938, 8030
0.093287, -5892, 674, 781, 281, -2938, 8030
0.093422, -5892, 674, 781, 281, -2938, 8030
0.093556, -5892, 674, 781, 281, -2938, 8030
0.093691, -5892, 674, 781, 281, -2938, 8030
0.093826, -5892, 674, 781, 281, -2938, 8030
0.093960, -5892, 674, 781, 281, -2938, 8030
0.094095, -2692, 674, 64, -983, -4464, 10789
0.094230, -2692, 674, 64, -983, -4464, 10789
0.094364, -2692, 674, 64, -983, -4464, 10789
0.094499, -2692, 674, 64, -983, -4464, 10789
0.094634, -2692, 674, 64, -983, -4464, 10789
0.094769, -2692, 674, 64, -983, -4464, 10789
0.094904, -2692, 674, 64, -983, -4464, 10789
0.095038, 1181, 556, 1667, -2467, -5784, 11301
0.095173, 1181, 556, 1667, -2467, -5784, 11301
0.095308, 1181, 556, 1667, -2467, -5784, 11301
0.095442, 1181, 556, 1667, -2467, -5784, 11301
0.095577, 1181, 556, 1667, -2467, -5784, 11301
0.095726, 1181, 556, 1667, -2467, -5784, 11301
0.095862, 1181, 556, 1667, -2467, -5784, 11301
0.095997, 1181, 556, 1667, -2467, -5784, 11301
0.096131, 4421, 800, 4669, -2625, -6062, 9454
0.096266, 4421, 800, 4669, -2625, -6062, 9454
0.096401, 4421, 800, 4669, -2625, -6062, 9454
0.096536, 4421, 800, 4669, -2625, -6062, 9454
0.096670, 4421, 800, 4669, -2625, -6062, 9454
0.096805, 4421, 800, 4669, -2625, -6062, 9454
0.096940, 4421, 800, 4669, -2625, -6062, 9454
0.097074, 5695, 1233, 6217, -794, -5092, 5935
0.097209, 5695, 1233, 6217, -794, -5092, 5935
0.097344, 5695, 1233, 6217, -794, -5092, 5935
0.097478, 5695, 1233, 6217, -794, -5092, 5935
0.097613, 5695, 1233, 6217, -794, -5092, 5935
0.097748, 5695, 1233, 6217, -794, -5092, 5935
0.097883, 5695, 1233, 6217, -794, -5092, 5935
0.098017, 5695, 1233, 6217, -794, -5092, 5935
0.098152, 4896, 703, 3488, 1307, -3411, 2218
0.098286, 4896, 703, 3488, 1307, -3411, 2218
0.098421, 4896, 703, 3488, 1307, -3411, 2218
0.098556, 4896, 703, 3488, 1307, -3411, 2218
0.098690, 4896, 703, 3488, 1307, -3411, 2218
0.098825, 4896, 703, 3488, 1307, -3411, 2218
0.098960, 4896, 703, 3488, 1307, -3411, 2218
0.099095, 3258, -86, 972, 2013, -1885, -781
0.099229, 3258, -86, 972, 2013, -1885, -781
0.099364, 3258, -86, 972, 2013, -1885, -781
0.099494, 3258, -86, 972, 2013, -1885, -781
0.099630, 3258, -86, 972, 2013, -1885, -781
0.099766, 3258, -86, 972, 2013, -1885, -781
0.099897, 3258, -86, 972, 2013, -1885, -781
0.100032, 3258, -86, 972, 2013, -1885, -781
0.100167, 253, 225, 1351, 2099, -366, -2333
0.100302, 253, 225, 1351, 2099, -366, -2333
0.100436, 253, 225, 1351, 2099, -366, -2333
0.100571, 253, 225, 1351, 2099, -366, -2333
0.100706, 253, 225, 1351, 2099, -366, -2333
0.100841, 253, 225, 1351, 2099, -366, -2333
0.100975, 253, 225, 1351, 2099, -366, -2333
0.101110, 253, 225, 1351, 2099, -366, -2333
0.101244, -2473, 915, 1944, 2307, 1417, -1557
0.101379, -2473, 915, 1944, 2307, 1417, -1557
0.101514, -2473, 915, 1944, 2307, 1417, -1557
0.101649, -2473, 915, 1944, 2307, 1417, -1557
0.101783, -2473, 915, 1944, 2307, 1417, -1557
0.101918, -2473, 915, 1944, 2307, 1417, -1557
0.102052, -2473, 915, 1944, 2307, 1417, -1557
0.102187, 683, 339, 2177, 2541, 2194, -392
0.102322, 683, 339, 2177, 2541, 2194, -392
0.102456, 683, 339, 2177, 2541, 2194, -392
0.102591, 683, 339, 2177, 2541, 2194, -392
0.102726, 683, 339, 2177, 2541, 2194, -392
0.102861, 683, 339, 2177, 2541, 2194, -392
0.102995, 683, 339, 2177, 2541, 2194, -392
0.103130, 683, 339, 2177, 2541, 2194, -392
0.103264, 4604, -316, 1902, 2573, 1802, -2283
0.103399, 4604, -316, 1902, 2573, 1802, -2283
0.103534, 4604, -316, 1902, 2573, 1802, -2283
0.103669, 4604, -316, 1902, 2573, 1802, -2283
0.103803, 4604, -316, 1902, 2573, 1802, -2283
0.103938, 4604, -316, 1902, 2573, 1802, -2283
0.104073, 4604, -316, 1902, 2573, 1802, -2283
0.104207, 1188, 712, 1837, 2350, 2032, -5150
0.104342, 1188, 712, 1837, 2350, 2032, -5150
0.104477, 1188, 712, 1837, 2350, 2032, -5150
0.104611, 1188, 712, 1837, 2350, 2032, -5150
0.104746, 1188, 712, 1837, 2350, 2032, -5150
0.104881, 1188, 712, 1837, 2350, 2032, -5150
0.105015, 1188, 712, 1837, 2350, 2032, -5150
0.105150, 1188, 712, 1837, 2350, 2032, -5150
0.105284, -2925, 1125, 2180, 2208, 2597, -5002
0.105419, -2925, 1125, 2180, 2208, 2597, -5002
0.105554, -2925, 1125, 2180, 2208, 2597, -5002
0.105688, -2925, 1125, 2180, 2208, 2597, -5002
0.105823, -2925, 1125, 2180, 2208, 2597, -5002
0.105957, -2925, 1125, 2180, 2208, 2597, -5002
0.106092, -2925, 1125, 2180, 2208, 2597, -5002
0.106227, -3862, 559, 2235, 2544, 2371, -3037
0.106362, -3862, 559, 2235, 2544, 2371, -3037
0.106496, -3862, 559, 2235, 2544, 2371, -3037
0.106631, -3862, 559, 2235, 2544, 2371, -3037
0.106766, -3862, 559, 2235, 2544, 2371, -3037
0.106900, -3862, 559, 2235, 2544, 2371, -3037
0.107035, -3862, 559, 2235, 2544, 2371, -3037
0.107170, -3862, 559, 2235, 2544, 2371, -3037
0.107304, -4632, 694, 2614, 3256, 1662, -750
0.107439, -4632, 694, 2614, 3256, 1662, -750
0.107573, -4632, 694, 2614, 3256, 1662, -750
0.107708, -4632, 694, 2614, 3256, 1662, -750
0.107855, -4632, 694, 2614, 3256, 1662, -750
0.107990, -4632, 694, 2614, 3256, 1662, -750
0.108125, -4632, 694, 2614, 3256, 1662, -750
0.108259, -3632, 835, 2892, 3739, 512, 1864
0.108394, -3632, 835, 2892, 3739, 512, 1864
0.108528, -3632, 835, 2892, 3739, 512, 1864
0.108663, -3632, 835, 2892, 3739, 512, 1864
0.108797, -3632, 835, 2892, 3739, 512, 1864
0.108931, -3632, 835, 2892, 3739, 512, 1864
0.109066, -3632, 835, 2892, 3739, 512, 1864
0.109200, -3632, 835, 2892, 3739, 512, 1864
0.109335, -1797, 1159, 2107, 3694, -971, 3535
0.109470, -1797, 1159, 2107, 3694, -971, 3535
0.109605, -1797, 1159, 2107, 3694, -971, 3535
0.109739, -1797, 1159, 2107, 3694, -971, 3535
0.109874, -1797, 1159, 2107, 3694, -971, 3535
0.110008, -1797, 1159, 2107, 3694, -971, 3535
0.110143, -1797, 1159, 2107, 3694, -971, 3535
0.110278, -1629, 1067, 1824, 3202, -2252, 4198
0.110412, -1629, 1067, 1824, 3202, -2252, 4198
0.110547, -1629, 1067, 1824, 3202, -2252, 4198
0.110682, -1629, 1067, 1824, 3202, -2252, 4198
0.110816, -1629, 1067, 1824, 3202, -2252, 4198
0.110951, -1629, 1067, 1824, 3202, -2252, 4198
0.111086, -1629, 1067, 1824, 3202, -2252, 4198
0.111220, -1629, 1067, 1824, 3202, -2252, 4198
0.111355, -2484, -43, 2166, 2851, -3236, 5016
0.111490, -2484, -43, 2166, 2851, -3236, 5016
0.111624, -2484, -43, 2166, 2851, -3236, 5016
0.111759, -2484, -43, 2166, 2851, -3236, 5016
0.111893, -2484, -43, 2166, 2851, -3236, 5016
0.112028, -2484, -43, 2166, 2851, -3236, 5016
0.112163, -2484, -43, 2166, 2851, -3236, 5016
0.112297, -938, -171, 367, 2394, -4208, 6111
0.112432, -938, -171, 367, 2394, -4208, 6111
0.112567, -938, -171, 367, 2394, -4208, 6111
0.112701, -938, -171, 367, 2394, -4208, 6111
0.112836, -938, -171, 367, 2394, -4208, 6111
0.112970, -938, -171, 367, 2394, -4208, 6111
0.113105, -938, -171, 367, 2394, -4208, 6111
0.113240, -938, -171, 367, 2394, -4208, 6111
0.113374, 4391, 405, -1684, 493, -5347, 5318
0.113509, 4391, 405, -1684, 493, -5347, 5318
0.113644, 4391, 405, -1684, 493, -5347, 5318
0.113779, 4391, 405, -1684, 493, -5347, 5318
0.113913, 4391, 405, -1684, 493, -5347, 5318
0.114048, 4391, 405, -1684, 493, -5347, 5318
0.114182, 4391, 405, -1684, 493, -5347, 5318
0.114317, 5163, 375, -184, -1841, -5520, 1560
0.114452, 5163, 375, -184, -1841, -5520, 1560
0.114586, 5163, 375, -184, -1841, -5520, 1560
0.114721, 5163, 375, -184, -1841, -5520, 1560
0.114856, 5163, 375, -184, -1841, -5520, 1560
0.114991, 5163, 375, -184, -1841, -5520, 1560
0.115125, 5163, 375, -184, -1841, -5520, 1560
0.115260, 5163, 375, -184, -1841, -5520, 1560
0.115394, 505, 612, 2402, -2479, -3850, -954
0.115529, 505, 612, 2402, -2479, -3850, -954
0.115664, 505, 612, 2402, -2479, -3850, -954
0.115799, 505, 612, 2402, -2479, -3850, -954
0.115933, 505, 612, 2402, -2479, -3850, -954
0.116068, 505, 612, 2402, -2479, -3850, -954
0.116202, 505, 612, 2402, -2479, -3850, -954
0.116337, 552, 841, 2337, -1822, -1925, -802
0.116472, 552, 841, 2337, -1822, -1925, -802
0.116606, 552, 841, 2337, -1822, -1925, -802
0.116741, 552, 841, 2337, -1822, -1925, -802
0.116876, 552, 841, 2337, -1822, -1925, -802
0.117010, 552, 841, 2337, -1822, -1925, -802
0.117145, 552, 841, 2337, -1822, -1925, -802
0.117279, 552, 841, 2337, -1822, -1925, -802
0.117414, 4142, 234, 1344, -1443, -802, -1979
0.117549, 4142, 234, 1344, -1443, -802, -1979
0.117683, 4142, 234, 1344, -1443, -802, -1979
0.117818, 4142, 234, 1344, -1443, -802, -1979
0.117952, 4142, 234, 1344, -1443, -802, -1979
0.118087, 4142, 234, 1344, -1443, -802, -1979
0.118222, 4142, 234, 1344, -1443, -802, -1979
0.118356, 4816, 15, 2337, -1395, 403, -4971
0.118491, 4816, 15, 2337, -1395, 403, -4971
0.118626, 4816, 15, 2337, -1395, 403, -4971
0.118761, 4816, 15, 2337, -1395, 403, -4971
0.118895, 4816, 15, 2337, -1395, 403, -4971
0.119030, 4816, 15, 2337, -1395, 403, -4971
0.119165, 4816, 15, 2337, -1395, 403, -4971
0.119299, 4816, 15, 2337, -1395, 403, -4971
0.119434, 3421, 613, 3733, -672, 2031, -7525
0.119569, 3421, 613, 3733, -672, 2031, -7525
0.119703, 3421, 613, 3733, -672, 2031, -7525
0.119838, 3421, 613, 3733, -672, 2031, -7525
0.119973, 3421, 613, 3733, -672, 2031, -7525
0.120111, 3421, 613, 3733, -672, 2031, -7525
0.120246, 3421, 613, 3733, -672, 2031, -7525
0.120380, 1939, 650, 3129, 533, 3537, -9268
0.120515, 1939, 650, 3129, 533, 3537, -9268
0.120650, 1939, 650, 3129, 533, 3537, -9268
0.120785, 1939, 650, 3129, 533, 3537, -9268
0.120919, 1939, 650, 3129, 533, 3537, -9268
0.121054, 1939, 650, 3129, 533, 3537, -9268
0.121189, 1939, 650, 3129, 533, 3537, -9268
0.121323, 1939, 650, 3129, 533, 3537, -9268
0.121458, -798, 3, 1808, 1357, 4572, -10129
0.121593, -798, 3, 1808, 1357, 4572, -10129
0.121727, -798, 3, 1808, 1357, 4572, -10129
0.121862, -798, 3, 1808, 1357, 4572, -10129
0.121997, -798, 3, 1808, 1357, 4572, -10129
0.122131, -798, 3, 1808, 1357, 4572, -10129
0.122266, -798, 3, 1808, 1357, 4572, -10129
0.122400, -4224, -386, 1598, 1636, 4972, -8983
0.122535, -4224, -386, 1598, 1636, 4972, -8983
0.122670, -4224, -386, 1598, 1636, 4972, -8983
0.122805, -4224, -386, 1598, 1636, 4972, -8983
0.122940, -4224, -386, 1598, 1636, 4972, -8983
0.123074, -4224, -386, 1598, 1636, 4972, -8983
0.123209, -4224, -386, 1598, 1636, 4972, -8983
0.123344, -4224, -386, 1598, 1636, 4972, -8983
0.123478, -6008, -136, 2337, 1775, 4582, -5765
0.123613, -6008, -136, 2337, 1775, 4582, -5765
0.123748, -6008, -136, 2337, 1775, 4582, -5765
0.123882, -6008, -136, 2337, 1775, 4582, -5765
0.124017, -6008, -136, 2337, 1775, 4582, -5765
0.124151, -6008, -136, 2337, 1775, 4582, -5765
0.124286, -6008, -136, 2337, 1775, 4582, -5765
0.124420, -6008, -136, 2337, 1775, 4582, -5765
0.124555, -5496, 190, 2382, 1967, 3394, -2027
0.124690, -5496, 190, 2382, 1967, 3394, -2027
0.124824, -5496, 190, 2382, 1967, 3394, -2027
0.124959, -5496, 190, 2382, 1967, 3394, -2027
0.125094, -5496, 190, 2382, 1967, 3394, -2027
0.125228, -5496, 190, 2382, 1967, 3394, -2027
0.125363, -5496, 190, 2382, 1967, 3394, -2027
0.125497, -4637, 312, 1527, 1656, 1614, 908
0.125632, -4637, 312, 1527, 1656, 1614, 908
0.125766, -4637, 312, 1527, 1656, 1614, 908
0.125901, -4637, 312, 1527, 1656, 1614, 908
0.126036, -4637, 312, 1527, 1656, 1614, 908
0.126170, -4637, 312, 1527, 1656, 1614, 908
0.126305, -4637, 312, 1527, 1656, 1614, 908
0.126439, -4637, 312, 1527, 1656, 1614, 908
0.126574, -5271, 723, 2063, 962, -305, 3446
0.126713, -5271, 723, 2063, 962, -305, 3446
0.126848, -5271, 723, 2063, 962, -305, 3446
0.126982, -5271, 723, 2063, 962, -305, 3446
0.127117, -5271, 723, 2063, 962, -305, 3446
0.127252, -5271, 723, 2063, 962, -305, 3446
0.127386, -5271, 723, 2063, 962, -305, 3446
0.127521, -4561, 1185, 2925, 744, -2210, 6341
0.127656, -4561, 1185, 2925, 744, -2210, 6341
0.127790, -4561, 1185, 2925, 744, -2210, 6341
0.127925, -4561, 1185, 2925, 744, -2210, 6341
0.128059, -4561, 1185, 2925, 744, -2210, 6341
0.128194, -4561, 1185, 2925, 744, -2210, 6341
0.128328, -4561, 1185, 2925, 744, -2210, 6341
0.128463, -4561, 1185, 2925, 744, -2210, 6341
0.128598, -1514, 898, 1822, 540, -4148, 8290
0.128732, -1514, 898, 1822, 540, -4148, 8290
0.128867, -1514, 898, 1822, 540, -4148, 8290
0.129002, -1514, 898, 1822, 540, -4148, 8290
0.129136, -1514, 898, 1822, 540, -4148, 8290
0.129271, -1514, 898, 1822, 540, -4148, 8290
0.129405, -1514, 898, 1822, 540, -4148, 8290
0.129540, 2363, -176, 2142, 13, -5819, 7902
0.129675, 2363, -176, 2142, 13, -5819, 7902
0.129809, 2363, -176, 2142, 13, -5819, 7902
0.129944, 2363, -176, 2142, 13, -5819, 7902
0.130078, 2363, -176, 2142, 13, -5819, 7902
0.130213, 2363, -176, 2142, 13, -5819, 7902
0.130348, 2363, -176, 2142, 13, -5819, 7902
0.130482, 2363, -176, 2142, 13, -5819, 7902
0.130617, 6519, 93, 3909, 511, -6458, 5134
0.130752, 6519, 93, 3909, 511, -6458, 5134
0.130887, 6519, 93, 3909, 511, -6458, 5134
0.131021, 6519, 93, 3909, 511, -6458, 5134
0.131156, 6519, 93, 3909, 511, -6458, 5134
0.131291, 6519, 93, 3909, 511, -6458, 5134
0.131425, 6519, 93, 3909, 511, -6458, 5134
0.131560, 6576, 1434, 2059, 1398, -5245, 728
0.131695, 6576, 1434, 2059, 1398, -5245, 728
0.131829, 6576, 1434, 2059, 1398, -5245, 728
0.131964, 6576, 1434, 2059, 1398, -5245, 728
0.132099, 6576, 1434, 2059, 1398, -5245, 728
0.132233, 6576, 1434, 2059, 1398, -5245, 728
0.132372, 6576, 1434, 2059, 1398, -5245, 728
0.132507, 6576, 1434, 2059, 1398, -5245, 728
0.132642, 625, 1028, 18, 1108, -2690, -2429
0.132776, 625, 1028, 18, 1108, -2690, -2429
0.132911, 625, 1028, 18, 1108, -2690, -2429
0.133046, 625, 1028, 18, 1108, -2690, -2429
0.133180, 625, 1028, 18, 1108, -2690, -2429
0.133315, 625, 1028, 18, 1108, -2690, -2429
0.133449, 625, 1028, 18, 1108, -2690, -2429
0.133584, -4024, 165, 1549, 1016, -481, -1469
0.133719, -4024, 165, 1549, 1016, -481, -1469
0.133853, -4024, 165, 1549, 1016, -481, -1469
0.133988, -4024, 165, 1549, 1016, -481, -1469
0.134122, -4024, 165, 1549, 1016, -481, -1469
0.134257, -4024, 165, 1549, 1016, -481, -1469
0.134391, -4024, 165, 1549, 1016, -481, -1469
0.134526, -4024, 165, 1549, 1016, -481, -1469
0.134661, -2359, 536, 2690, 1727, 445, 1255
0.134796, -2359, 536, 2690, 1727, 445, 1255
0.134930, -2359, 536, 2690, 1727, 445, 1255
0.135065, -2359, 536, 2690, 1727, 445, 1255
0.135199, -2359, 536, 2690, 1727, 445, 1255
0.135334, -2359, 536, 2690, 1727, 445, 1255
0.135469, -2359, 536, 2690, 1727, 445, 1255
0.135603, -244, 1035, 2797, 2201, 688, 2190
0.135738, -244, 1035, 2797, 2201, 688, 2190
0.135873, -244, 1035, 2797, 2201, 688, 2190
0.136007, -244, 1035, 2797, 2201, 688, 2190
0.136142, -244, 1035, 2797, 2201, 688, 2190
0.136276, -244, 1035, 2797, 2201, 688, 2190
0.136411, -244, 1035, 2797, 2201, 688, 2190
0.136545, -244, 1035, 2797, 2201, 688, 2190
0.136680, 1467, 426, 2004, 2045, 405, 1782
0.136815, 1467, 426, 2004, 2045, 405, 1782
0.136949, 1467, 426, 2004, 2045, 405, 1782
0.137084, 1467, 426, 2004, 2045, 405, 1782
0.137219, 1467, 426, 2004, 2045, 405, 1782
0.137353, 1467, 426, 2004, 2045, 405, 1782
0.137488, 1467, 426, 2004, 2045, 405, 1782
0.137622, 3281, -150, 281, 925, -316, 66
0.137757, 3281, -150, 281, 925, -316, 66
0.137892, 3281, -150, 281, 925, -316, 66
0.138028, 3281, -150, 281, 925, -316, 66
0.138163, 3281, -150, 281, 925, -316, 66
0.138297, 3281, -150, 281, 925, -316, 66
0.138432, 3281, -150, 281, 925, -316, 66
0.138567, 3281, -150, 281, 925, -316, 66
0.138701, -679, 465, 966, -303, -203, -1759
0.138836, -679, 465, 966, -303, -203, -1759
0.138971, -679, 465, 966, -303, -203, -1759
0.139105, -679, 465, 966, -303, -203, -1759
0.139239, -679, 465, 966, -303, -203, -1759
0.139374, -679, 465, 966, -303, -203, -1759
0.139508, -679, 465, 966, -303, -203, -1759
0.139643, -4510, 684, 1784, -556, 349, -491
0.139777, -4510, 684, 1784, -556, 349, -491
0.139912, -4510, 684, 1784, -556, 349, -491
0.140046, -4510, 684, 1784, -556, 349, -491
0.140181, -4510, 684, 1784, -556, 349, -491
0.140315, -4510, 684, 1784, -556, 349, -491
0.140449, -4510, 684, 1784, -556, 349, -491
0.140584, -4510, 684, 1784, -556, 349, -491
0.140718, -2203, 498, 780, -677, -221, 1985
0.140853, -2203, 498, 780, -677, -221, 1985
0.140987, -2203, 498, 780, -677, -221, 1985
0.141121, -2203, 498, 780, -677, -221, 1985
0.141256, -2203, 498, 780, -677, -221, 1985
0.141390, -2203, 498, 780, -677, -221, 1985
0.141524, -2203, 498, 780, -677, -221, 1985
0.141659, 1943, 704, 1650, -1143, -1579, 2144
0.141794, 1943, 704, 1650, -1143, -1579, 2144
0.141928, 1943, 704, 1650, -1143, -1579, 2144
0.142062, 1943, 704, 1650, -1143, -1579, 2144
0.142197, 1943, 704, 1650, -1143, -1579, 2144
0.142331, 1943, 704, 1650, -1143, -1579, 2144
0.142466, 1943, 704, 1650, -1143, -1579, 2144
0.142600, 1943, 704, 1650, -1143, -1579, 2144
0.142735, 3756, 758, 3413, -1089, -2184, 121
0.142870, 3756, 758, 3413, -1089, -2184, 121
0.143004, 3756, 758, 3413, -1089, -2184, 121
0.143139, 3756, 758, 3413, -1089, -2184, 121
0.143274, 3756, 758, 3413, -1089, -2184, 121
0.143408, 3756, 758, 3413, -1089, -2184, 121
0.143543, 3756, 758, 3413, -1089, -2184, 121
0.143677, 3756, 758, 3413, -1089, -2184, 121
0.143812, 827, 495, 3135, -358, -1288, -1887
0.143947, 827, 495, 3135, -358, -1288, -1887
0.144081, 827, 495, 3135, -358, -1288, -1887
0.144216, 827, 495, 3135, -358, -1288, -1887
0.144350, 827, 495, 3135, -358, -1288, -1887
0.144485, 827, 495, 3135, -358, -1288, -1887
0.144620, 827, 495, 3135, -358, -1288, -1887
0.144754, -3488, 103, 2181, 444, 64, -1355
0.144895, -3488, 103, 2181, 444, 64, -1355
0.145030, -3488, 103, 2181, 444, 64, -1355
0.145164, -3488, 103, 2181, 444, 64, -1355
0.145299, -3488, 103, 2181, 444, 64, -1355
0.145433, -3488, 103, 2181, 444, 64, -1355
0.145568, -3488, 103, 2181, 444, 64, -1355
0.145702, -3488, 103, 2181, 444, 64, -1355
0.145837, -2793, 54, 1887, 999, 378, 1084
0.145972, -2793, 54, 1887, 999, 378, 1084
0.146106, -2793, 54, 1887, 999, 378, 1084
0.146241, -2793, 54, 1887, 999, 378, 1084
0.146370, -2793, 54, 1887, 999, 378, 1084
0.146505, -2793, 54, 1887, 999, 378, 1084
0.146639, -2793, 54, 1887, 999, 378, 1084
0.146774, 1315, 419, 2052, 1126, -199, 1973
0.146909, 1315, 419, 2052, 1126, -199, 1973
0.147044, 1315, 419, 2052, 1126, -199, 1973
0.147178, 1315, 419, 2052, 1126, -199, 1973
0.147313, 1315, 419, 2052, 1126, -199, 1973
0.147447, 1315, 419, 2052, 1126, -199, 1973
0.147582, 1315, 419, 2052, 1126, -199, 1973
0.147717, 1315, 419, 2052, 1126, -199, 1973
0.147851, 3542, 970, 2593, 1037, -542, 385
0.147986, 3542, 970, 2593, 1037, -542, 385
0.148120, 3542, 970, 2593, 1037, -542, 385
0.148255, 3542, 970, 2593, 1037, -542, 385
0.148389, 3542, 970, 2593, 1037, -542, 385
0.148524, 3542, 970, 2593, 1037, -542, 385
0.148658, 3542, 970, 2593, 1037, -542, 385
0.148793, 4069, 1303, 2698, 1244, -285, -2220
0.148928, 4069, 1303, 2698, 1244, -285, -2220
0.149062, 4069, 1303, 2698, 1244, -285, -2220
0.149197, 4069, 1303, 2698, 1244, -285, -2220
0.149331, 4069, 1303, 2698, 1244, -285, -2220
0.149466, 4069, 1303, 2698, 1244, -285, -2220
0.149600, 4069, 1303, 2698, 1244, -285, -2220
0.149735, 4069, 1303, 2698, 1244, -285, -2220
0.149869, 2765, 878, 2186, 1678, 451, -4833
0.150004, 2765, 878, 2186, 1678, 451, -4833
0.150139, 2765, 878, 2186, 1678, 451, -4833
0.150273, 2765, 878, 2186, 1678, 451, -4833
0.150408, 2765, 878, 2186, 1678, 451, -4833
0.150542, 2765, 878, 2186, 1678, 451, -4833
0.150677, 2765, 878, 2186, 1678, 451, -4833
0.150812, -1346, 331, 2015, 2155, 1528, -5903
0.150946, -1346, 331, 2015, 2155, 1528, -5903
0.151081, -1346, 331, 2015, 2155, 1528, -5903
0.151215, -1346, 331, 2015, 2155, 1528, -5903
0.151350, -1346, 331, 2015, 2155, 1528, -5903
0.151485, -1346, 331, 2015, 2155, 1528, -5903
0.151619, -1346, 331, 2015, 2155, 1528, -5903
0.151753, -1346, 331, 2015, 2155, 1528, -5903
0.151888, -5091, 263, 2139, 2714, 2281, -4106
0.152023, -5091, 263, 2139, 2714, 2281, -4106
0.152157, -5091, 263, 2139, 2714, 2281, -4106
0.152292, -5091, 263, 2139, 2714, 2281, -4106
0.152426, -5091, 263, 2139, 2714, 2281, -4106
0.152561, -5091, 263, 2139, 2714, 2281, -4106
0.152695, -5091, 263, 2139, 2714, 2281, -4106
0.152830, -6683, 308, 2393, 3154, 2126, -412
0.152964, -6683, 308, 2393, 3154, 2126, -412
0.153099, -6683, 308, 2393, 3154, 2126, -412
0.153233, -6683, 308, 2393, 3154, 2126, -412
0.153368, -6683, 308, 2393, 3154, 2126, -412
0.153503, -6683, 308, 2393, 3154, 2126, -412
0.153637, -6683, 308, 2393, 3154, 2126, -412
0.153771, -6683, 308, 2393, 3154, 2126, -412
0.153906, -7686, 110, 3606, 3537, 1201, 3966
0.154041, -7686, 110, 3606, 3537, 1201, 3966
0.154175, -7686, 110, 3606, 3537, 1201, 3966
0.154310, -7686, 110, 3606, 3537, 1201, 3966
0.154444, -7686, 110, 3606, 3537, 1201, 3966
0.154579, -7686, 110, 3606, 3537, 1201, 3966
0.154714, -7686, 110, 3606, 3537, 1201, 3966
0.154848, -7971, 946, 3892, 4255, -438, 8691
0.154982, -7971, 946, 3892, 4255, -438, 8691
0.155116, -7971, 946, 3892, 4255, -438, 8691
0.155251, -7971, 946, 3892, 4255, -438, 8691
0.155385, -7971, 946, 3892, 4255, -438, 8691
0.155520, -7971, 946, 3892, 4255, -438, 8691
0.155654, -7971, 946, 3892, 4255, -438, 8691
0.155788, -7971, 946, 3892, 4255, -438, 8691
0.155923, -4673, 2346, 1988, 4292, -2959, 12785
0.156057, -4673, 2346, 1988, 4292, -2959, 12785
0.156192, -4673, 2346, 1988, 4292, -2959, 12785
0.156326, -4673, 2346, 1988, 4292, -2959, 12785
0.156461, -4673, 2346, 1988, 4292, -2959, 12785
0.156595, -4673, 2346, 1988, 4292, -2959, 12785
0.156729, -4673, 2346, 1988, 4292, -2959, 12785
0.156864, 5024, -19, -285, 2443, -6225, 13230
0.156998, 5024, -19, -285, 2443, -6225, 13230
0.157140, 5024, -19, -285, 2443, -6225, 13230
0.157275, 5024, -19, -285, 2443, -6225, 13230
0.157410, 5024, -19, -285, 2443, -6225, 13230
0.157544, 5024, -19, -285, 2443, -6225, 13230
0.157679, 5024, -19, -285, 2443, -6225, 13230
0.157813, 5024, -19, -285, 2443, -6225, 13230
0.157948, 12192, -2177, -772, -214, -8608, 7333
0.158084, 12192, -2177, -772, -214, -8608, 7333
0.158219, 12192, -2177, -772, -214, -8608, 7333
0.158353, 12192, -2177, -772, -214, -8608, 7333
0.158488, 12192, -2177, -772, -214, -8608, 7333
0.158622, 12192, -2177, -772, -214, -8608, 7333
0.158757, 12192, -2177, -772, -214, -8608, 7333
0.158892, 8595, 602, 1932, -1318, -7588, -395
0.159027, 8595, 602, 1932, -1318, -7588, -395
0.159161, 8595, 602, 1932, -1318, -7588, -395
0.159296, 8595, 602, 1932, -1318, -7588, -395
0.159430, 8595, 602, 1932, -1318, -7588, -395
0.159565, 8595, 602, 1932, -1318, -7588, -395
0.159700, 8595, 602, 1932, -1318, -7588, -395
0.159834, 8595, 602, 1932, -1318, -7588, -395
0.159969, 4225, 1559, 2783, -254, -3925, -4483
0.160104, 4225, 1559, 2783, -254, -3925, -4483
0.160238, 4225, 1559, 2783, -254, -3925, -4483
0.160373, 4225, 1559, 2783, -254, -3925, -4483
0.160507, 4225, 1559, 2783, -254, -3925, -4483
0.160642, 4225, 1559, 2783, -254, -3925, -4483
0.160777, 4225, 1559, 2783, -254, -3925, -4483
0.160911, 4225, 1559, 2783, -254, -3925, -4483
0.161045, 1567, -168, 42, 908, -198, -6315
0.161180, 1567, -168, 42, 908, -198, -6315
0.161315, 1567, -168, 42, 908, -198, -6315
0.161449, 1567, -168, 42, 908, -198, -6315
0.161584, 1567, -168, 42, 908, -198, -6315
0.161718, 1567, -168, 42, 908, -198, -6315
0.161853, 1567, -168, 42, 908, -198, -6315
0.161987, -3540, -271, -574, 899, 2442, -6005
0.162122, -3540, -271, -574, 899, 2442, -6005
0.162256, -3540, -271, -574, 899, 2442, -6005
0.162391, -3540, -271, -574, 899, 2442, -6005
0.162525, -3540, -271, -574, 899, 2442, -6005
0.162659, -3540, -271, -574, 899, 2442, -6005
0.162794, -3540, -271, -574, 899, 2442, -6005
0.162929, -3540, -271, -574, 899, 2442, -6005
0.163063, -4137, -152, 763, 228, 3278, -2908
0.163198, -4137, -152, 763, 228, 3278, -2908
0.163332, -4137, -152, 763, 228, 3278, -2908
0.163467, -4137, -152, 763, 228, 3278, -2908
0.163601, -4137, -152, 763, 228, 3278, -2908
0.163736, -4137, -152, 763, 228, 3278, -2908
0.163870, -4137, -152, 763, 228, 3278, -2908
0.164005, 435, -161, 932, -813, 2501, -1078
0.164139, 435, -161, 932, -813, 2501, -1078
0.164274, 435, -161, 932, -813, 2501, -1078
0.164409, 435, -161, 932, -813, 2501, -1078
0.164543, 435, -161, 932, -813, 2501, -1078
0.164678, 435, -161, 932, -813, 2501, -1078
0.164813, 435, -161, 932, -813, 2501, -1078
0.164947, 435, -161, 932, -813, 2501, -1078
0.165082, 1889, 747, 891, -2083, 1374, -2346
0.165217, 1889, 747, 891, -2083, 1374, -2346
0.165351, 1889, 747, 891, -2083, 1374, -2346
0.165486, 1889, 747, 891, -2083, 1374, -2346
0.165621, 1889, 747, 891, -2083, 1374, -2346
0.165755, 1889, 747, 891, -2083, 1374, -2346
0.165890, 1889, 747, 891, -2083, 1374, -2346
0.166025, -1421, 1358, 1970, -2913, 898, -3377
0.166160, -1421, 1358, 1970, -2913, 898, -3377
0.166294, -1421, 1358, 1970, -2913, 898, -3377
0.166429, -1421, 1358, 1970, -2913, 898, -3377
0.166564, -1421, 1358, 1970, -2913, 898, -3377
0.166698, -1421, 1358, 1970, -2913, 898, -3377
0.166833, -1421, 1358, 1970, -2913, 898, -3377
0.166968, -1421, 1358, 1970, -2913, 898, -3377
0.167102, -4699, 665, 3797, -2508, 898, -1695
0.167237, -4699, 665, 3797, -2508, 898, -1695
0.167372, -4699, 665, 3797, -2508, 898, -1695
0.167506, -4699, 665, 3797, -2508, 898, -1695
0.167641, -4699, 665, 3797, -2508, 898, -1695
0.167776, -4699, 665, 3797, -2508, 898, -1695
0.167910, -4699, 665, 3797, -2508, 898, -1695
0.168045, -5088, 20, 4047, -1021, 316, 1457
0.168180, -5088, 20, 4047, -1021, 316, 1457
0.168314, -5088, 20, 4047, -1021, 316, 1457
0.168449, -5088, 20, 4047, -1021, 316, 1457
0.168583, -5088, 20, 4047, -1021, 316, 1457
0.168718, -5088, 20, 4047, -1021, 316, 1457
0.168852, -5088, 20, 4047, -1021, 316, 1457
0.168987, -5088, 20, 4047, -1021, 316, 1457
0.169122, -4875, 430, 2413, 37, -1154, 4400
0.169263, -4875, 430, 2413, 37, -1154, 4400
0.169398, -4875, 430, 2413, 37, -1154, 4400
0.169532, -4875, 430, 2413, 37, -1154, 4400
0.169667, -4875, 430, 2413, 37, -1154, 4400
0.169802, -4875, 430, 2413, 37, -1154, 4400
0.169936, -4875, 430, 2413, 37, -1154, 4400
0.170071, -4523, 712, 2163, 44, -2981, 7212
0.170206, -4523, 712, 2163, 44, -2981, 7212
0.170340, -4523, 712, 2163, 44, -2981, 7212
0.170475, -4523, 712, 2163, 44, -2981, 7212
0.170609, -4523, 712, 2163, 44, -2981, 7212
0.170744, -4523, 712, 2163, 44, -2981, 7212
0.170879, -4523, 712, 2163, 44, -2981, 7212
0.171014, -4523, 712, 2163, 44, -2981, 7212
0.171148, -1362, 248, 2387, -263, -4618, 9208
0.171283, -1362, 248, 2387, -263, -4618, 9208
0.171418, -1362, 248, 2387, -263, -4618, 9208
0.171554, -1362, 248, 2387, -263, -4618, 9208
0.171689, -1362, 248, 2387, -263, -4618, 9208
0.171824, -1362, 248, 2387, -263, -4618, 9208
0.171958, -1362, 248, 2387, -263, -4618, 9208
0.172093, 694, 95, 1454, -740, -5365, 9216
0.172228, 694, 95, 1454, -740, -5365, 9216
0.172362, 694, 95, 1454, -740, -5365, 9216
0.172497, 694, 95, 1454, -740, -5365, 9216
0.172632, 694, 95, 1454, -740, -5365, 9216
0.172767, 694, 95, 1454, -740, -5365, 9216
0.172901, 694, 95, 1454, -740, -5365, 9216
0.173036, 694, 95, 1454, -740, -5365, 9216
0.173170, 404, 439, 553, -1614, -5407, 8403
0.173305, 404, 439, 553, -1614, -5407, 8403
0.173440, 404, 439, 553, -1614, -5407, 8403
0.173575, 404, 439, 553, -1614, -5407, 8403
0.173709, 404, 439, 553, -1614, -5407, 8403
0.173844, 404, 439, 553, -1614, -5407, 8403
0.173979, 404, 439, 553, -1614, -5407, 8403
0.174113, 895, 781, -92, -2925, -5434, 7805
0.174248, 895, 781, -92, -2925, -5434, 7805
0.174383, 895, 781, -92, -2925, -5434, 7805
0.174517, 895, 781, -92, -2925, -5434, 7805
0.174652, 895, 781, -92, -2925, -5434, 7805
0.174787, 895, 781, -92, -2925, -5434, 7805
0.174922, 895, 781, -92, -2925, -5434, 7805
0.175056, 895, 781, -92, -2925, -5434, 7805
0.175191, 2626, 428, 1248, -4064, -5314, 6660
0.175326, 2626, 428, 1248, -4064, -5314, 6660
0.175460, 2626, 428, 1248, -4064, -5314, 6660
0.175595, 2626, 428, 1248, -4064, -5314, 6660
0.175730, 2626, 428, 1248, -4064, -5314, 6660
0.175865, 2626, 428, 1248, -4064, -5314, 6660
0.176000, 2626, 428, 1248, -4064, -5314, 6660
0.176134, 4583, 46, 4726, -3539, -4628, 4258
0.176269, 4583, 46, 4726, -3539, -4628, 4258
0.176404, 4583, 46, 4726, -3539, -4628, 4258
0.176538, 4583, 46, 4726, -3539, -4628, 4258
0.176673, 4583, 46, 4726, -3539, -4628, 4258
0.176808, 4583, 46, 4726, -3539, -4628, 4258
0.176942, 4583, 46, 4726, -3539, -4628, 4258
0.177077, 4583, 46, 4726, -3539, -4628, 4258
0.177211, 2219, 1030, 5374, -1222, -2930, 1642
0.177346, 2219, 1030, 5374, -1222, -2930, 1642
0.177481, 2219, 1030, 5374, -1222, -2930, 1642
0.177615, 2219, 1030, 5374, -1222, -2930, 1642
0.177750, 2219, 1030, 5374, -1222, -2930, 1642
0.177885, 2219, 1030, 5374, -1222, -2930, 1642
0.178019, 2219, 1030, 5374, -1222, -2930, 1642
0.178154, -345, 1250, 2566, 585, -1107, 907
0.178288, -345, 1250, 2566, 585, -1107, 907
0.178423, -345, 1250, 2566, 585, -1107, 907
0.178558, -345, 1250, 2566, 585, -1107, 907
0.178692, -345, 1250, 2566, 585, -1107, 907
0.178828, -345, 1250, 2566, 585, -1107, 907
0.178962, -345, 1250, 2566, 585, -1107, 907
0.179097, -345, 1250, 2566, 585, -1107, 907
0.179231, 544, 567, 969, 750, -634, 891
0.179366, 544, 567, 969, 750, -634, 891
0.179501, 544, 567, 969, 750, -634, 891
0.179636, 544, 567, 969, 750, -634, 891
0.179770, 544, 567, 969, 750, -634, 891
0.179905, 544, 567, 969, 750, -634, 891
0.180039, 544, 567, 969, 750, -634, 891
0.180174, 544, 567, 969, 750, -634, 891
0.180308, 145, 418, 1863, 400, -731, 301
0.180443, 145, 418, 1863, 400, -731, 301
0.180578, 145, 418, 1863, 400, -731, 301
0.180712, 145, 418, 1863, 400, -731, 301
0.180847, 145, 418, 1863, 400, -731, 301
0.180982, 145, 418, 1863, 400, -731, 301
0.181116, 145, 418, 1863, 400, -731, 301
0.181251, -862, 373, 2637, 335, -438, 275
0.181386, -862, 373, 2637, 335, -438, 275
0.181520, -862, 373, 2637, 335, -438, 275
0.181655, -862, 373, 2637, 335, -438, 275
0.181794, -862, 373, 2637, 335, -438, 275
0.181928, -862, 373, 2637, 335, -438, 275
0.182063, -862, 373, 2637, 335, -438, 275
0.182197, -862, 373, 2637, 335, -438, 275
0.182332, -1553, 579, 1934, 360, -186, 865
0.182467, -1553, 579, 1934, 360, -186, 865
0.182601, -1553, 579, 1934, 360, -186, 865
0.182736, -1553, 579, 1934, 360, -186, 865
0.182871, -1553, 579, 1934, 360, -186, 865
0.183005, -1553, 579, 1934, 360, -186, 865
0.183140, -1553, 579, 1934, 360, -186, 865
0.183274, 454, 491, 950, 106, -484, 1414
0.183409, 454, 491, 950, 106, -484, 1414
0.183544, 454, 491, 950, 106, -484, 1414
0.183678, 454, 491, 950, 106, -484, 1414
0.183813, 454, 491, 950, 106, -484, 1414
0.183947, 454, 491, 950, 106, -484, 1414
0.184082, 454, 491, 950, 106, -484, 1414
0.184216, 454, 491, 950, 106, -484, 1414
0.184351, 5768, 495, 822, -584, -1289, -233
0.184486, 5768, 495, 822, -584, -1289, -233
0.184620, 5768, 495, 822, -584, -1289, -233
0.184755, 5768, 495, 822, -584, -1289, -233
0.184890, 5768, 495, 822, -584, -1289, -233
0.185024, 5768, 495, 822, -584, -1289, -233
0.185159, 5768, 495, 822, -584, -1289, -233
0.185293, 5126, 1078, 1977, -1172, -1083, -4391
0.185428, 5126, 1078, 1977, -1172, -1083, -4391
0.185563, 5126, 1078, 1977, -1172, -1083, -4391
0.185697, 5126, 1078, 1977, -1172, -1083, -4391
0.185832, 5126, 1078, 1977, -1172, -1083, -4391
0.185967, 5126, 1078, 1977, -1172, -1083, -4391
0.186101, 5126, 1078, 1977, -1172, -1083, -4391
0.186236, 5126, 1078, 1977, -1172, -1083, -4391
0.186370, -724, 761, 2178, -899, 648, -6333
0.186505, -724, 761, 2178, -899, 648, -6333
0.186640, -724, 761, 2178, -899, 648, -6333
0.186775, -724, 761, 2178, -899, 648, -6333
0.186909, -724, 761, 2178, -899, 648, -6333
0.187044, -724, 761, 2178, -899, 648, -6333
0.187178, -724, 761, 2178, -899, 648, -6333
0.187313, -985, -28, 844, -406, 1728, -5255
0.187448, -985, -28, 844, -406, 1728, -5255
0.187582, -985, -28, 844, -406, 1728, -5255
0.187717, -985, -28, 844, -406, 1728, -5255
0.187852, -985, -28, 844, -406, 1728, -5255
0.187986, -985, -28, 844, -406, 1728, -5255
0.188121, -985, -28, 844, -406, 1728, -5255
0.188255, -985, -28, 844, -406, 1728, -5255
0.188390, 1022, -217, 1392, -245, 1570, -5206
0.188525, 1022, -217, 1392, -245, 1570, -5206
0.188659, 1022, -217, 1392, -245, 1570, -5206
0.188794, 1022, -217, 1392, -245, 1570, -5206
0.188928, 1022, -217, 1392, -245, 1570, -5206
0.189063, 1022, -217, 1392, -245, 1570, -5206
0.189197, 1022, -217, 1392, -245, 1570, -5206
0.189332, -3480, -212, 2892, 169, 1737, -5234
0.189467, -3480, -212, 2892, 169, 1737, -5234
0.189601, -3480, -212, 2892, 169, 1737, -5234
0.189736, -3480, -212, 2892, 169, 1737, -5234
0.189870, -3480, -212, 2892, 169, 1737, -5234
0.190005, -3480, -212, 2892, 169, 1737, -5234
0.190139, -3480, -212, 2892, 169, 1737, -5234
0.190274, -3480, -212, 2892, 169, 1737, -5234
0.190408, -9246, -127, 3043, 832, 2019, -1458
0.190543, -9246, -127, 3043, 832, 2019, -1458
0.190678, -9246, -127, 3043, 832, 2019, -1458
0.190813, -9246, -127, 3043, 832, 2019, -1458
0.190947, -9246, -127, 3043, 832, 2019, -1458
0.191082, -9246, -127, 3043, 832, 2019, -1458
0.191216, -9246, -127, 3043, 832, 2019, -1458
0.191351, -8086, 144, 2766, 1430, 766, 4437
0.191486, -8086, 144, 2766, 1430, 766, 4437
0.191620, -8086, 144, 2766, 1430, 766, 4437
0.191755, -8086, 144, 2766, 1430, 766, 4437
0.191889, -8086, 144, 2766, 1430, 766, 4437
0.192024, -8086, 144, 2766, 1430, 766, 4437
0.192159, -8086, 144, 2766, 1430, 766, 4437
0.192293, -8086, 144, 2766, 1430, 766, 4437
0.192428, -4169, 712, 2005, 1417, -1875, 8239
0.192562, -4169, 712, 2005, 1417, -1875, 8239
0.192701, -4169, 712, 2005, 1417, -1875, 8239
0.192836, -4169, 712, 2005, 1417, -1875, 8239
0.192971, -4169, 712, 2005, 1417, -1875, 8239
0.193106, -4169, 712, 2005, 1417, -1875, 8239
0.193240, -4169, 712, 2005, 1417, -1875, 8239
0.193375, -1488, 879, 2617, 635, -4490, 9594
0.193509, -1488, 879, 2617, 635, -4490, 9594
0.193644, -1488, 879, 2617, 635, -4490, 9594
0.193779, -1488, 879, 2617, 635, -4490, 9594
0.193913, -1488, 879, 2617, 635, -4490, 9594
0.194048, -1488, 879, 2617, 635, -4490, 9594
0.194190, -1488, 879, 2617, 635, -4490, 9594
0.194325, -1488, 879, 2617, 635, -4490, 9594
0.194460, -170, 1426, 4303, 544, -6255, 9702
0.194595, -170, 1426, 4303, 544, -6255, 9702
0.194730, -170, 1426, 4303, 544, -6255, 9702
0.194864, -170, 1426, 4303, 544, -6255, 9702
0.194999, -170, 1426, 4303, 544, -6255, 9702
0.195133, -170, 1426, 4303, 544, -6255, 9702
0.195268, -170, 1426, 4303, 544, -6255, 9702
0.195402, -547, 1775, 3452, 1363, -6852, 9366
0.195537, -547, 1775, 3452, 1363, -6852, 9366
0.195672, -547, 1775, 3452, 1363, -6852, 9366
0.195806, -547, 1775, 3452, 1363, -6852, 9366
0.195941, -547, 1775, 3452, 1363, -6852, 9366
0.196076, -547, 1775, 3452, 1363, -6852, 9366
0.196210, -547, 1775, 3452, 1363, -6852, 9366
0.196345, -547, 1775, 3452, 1363, -6852, 9366
0.196479, -1086, 1309, 832, 1515, -6793, 9452
0.196614, -1086, 1309, 832, 1515, -6793, 9452
0.196749, -1086, 1309, 832, 1515, -6793, 9452
0.196883, -1086, 1309, 832, 1515, -6793, 9452
0.197018, -1086, 1309, 832, 1515, -6793, 9452
0.197152, -1086, 1309, 832, 1515, -6793, 9452
0.197287, -1086, 1309, 832, 1515, -6793, 9452
0.197421, -1008, 1288, -867, 258, -6871, 10044
0.197556, -1008, 1288, -867, 258, -6871, 10044
0.197691, -1008, 1288, -867, 258, -6871, 10044
0.197825, -1008, 1288, -867, 258, -6871, 10044
0.197960, -1008, 1288, -867, 258, -6871, 10044
0.198095, -1008, 1288, -867, 258, -6871, 10044
0.198229, -1008, 1288, -867, 258, -6871, 10044
0.198364, -1008, 1288, -867, 258, -6871, 10044
0.198498, 1213, 519, -360, -1695, -7081, 10183
0.198633, 1213, 519, -360, -1695, -7081, 10183
0.198768, 1213, 519, -360, -1695, -7081, 10183
0.198903, 1213, 519, -360, -1695, -7081, 10183
0.199037, 1213, 519, -360, -1695, -7081, 10183
0.199172, 1213, 519, -360, -1695, -7081, 10183
0.199306, 1213, 519, -360, -1695, -7081, 10183
0.199441, 4788, -606, 945, -3087, -7036, 8502
0.199576, 4788, -606, 945, -3087, -7036, 8502
0.199710, 4788, -606, 945, -3087, -7036, 8502
0.199845, 4788, -606, 945, -3087, -7036, 8502
0.199979, 4788, -606, 945, -3087, -7036, 8502
0.200114, 4788, -606, 945, -3087, -7036, 8502
0.200248, 4788, -606, 945, -3087, -7036, 8502
0.200383, 4788, -606, 945, -3087, -7036, 8502
0.200517, 6238, -580, 1948, -3593, -6366, 4805
0.200652, 6238, -580, 1948, -3593, -6366, 4805
0.200787, 6238, -580, 1948, -3593, -6366, 4805
0.200921, 6238, -580, 1948, -3593, -6366, 4805
0.201056, 6238, -580, 1948, -3593, -6366, 4805
0.201190, 6238, -580, 1948, -3593, -6366, 4805
0.201325, 6238, -580, 1948, -3593, -6366, 4805
0.201459, 6238, -580, 1948, -3593, -6366, 4805
0.201594, 3441, 552, 2955, -3259, -4639, 1199
0.201729, 3441, 552, 2955, -3259, -4639, 1199
0.201863, 3441, 552, 2955, -3259, -4639, 1199
0.201998, 3441, 552, 2955, -3259, -4639, 1199
0.202133, 3441, 552, 2955, -3259, -4639, 1199
0.202267, 3441, 552, 2955, -3259, -4639, 1199
0.202402, 3441, 552, 2955, -3259, -4639, 1199
0.202536, -184, 889, 3424, -2047, -2321, -79
0.202671, -184, 889, 3424, -2047, -2321, -79
0.202806, -184, 889, 3424, -2047, -2321, -79
0.202941, -184, 889, 3424, -2047, -2321, -79
0.203075, -184, 889, 3424, -2047, -2321, -79
0.203210, -184, 889, 3424, -2047, -2321, -79
0.203344, -184, 889, 3424, -2047, -2321, -79
0.203479, -184, 889, 3424, -2047, -2321, -79
0.203613, -1475, 143, 2640, -697, -579, 428
0.203748, -1475, 143, 2640, -697, -579, 428
0.203883, -1475, 143, 2640, -697, -579, 428
0.204017, -1475, 143, 2640, -697, -579, 428
0.204152, -1475, 143, 2640, -697, -579, 428
0.204287, -1475, 143, 2640, -697, -579, 428
0.204421, -1475, 143, 2640, -697, -579, 428
0.204556, -1857, 58, 1241, -240, 35, 1445
0.204691, -1857, 58, 1241, -240, 35, 1445
0.204825, -1857, 58, 1241, -240, 35, 1445
0.204960, -1857, 58, 1241, -240, 35, 1445
0.205094, -1857, 58, 1241, -240, 35, 1445
0.205229, -1857, 58, 1241, -240, 35, 1445
0.205364, -1857, 58, 1241, -240, 35, 1445
0.205498, -1857, 58, 1241, -240, 35, 1445
0.205633, -1230, 152, 1027, -758, -400, 2549
0.205768, -1230, 152, 1027, -758, -400, 2549
0.205902, -1230, 152, 1027, -758, -400, 2549
0.206037, -1230, 152, 1027, -758, -400, 2549
0.206171, -1230, 152, 1027, -758, -400, 2549
0.206314, -1230, 152, 1027, -758, -400, 2549
0.206449, -1230, 152, 1027, -758, -400, 2549
0.206584, 1344, 181, 1409, -1423, -1258, 2789
0.206719, 1344, 181, 1409, -1423, -1258, 2789
0.206854, 1344, 181, 1409, -1423, -1258, 2789
0.206989, 1344, 181, 1409, -1423, -1258, 2789
0.207123, 1344, 181, 1409, -1423, -1258, 2789
0.207258, 1344, 181, 1409, -1423, -1258, 2789
0.207392, 1344, 181, 1409, -1423, -1258, 2789
0.207527, 1344, 181, 1409, -1423, -1258, 2789
0.207661, 3734, 352, 496, -2242, -1790, 1336
0.207796, 3734, 352, 496, -2242, -1790, 1336
0.207931, 3734, 352, 496, -2242, -1790, 1336
0.208066, 3734, 352, 496, -2242, -1790, 1336
0.208200, 3734, 352, 496, -2242, -1790, 1336
0.208335, 3734, 352, 496, -2242, -1790, 1336
0.208469, 3734, 352, 496, -2242, -1790, 1336
0.208604, 4715, 213, 1066, -3084, -1826, -1456
0.208739, 4715, 213, 1066, -3084, -1826, -1456
0.208873, 4715, 213, 1066, -3084, -1826, -1456
0.209008, 4715, 213, 1066, -3084, -1826, -1456
0.209142, 4715, 213, 1066, -3084, -1826, -1456
0.209277, 4715, 213, 1066, -3084, -1826, -1456
0.209411, 4715, 213, 1066, -3084, -1826, -1456
0.209541, 4715, 213, 1066, -3084, -1826, -1456
0.209675, 3512, 520, 3326, -2567, -1253, -4304
0.209810, 3512, 520, 3326, -2567, -1253, -4304
0.209945, 3512, 520, 3326, -2567, -1253, -4304
0.210079, 3512, 520, 3326, -2567, -1253, -4304
0.210214, 3512, 520, 3326, -2567, -1253, -4304
0.210348, 3512, 520, 3326, -2567, -1253, -4304
0.210483, 3512, 520, 3326, -2567, -1253, -4304
0.210617, 1643, 1209, 3077, -1008, 16, -5858
0.210753, 1643, 1209, 3077, -1008, 16, -5858
0.210887, 1643, 1209, 3077, -1008, 16, -5858
0.211022, 1643, 1209, 3077, -1008, 16, -5858
0.211157, 1643, 1209, 3077, -1008, 16, -5858
0.211291, 1643, 1209, 3077, -1008, 16, -5858
0.211426, 1643, 1209, 3077, -1008, 16, -5858
0.211560, 1643, 1209, 3077, -1008, 16, -5858
0.211695, 2665, 866, 1941, 98, 1260, -6943
0.211830, 2665, 866, 1941, 98, 1260, -6943
0.211964, 2665, 866, 1941, 98, 1260, -6943
0.212099, 2665, 866, 1941, 98, 1260, -6943
0.212233, 2665, 866, 1941, 98, 1260, -6943
0.212368, 2665, 866, 1941, 98, 1260, -6943
0.212502, 2665, 866, 1941, 98, 1260, -6943
0.212637, 334, -25, 1117, 462, 2302, -8277
0.212772, 334, -25, 1117, 462, 2302, -8277
0.212906, 334, -25, 1117, 462, 2302, -8277
0.213041, 334, -25, 1117, 462, 2302, -8277
0.213175, 334, -25, 1117, 462, 2302, -8277
0.213310, 334, -25, 1117, 462, 2302, -8277
0.213445, 334, -25, 1117, 462, 2302, -8277
0.213579, 334, -25, 1117, 462, 2302, -8277
0.213714, -6446, -463, 421, 108, 3224, -6832
0.213848, -6446, -463, 421, 108, 3224, -6832
0.213983, -6446, -463, 421, 108, 3224, -6832
0.214118, -6446, -463, 421, 108, 3224, -6832
0.214252, -6446, -463, 421, 108, 3224, -6832
0.214386, -6446, -463, 421, 108, 3224, -6832
0.214521, -6446, -463, 421, 108, 3224, -6832
0.214655, -9652, 51, 1393, -428, 3059, -1556
0.214791, -9652, 51, 1393, -428, 3059, -1556
0.214925, -9652, 51, 1393, -428, 3059, -1556
0.215060, -9652, 51, 1393, -428, 3059, -1556
0.215194, -9652, 51, 1393, -428, 3059, -1556
0.215329, -9652, 51, 1393, -428, 3059, -1556
0.215463, -9652, 51, 1393, -428, 3059, -1556
0.215598, -9652, 51, 1393, -428, 3059, -1556
0.215732, -7606, 641, 1303, -916, 1369, 4267
0.215867, -7606, 641, 1303, -916, 1369, 4267
0.216002, -7606, 641, 1303, -916, 1369, 4267
0.216136, -7606, 641, 1303, -916, 1369, 4267
0.216271, -7606, 641, 1303, -916, 1369, 4267
0.216405, -7606, 641, 1303, -916, 1369, 4267
0.216540, -7606, 641, 1303, -916, 1369, 4267
0.216675, -3045, 237, -557, -2743, -1489, 7620
0.216809, -3045, 237, -557, -2743, -1489, 7620
0.216944, -3045, 237, -557, -2743, -1489, 7620
0.217078, -3045, 237, -557, -2743, -1489, 7620
0.217213, -3045, 237, -557, -2743, -1489, 7620
0.217348, -3045, 237, -557, -2743, -1489, 7620
0.217482, -3045, 237, -557, -2743, -1489, 7620
0.217617, -3045, 237, -557, -2743, -1489, 7620
0.217751, -2013, 878, 434, -5395, -4496, 8519
0.217886, -2013, 878, 434, -5395, -4496, 8519
0.218021, -2013, 878, 434, -5395, -4496, 8519
0.218155, -2013, 878, 434, -5395, -4496, 8519
0.218290, -2013, 878, 434, -5395, -4496, 8519
0.218424, -2013, 878, 434, -5395, -4496, 8519
0.218563, -2013, 878, 434, -5395, -4496, 8519
0.218698, -3537, 1672, 3914, -6173, -6450, 9653
0.218833, -3537, 1672, 3914, -6173, -6450, 9653
0.218968, -3537, 1672, 3914, -6173, -6450, 9653
0.219102, -3537, 1672, 3914, -6173, -6450, 9653
0.219236, -3537, 1672, 3914, -6173, -6450, 9653
0.219371, -3537, 1672, 3914, -6173, -6450, 9653
0.219505, -3537, 1672, 3914, -6173, -6450, 9653
0.219640, -3537, 1672, 3914, -6173, -6450, 9653
0.219774, -79, -45, 4701, -5100, -7466, 11021
0.219908, -79, -45, 4701, -5100, -7466, 11021
0.220043, -79, -45, 4701, -5100, -7466, 11021
0.220177, -79, -45, 4701, -5100, -7466, 11021
0.220312, -79, -45, 4701, -5100, -7466, 11021
0.220446, -79, -45, 4701, -5100, -7466, 11021
0.220580, -79, -45, 4701, -5100, -7466, 11021
0.220715, -79, -45, 4701, -5100, -7466, 11021
0.220849, 7489, -655, 3982, -3774, -8136, 9444
0.220984, 7489, -655, 3982, -3774, -8136, 9444
0.221118, 7489, -655, 3982, -3774, -8136, 9444
0.221253, 7489, -655, 3982, -3774, -8136, 9444
0.221387, 7489, -655, 3982, -3774, -8136, 9444
0.221521, 7489, -655, 3982, -3774, -8136, 9444
0.221656, 7489, -655, 3982, -3774, -8136, 9444
0.221790, 13501, 1124, 4028, -2301, -8203, 3051
0.221925, 13501, 1124, 4028, -2301, -8203, 3051
0.222059, 13501, 1124, 4028, -2301, -8203, 3051
0.222193, 13501, 1124, 4028, -2301, -8203, 3051
0.222328, 13501, 1124, 4028, -2301, -8203, 3051
0.222462, 13501, 1124, 4028, -2301, -8203, 3051
0.222597, 13501, 1124, 4028, -2301, -8203, 3051
0.222731, 13501, 1124, 4028, -2301, -8203, 3051
0.222866, 10825, 1695, 2339, -1257, -6125, -5639
0.223001, 10825, 1695, 2339, -1257, -6125, -5639
0.223135, 10825, 1695, 2339, -1257, -6125, -5639
0.223270, 10825, 1695, 2339, -1257, -6125, -5639
0.223404, 10825, 1695, 2339, -1257, -6125, -5639
0.223539, 10825, 1695, 2339, -1257, -6125, -5639
0.223673, 10825, 1695, 2339, -1257, -6125, -5639
0.223808, 2444, 897, 1350, -765, -1991, -10581
0.223943, 2444, 897, 1350, -765, -1991, -10581
0.224077, 2444, 897, 1350, -765, -1991, -10581
0.224212, 2444, 897, 1350, -765, -1991, -10581
0.224346, 2444, 897, 1350, -765, -1991, -10581
0.224480, 2444, 897, 1350, -765, -1991, -10581
0.224615, 2444, 897, 1350, -765, -1991, -10581
0.224749, 2444, 897, 1350, -765, -1991, -10581
0.224883, -787, 233, 1983, 358, 1591, -10726
0.225018, -787, 233, 1983, 358, 1591, -10726
0.225152, -787, 233, 1983, 358, 1591, -10726
0.225287, -787, 233, 1983, 358, 1591, -10726
0.225421, -787, 233, 1983, 358, 1591, -10726
0.225555, -787, 233, 1983, 358, 1591, -10726
0.225690, -787, 233, 1983, 358, 1591, -10726
0.225824, -683, 51, 1631, 1543, 3980, -9894
0.225959, -683, 51, 1631, 1543, 3980, -9894
0.226093, -683, 51, 1631, 1543, 3980, -9894
0.226227, -683, 51, 1631, 1543, 3980, -9894
0.226362, -683, 51, 1631, 1543, 3980, -9894
0.226496, -683, 51, 1631, 1543, 3980, -9894
0.226631, -683, 51, 1631, 1543, 3980, -9894
0.226765, -683, 51, 1631, 1543, 3980, -9894
0.226900, -2714, 70, 1510, 1634, 5535, -8805
0.227034, -2714, 70, 1510, 1634, 5535, -8805
0.227169, -2714, 70, 1510, 1634, 5535, -8805
0.227303, -2714, 70, 1510, 1634, 5535, -8805
0.227438, -2714, 70, 1510, 1634, 5535, -8805
0.227572, -2714, 70, 1510, 1634, 5535, -8805
0.227707, -2714, 70, 1510, 1634, 5535, -8805
0.227841, -5700, 47, 1545, 1114, 5755, -6201
0.227976, -5700, 47, 1545, 1114, 5755, -6201
0.228111, -5700, 47, 1545, 1114, 5755, -6201
0.228245, -5700, 47, 1545, 1114, 5755, -6201
0.228380, -5700, 47, 1545, 1114, 5755, -6201
0.228514, -5700, 47, 1545, 1114, 5755, -6201
0.228649, -5700, 47, 1545, 1114, 5755, -6201
0.228783, -5700, 47, 1545, 1114, 5755, -6201
0.228918, -8309, -71, 1332, 416, 4750, -1992
0.229052, -8309, -71, 1332, 416, 4750, -1992
0.229187, -8309, -71, 1332, 416, 4750, -1992
0.229321, -8309, -71, 1332, 416, 4750, -1992
0.229456, -8309, -71, 1332, 416, 4750, -1992
0.229591, -8309, -71, 1332, 416, 4750, -1992
0.229725, -8309, -71, 1332, 416, 4750, -1992
0.229860, -9407, -76, 2693, -31, 2702, 3413
0.229994, -9407, -76, 2693, -31, 2702, 3413
0.230129, -9407, -76, 2693, -31, 2702, 3413
0.230263, -9407, -76, 2693, -31, 2702, 3413
0.230402, -9407, -76, 2693, -31, 2702, 3413
0.230537, -9407, -76, 2693, -31, 2702, 3413
0.230671, -9407, -76, 2693, -31, 2702, 3413
0.230806, -9407, -76, 2693, -31, 2702, 3413
0.230941, -5758, 1011, 1868, -220, -499, 8596
0.231076, -5758, 1011, 1868, -220, -499, 8596
0.231210, -5758, 1011, 1868, -220, -499, 8596
0.231345, -5758, 1011, 1868, -220, -499, 8596
0.231479, -5758, 1011, 1868, -220, -499, 8596
0.231614, -5758, 1011, 1868, -220, -499, 8596
0.231748, -5758, 1011, 1868, -220, -499, 8596
0.231883, 3800, 1371, -2718, -2520, -4725, 9708
0.232018, 3800, 1371, -2718, -2520, -4725, 9708
0.232152, 3800, 1371, -2718, -2520, -4725, 9708
0.232287, 3800, 1371, -2718, -2520, -4725, 9708
0.232421, 3800, 1371, -2718, -2520, -4725, 9708
0.232556, 3800, 1371, -2718, -2520, -4725, 9708
0.232690, 3800, 1371, -2718, -2520, -4725, 9708
0.232825, 3800, 1371, -2718, -2520, -4725, 9708
0.232959, 8061, 1536, -4488, -7005, -8163, 5141
0.233094, 8061, 1536, -4488, -7005, -8163, 5141
0.233229, 8061, 1536, -4488, -7005, -8163, 5141
0.233363, 8061, 1536, -4488, -7005, -8163, 5141
0.233498, 8061, 1536, -4488, -7005, -8163, 5141
0.233632, 8061, 1536, -4488, -7005, -8163, 5141
0.233767, 8061, 1536, -4488, -7005, -8163, 5141
0.233901, 966, 1878, -1245, -10449, -8517, 1162
0.234036, 966, 1878, -1245, -10449, -8517, 1162
0.234171, 966, 1878, -1245, -10449, -8517, 1162
0.234305, 966, 1878, -1245, -10449, -8517, 1162
0.234440, 966, 1878, -1245, -10449, -8517, 1162
0.234575, 966, 1878, -1245, -10449, -8517, 1162
0.234714, 966, 1878, -1245, -10449, -8517, 1162
0.234849, 966, 1878, -1245, -10449, -8517, 1162
0.234984, -2157, -1823, 6480, -9835, -6600, 2008
0.235119, -2157, -1823, 6480, -9835, -6600, 2008
0.235253, -2157, -1823, 6480, -9835, -6600, 2008
0.235388, -2157, -1823, 6480, -9835, -6600, 2008
0.235522, -2157, -1823, 6480, -9835, -6600, 2008
0.235657, -2157, -1823, 6480, -9835, -6600, 2008
0.235791, -2157, -1823, 6480, -9835, -6600, 2008
0.235926, -3807, -2643, 11723, -3874, -3981, 4151
0.236061, -3807, -2643, 11723, -3874, -3981, 4151
0.236195, -3807, -2643, 11723, -3874, -3981, 4151
0.236330, -3807, -2643, 11723, -3874, -3981, 4151
0.236464, -3807, -2643, 11723, -3874, -3981, 4151
0.236599, -3807, -2643, 11723, -3874, -3981, 4151
0.236733, -3807, -2643, 11723, -3874, -3981, 4151
0.236868, -3807, -2643, 11723, -3874, -3981, 4151
0.237002, -8981, 986, 8145, 2646, -1440, 8332
0.237137, -8981, 986, 8145, 2646, -1440, 8332
0.237280, -8981, 986, 8145, 2646, -1440, 8332
0.237422, -8981, 986, 8145, 2646, -1440, 8332
0.237561, -8981, 986, 8145, 2646, -1440, 8332
0.237701, -8981, 986, 8145, 2646, -1440, 8332
0.237842, -8981, 986, 8145, 2646, -1440, 8332
0.237981, -2636, 1042, 3306, 5029, -1472, 13489
0.238125, -2636, 1042, 3306, 5029, -1472, 13489
0.238264, -2636, 1042, 3306, 5029, -1472, 13489
0.238406, -2636, 1042, 3306, 5029, -1472, 13489
0.238545, -2636, 1042, 3306, 5029, -1472, 13489
0.238684, -2636, 1042, 3306, 5029, -1472, 13489
0.238823, -2636, 1042, 3306, 5029, -1472, 13489
0.238962, -2636, 1042, 3306, 5029, -1472, 13489
0.239101, 9408, 769, 1728, 4511, -4089, 11901
0.239243, 9408, 769, 1728, 4511, -4089, 11901
0.239382, 9408, 769, 1728, 4511, -4089, 11901
0.239521, 9408, 769, 1728, 4511, -4089, 11901
0.239663, 9408, 769, 1728, 4511, -4089, 11901
0.239804, 9408, 769, 1728, 4511, -4089, 11901
0.239945, 9408, 769, 1728, 4511, -4089, 11901
0.240084, 11304, 1764, 1949, 3011, -5233, 4127
0.240230, 11304, 1764, 1949, 3011, -5233, 4127
0.240369, 11304, 1764, 1949, 3011, -5233, 4127
0.240508, 11304, 1764, 1949, 3011, -5233, 4127
0.240643, 11304, 1764, 1949, 3011, -5233, 4127
0.240782, 11304, 1764, 1949, 3011, -5233, 4127
0.240921, 11304, 1764, 1949, 3011, -5233, 4127
0.241060, 3428, 1487, 3071, 2446, -3386, -2126
0.241204, 3428, 1487, 3071, 2446, -3386, -2126
0.241343, 3428, 1487, 3071, 2446, -3386, -2126
0.241482, 3428, 1487, 3071, 2446, -3386, -2126
0.241622, 3428, 1487, 3071, 2446, -3386, -2126
0.241761, 3428, 1487, 3071, 2446, -3386, -2126
0.241900, 3428, 1487, 3071, 2446, -3386, -2126
0.242040, -3386, 506, 2061, 3302, -746, -2665
0.242181, -3386, 506, 2061, 3302, -746, -2665
0.242346, -3386, 506, 2061, 3302, -746, -2665
0.242494, -3386, 506, 2061, 3302, -746, -2665
0.242635, -3386, 506, 2061, 3302, -746, -2665
0.242776, -3386, 506, 2061, 3302, -746, -2665
0.242917, -3386, 506, 2061, 3302, -746, -2665
0.243058, -2836, -249, 277, 3843, 571, -272
0.243199, -2836, -249, 277, 3843, 571, -272
0.243340, -2836, -249, 277, 3843, 571, -272
0.243481, -2836, -249, 277, 3843, 571, -272
0.243623, -2836, -249, 277, 3843, 571, -272
0.243761, -2836, -249, 277, 3843, 571, -272
0.243902, -2836, -249, 277, 3843, 571, -272
0.244042, -769, 224, 612, 3411, 498, 930
0.244181, -769, 224, 612, 3411, 498, 930
0.244321, -769, 224, 612, 3411, 498, 930
0.244462, -769, 224, 612, 3411, 498, 930
0.244602, -769, 224, 612, 3411, 498, 930
0.244741, -769, 224, 612, 3411, 498, 930
0.244881, -769, 224, 612, 3411, 498, 930
0.245021, -769, 224, 612, 3411, 498, 930
0.245158, -1470, 1252, 1355, 2429, 159, 1483
0.245299, -1470, 1252, 1355, 2429, 159, 1483
0.245443, -1470, 1252, 1355, 2429, 159, 1483
0.245580, -1470, 1252, 1355, 2429, 159, 1483
0.245715, -1470, 1252, 1355, 2429, 159, 1483
0.245850, -1470, 1252, 1355, 2429, 159, 1483
0.245985, -1470, 1252, 1355, 2429, 159, 1483
0.246120, 399, 549, 1956, 1609, -307, 2128
0.246255, 399, 549, 1956, 1609, -307, 2128
0.246395, 399, 549, 1956, 1609, -307, 2128
0.246531, 399, 549, 1956, 1609, -307, 2128
0.246675, 399, 549, 1956, 1609, -307, 2128
0.246815, 399, 549, 1956, 1609, -307, 2128
0.246955, 399, 549, 1956, 1609, -307, 2128
0.247091, 3413, -176, 543, 924, -1168, 832
0.247223, 3413, -176, 543, 924, -1168, 832
0.247359, 3413, -176, 543, 924, -1168, 832
0.247493, 3413, -176, 543, 924, -1168, 832
0.247628, 3413, -176, 543, 924, -1168, 832
0.247763, 3413, -176, 543, 924, -1168, 832
0.247897, 3413, -176, 543, 924, -1168, 832
0.248031, 3413, -176, 543, 924, -1168, 832
0.248166, 96, 1134, -935, -650, -1547, -1231
0.248300, 96, 1134, -935, -650, -1547, -1231
0.248435, 96, 1134, -935, -650, -1547, -1231
0.248569, 96, 1134, -935, -650, -1547, -1231
0.248701, 96, 1134, -935, -650, -1547, -1231
0.248835, 96, 1134, -935, -650, -1547, -1231
0.248970, 96, 1134, -935, -650, -1547, -1231
0.249104, -3882, 1419, 1918, -1677, -1240, -274
0.249239, -3882, 1419, 1918, -1677, -1240, -274
0.249373, -3882, 1419, 1918, -1677, -1240, -274
0.249508, -3882, 1419, 1918, -1677, -1240, -274
0.249642, -3882, 1419, 1918, -1677, -1240, -274
0.249777, -3882, 1419, 1918, -1677, -1240, -274
0.249911, -3882, 1419, 1918, -1677, -1240, -274
0.250045, -3882, 1419, 1918, -1677, -1240, -274
0.250180, -3267, 519, 2867, -950, -1184, 2479
0.250314, -3267, 519, 2867, -950, -1184, 2479
0.250449, -3267, 519, 2867, -950, -1184, 2479
0.250583, -3267, 519, 2867, -950, -1184, 2479
0.250718, -3267, 519, 2867, -950, -1184, 2479
0.250855, -3267, 519, 2867, -950, -1184, 2479
0.250989, -3267, 519, 2867, -950, -1184, 2479
0.251123, -3267, 519, 2867, -950, -1184, 2479
0.251258, -2327, 275, 880, -695, -1537, 4373
0.251392, -2327, 275, 880, -695, -1537, 4373
0.251527, -2327, 275, 880, -695, -1537, 4373
0.251661, -2327, 275, 880, -695, -1537, 4373
0.251796, -2327, 275, 880, -695, -1537, 4373
0.251930, -2327, 275, 880, -695, -1537, 4373
0.252064, -2327, 275, 880, -695, -1537, 4373
0.252194, 845, -641, 2325, -1176, -2318, 5485
0.252329, 845, -641, 2325, -1176, -2318, 5485
0.252463, 845, -641, 2325, -1176, -2318, 5485
0.252598, 845, -641, 2325, -1176, -2318, 5485
0.252732, 845, -641, 2325, -1176, -2318, 5485
0.252867, 845, -641, 2325, -1176, -2318, 5485
0.253001, 845, -641, 2325, -1176, -2318, 5485
0.253130, 845, -641, 2325, -1176, -2318, 5485
0.253265, 6198, -866, 3986, -613, -3019, 4033
0.253395, 6198, -866, 3986, -613, -3019, 4033
0.253529, 6198, -866, 3986, -613, -3019, 4033
0.253663, 6198, -866, 3986, -613, -3019, 4033
0.253798, 6198, -866, 3986, -613, -3019, 4033
0.253932, 6198, -866, 3986, -613, -3019, 4033
0.254067, 6198, -866, 3986, -613, -3019, 4033
0.254201, 6764, 688, 2117, 212, -2401, -409
0.254336, 6764, 688, 2117, 212, -2401, -409
0.254470, 6764, 688, 2117, 212, -2401, -409
0.254604, 6764, 688, 2117, 212, -2401, -409
0.254775, 6764, 688, 2117, 212, -2401, -409
0.254915, 6764, 688, 2117, 212, -2401, -409
0.255050, 6764, 688, 2117, 212, -2401, -409
0.255184, 4600, 996, 1110, 246, -913, -4434
0.255319, 4600, 996, 1110, 246, -913, -4434
0.255453, 4600, 996, 1110, 246, -913, -4434
0.255588, 4600, 996, 1110, 246, -913, -4434
0.255722, 4600, 996, 1110, 246, -913, -4434
0.255856, 4600, 996, 1110, 246, -913, -4434
0.255991, 4600, 996, 1110, 246, -913, -4434
0.256125, 4600, 996, 1110, 246, -913, -4434
0.256259, 2169, 318, 2020, 748, 629, -6847
0.256394, 2169, 318, 2020, 748, 629, -6847
0.256528, 2169, 318, 2020, 748, 629, -6847
0.256663, 2169, 318, 2020, 748, 629, -6847
0.256797, 2169, 318, 2020, 748, 629, -6847
0.256931, 2169, 318, 2020, 748, 629, -6847
0.257066, 2169, 318, 2020, 748, 629, -6847
0.257200, 2169, 318, 2020, 748, 629, -6847
0.257334, -1652, 67, 1611, 1646, 2322, -7304
0.257469, -1652, 67, 1611, 1646, 2322, -7304
0.257604, -1652, 67, 1611, 1646, 2322, -7304
0.257738, -1652, 67, 1611, 1646, 2322, -7304
0.257872, -1652, 67, 1611, 1646, 2322, -7304
0.258007, -1652, 67, 1611, 1646, 2322, -7304
0.258141, -1652, 67, 1611, 1646, 2322, -7304
0.258275, -4353, 84, 386, 1585, 3326, -5342
0.258410, -4353, 84, 386, 1585, 3326, -5342
0.258544, -4353, 84, 386, 1585, 3326, -5342
0.258678, -4353, 84, 386, 1585, 3326, -5342
0.258813, -4353, 84, 386, 1585, 3326, -5342
0.258948, -4353, 84, 386, 1585, 3326, -5342
0.259082, -4353, 84, 386, 1585, 3326, -5342
0.259217, -4353, 84, 386, 1585, 3326, -5342
0.259351, -5336, 568, 410, 737, 2969, -2161
0.259486, -5336, 568, 410, 737, 2969, -2161
0.259620, -5336, 568, 410, 737, 2969, -2161
0.259754, -5336, 568, 410, 737, 2969, -2161
0.259889, -5336, 568, 410, 737, 2969, -2161
0.260023, -5336, 568, 410, 737, 2969, -2161
0.260157, -5336, 568, 410, 737, 2969, -2161
0.260292, -5241, 1145, 649, -300, 1888, 1265
0.260426, -5241, 1145, 649, -300, 1888, 1265
0.260561, -5241, 1145, 649, -300, 1888, 1265
0.260695, -5241, 1145, 649, -300, 1888, 1265
0.260829, -5241, 1145, 649, -300, 1888, 1265
0.260959, -5241, 1145, 649, -300, 1888, 1265
0.261096, -5241, 1145, 649, -300, 1888, 1265
0.261231, -5241, 1145, 649, -300, 1888, 1265
0.261365, -3415, 939, -264, -2034, 341, 4163
0.261500, -3415, 939, -264, -2034, 341, 4163
0.261634, -3415, 939, -264, -2034, 341, 4163
0.261768, -3415, 939, -264, -2034, 341, 4163
0.261903, -3415, 939, -264, -2034, 341, 4163
0.262037, -3415, 939, -264, -2034, 341, 4163
0.262171, -3415, 939, -264, -2034, 341, 4163
0.262301, -991, 130, 746, -4120, -1672, 5578
0.262435, -991, 130, 746, -4120, -1672, 5578
0.262570, -991, 130, 746, -4120, -1672, 5578
0.262704, -991, 130, 746, -4120, -1672, 5578
0.262839, -991, 130, 746, -4120, -1672, 5578
0.262974, -991, 130, 746, -4120, -1672, 5578
0.263108, -991, 130, 746, -4120, -1672, 5578
0.263243, -991, 130, 746, -4120, -1672, 5578
0.263377, -450, -112, 4409, -4344, -3290, 5761
0.263512, -450, -112, 4409, -4344, -3290, 5761
0.263646, -450, -112, 4409, -4344, -3290, 5761
0.263780, -450, -112, 4409, -4344, -3290, 5761
0.263915, -450, -112, 4409, -4344, -3290, 5761
0.264049, -450, -112, 4409, -4344, -3290, 5761
0.264184, -450, -112, 4409, -4344, -3290, 5761
0.264318, -334, 306, 6281, -2397, -3897, 5881
0.264452, -334, 306, 6281, -2397, -3897, 5881
0.264587, -334, 306, 6281, -2397, -3897, 5881
0.264721, -334, 306, 6281, -2397, -3897, 5881
0.264855, -334, 306, 6281, -2397, -3897, 5881
0.264990, -334, 306, 6281, -2397, -3897, 5881
0.265124, -334, 306, 6281, -2397, -3897, 5881
0.265258, -334, 306, 6281, -2397, -3897, 5881
0.265393, 645, 1383, 4626, -140, -3873, 5792
0.265527, 645, 1383, 4626, -140, -3873, 5792
0.265662, 645, 1383, 4626, -140, -3873, 5792
0.265796, 645, 1383, 4626, -140, -3873, 5792
0.265931, 645, 1383, 4626, -140, -3873, 5792
0.266065, 645, 1383, 4626, -140, -3873, 5792
0.266199, 645, 1383, 4626, -140, -3873, 5792
0.266334, 1851, 1693, 2397, 993, -3828, 4828
0.266468, 1851, 1693, 2397, 993, -3828, 4828
0.266602, 1851, 1693, 2397, 993, -3828, 4828
0.266737, 1851, 1693, 2397, 993, -3828, 4828
0.266871, 1851, 1693, 2397, 993, -3828, 4828
0.267006, 1851, 1693, 2397, 993, -3828, 4828
0.267149, 1851, 1693, 2397, 993, -3828, 4828
0.267284, 1851, 1693, 2397, 993, -3828, 4828
0.267418, 3571, 813, 2653, 1139, -3703, 3088
0.267553, 3571, 813, 2653, 1139, -3703, 3088
0.267687, 3571, 813, 2653, 1139, -3703, 3088
0.267822, 3571, 813, 2653, 1139, -3703, 3088
0.267956, 3571, 813, 2653, 1139, -3703, 3088
0.268091, 3571, 813, 2653, 1139, -3703, 3088
0.268225, 3571, 813, 2653, 1139, -3703, 3088
0.268359, 3571, 813, 2653, 1139, -3703, 3088
0.268494, 4949, 430, 4181, 1866, -2883, 519
0.268628, 4949, 430, 4181, 1866, -2883, 519
0.268763, 4949, 430, 4181, 1866, -2883, 519
0.268897, 4949, 430, 4181, 1866, -2883, 519
0.269031, 4949, 430, 4181, 1866, -2883, 519
0.269166, 4949, 430, 4181, 1866, -2883, 519
0.269300, 4949, 430, 4181, 1866, -2883, 519
0.269434, 3895, 819, 3593, 3350, -1100, -2542
0.269569, 3895, 819, 3593, 3350, -1100, -2542
0.269703, 3895, 819, 3593, 3350, -1100, -2542
0.269837, 3895, 819, 3593, 3350, -1100, -2542
0.269972, 3895, 819, 3593, 3350, -1100, -2542
0.270106, 3895, 819, 3593, 3350, -1100, -2542
0.270240, 3895, 819, 3593, 3350, -1100, -2542
0.270375, 3895, 819, 3593, 3350, -1100, -2542
0.270509, 1006, 646, 1529, 4207, 1056, -4416
0.270643, 1006, 646, 1529, 4207, 1056, -4416
0.270778, 1006, 646, 1529, 4207, 1056, -4416
0.270913, 1006, 646, 1529, 4207, 1056, -4416
0.271047, 1006, 646, 1529, 4207, 1056, -4416
0.271181, 1006, 646, 1529, 4207, 1056, -4416
0.271316, 1006, 646, 1529, 4207, 1056, -4416
0.271450, -488, -804, -88, 3823, 2442, -4593
0.271585, -488, -804, -88, 3823, 2442, -4593
0.271719, -488, -804, -88, 3823, 2442, -4593
0.271853, -488, -804, -88, 3823, 2442, -4593
0.271988, -488, -804, -88, 3823, 2442, -4593
0.272122, -488, -804, -88, 3823, 2442, -4593
0.272256, -488, -804, -88, 3823, 2442, -4593
0.272391, -488, -804, -88, 3823, 2442, -4593
0.272525, -1594, -1428, -1250, 2401, 2900, -4032
0.272660, -1594, -1428, -1250, 2401, 2900, -4032
0.272794, -1594, -1428, -1250, 2401, 2900, -4032
0.272929, -1594, -1428, -1250, 2401, 2900, -4032
0.273063, -1594, -1428, -1250, 2401, 2900, -4032
0.273197, -1594, -1428, -1250, 2401, 2900, -4032
0.273332, -1594, -1428, -1250, 2401, 2900, -4032
0.273466, -2972, -476, -1624, 270, 2750, -2669
0.273601, -2972, -476, -1624, 270, 2750, -2669
0.273735, -2972, -476, -1624, 270, 2750, -2669
0.273869, -2972, -476, -1624, 270, 2750, -2669
0.274004, -2972, -476, -1624, 270, 2750, -2669
0.274138, -2972, -476, -1624, 270, 2750, -2669
0.274272, -2972, -476, -1624, 270, 2750, -2669
0.274407, -2972, -476, -1624, 270, 2750, -2669
0.274541, -3239, 646, -1167, -2029, 1899, -841
0.274676, -3239, 646, -1167, -2029, 1899, -841
0.274810, -3239, 646, -1167, -2029, 1899, -841
0.274945, -3239, 646, -1167, -2029, 1899, -841
0.275080, -3239, 646, -1167, -2029, 1899, -841
0.275214, -3239, 646, -1167, -2029, 1899, -841
0.275349, -3239, 646, -1167, -2029, 1899, -841
0.275483, -3520, 1158, 39, -3833, 779, 1000
0.275618, -3520, 1158, 39, -3833, 779, 1000
0.275753, -3520, 1158, 39, -3833, 779, 1000
0.275887, -3520, 1158, 39, -3833, 779, 1000
0.276022, -3520, 1158, 39, -3833, 779, 1000
0.276156, -3520, 1158, 39, -3833, 779, 1000
0.276291, -3520, 1158, 39, -3833, 779, 1000
0.276425, -3520, 1158, 39, -3833, 779, 1000
0.276560, -3739, 1540, -170, -5380, -494, 3130
0.276695, -3739, 1540, -170, -5380, -494, 3130
0.276829, -3739, 1540, -170, -5380, -494, 3130
0.276964, -3739, 1540, -170, -5380, -494, 3130
0.277099, -3739, 1540, -170, -5380, -494, 3130
0.277233, -3739, 1540, -170, -5380, -494, 3130
0.277368, -3739, 1540, -170, -5380, -494, 3130
0.277502, -2197, 345, 2461, -6688, -2091, 5203
0.277637, -2197, 345, 2461, -6688, -2091, 5203
0.277771, -2197, 345, 2461, -6688, -2091, 5203
0.277906, -2197, 345, 2461, -6688, -2091, 5203
0.278041, -2197, 345, 2461, -6688, -2091, 5203
0.278175, -2197, 345, 2461, -6688, -2091, 5203
0.278310, -2197, 345, 2461, -6688, -2091, 5203
0.278445, -2197, 345, 2461, -6688, -2091, 5203
0.278579, -138, -956, 8351, -4810, -3418, 6247
0.278715, -138, -956, 8351, -4810, -3418, 6247
0.278849, -138, -956, 8351, -4810, -3418, 6247
0.278984, -138, -956, 8351, -4810, -3418, 6247
0.279118, -138, -956, 8351, -4810, -3418, 6247
0.279254, -138, -956, 8351, -4810, -3418, 6247
0.279390, -138, -956, 8351, -4810, -3418, 6247
0.279526, 1829, 710, 6037, -861, -3973, 5935
0.279661, 1829, 710, 6037, -861, -3973, 5935
0.279795, 1829, 710, 6037, -861, -3973, 5935
0.279930, 1829, 710, 6037, -861, -3973, 5935
0.280065, 1829, 710, 6037, -861, -3973, 5935
0.280199, 1829, 710, 6037, -861, -3973, 5935
0.280334, 1829, 710, 6037, -861, -3973, 5935
0.280468, 1829, 710, 6037, -861, -3973, 5935
0.280603, 5550, 1792, 2423, 437, -4097, 3867
0.280733, 5550, 1792, 2423, 437, -4097, 3867
0.280867, 5550, 1792, 2423, 437, -4097, 3867
0.281002, 5550, 1792, 2423, 437, -4097, 3867
0.281136, 5550, 1792, 2423, 437, -4097, 3867
0.281271, 5550, 1792, 2423, 437, -4097, 3867
0.281405, 5550, 1792, 2423, 437, -4097, 3867
0.281540, 6350, 1404, 4016, 1067, -3676, -189
0.281675, 6350, 1404, 4016, 1067, -3676, -189
0.281809, 6350, 1404, 4016, 1067, -3676, -189
0.281944, 6350, 1404, 4016, 1067, -3676, -189
0.282078, 6350, 1404, 4016, 1067, -3676, -189
0.282213, 6350, 1404, 4016, 1067, -3676, -189
0.282347, 6350, 1404, 4016, 1067, -3676, -189
0.282482, 6350, 1404, 4016, 1067, -3676, -189
0.282616, 3339, 614, 2459, 2390, -1807, -3619
0.282752, 3339, 614, 2459, 2390, -1807, -3619
0.282887, 3339, 614, 2459, 2390, -1807, -3619
0.283021, 3339, 614, 2459, 2390, -1807, -3619
0.283156, 3339, 614, 2459, 2390, -1807, -3619
0.283290, 3339, 614, 2459, 2390, -1807, -3619
0.283425, 3339, 614, 2459, 2390, -1807, -3619
0.283559, 3339, 614, 2459, 2390, -1807, -3619
0.283694, 1263, 69, 366, 2424, 643, -5043
0.283829, 1263, 69, 366, 2424, 643, -5043
0.283963, 1263, 69, 366, 2424, 643, -5043
0.284098, 1263, 69, 366, 2424, 643, -5043
0.284232, 1263, 69, 366, 2424, 643, -5043
0.284367, 1263, 69, 366, 2424, 643, -5043
0.284501, 1263, 69, 366, 2424, 643, -5043
0.284636, -1354, 574, 1453, 2188, 2364, -5142
0.284770, -1354, 574, 1453, 2188, 2364, -5142
0.284905, -1354, 574, 1453, 2188, 2364, -5142
0.285040, -1354, 574, 1453, 2188, 2364, -5142
0.285174, -1354, 574, 1453, 2188, 2364, -5142
0.285309, -1354, 574, 1453, 2188, 2364, -5142
0.285443, -1354, 574, 1453, 2188, 2364, -5142
0.285578, -1354, 574, 1453, 2188, 2364, -5142
0.285712, -3227, 661, 2920, 2642, 3774, -3584
0.285847, -3227, 661, 2920, 2642, 3774, -3584
0.285982, -3227, 661, 2920, 2642, 3774, -3584
0.286116, -3227, 661, 2920, 2642, 3774, -3584
0.286251, -3227, 661, 2920, 2642, 3774, -3584
0.286385, -3227, 661, 2920, 2642, 3774, -3584
0.286520, -3227, 661, 2920, 2642, 3774, -3584
0.286654, -2430, 573, 3220, 3155, 4558, -1601
0.286790, -2430, 573, 3220, 3155, 4558, -1601
0.286924, -2430, 573, 3220, 3155, 4558, -1601
0.287059, -2430, 573, 3220, 3155, 4558, -1601
0.287193, -2430, 573, 3220, 3155, 4558, -1601
0.287328, -2430, 573, 3220, 3155, 4558, -1601
0.287462, -2430, 573, 3220, 3155, 4558, -1601
0.287597, -2430, 573, 3220, 3155, 4558, -1601
0.287731, -3147, 712, 2515, 3211, 4154, -232
0.287866, -3147, 712, 2515, 3211, 4154, -232
0.288001, -3147, 712, 2515, 3211, 4154, -232
0.288135, -3147, 712, 2515, 3211, 4154, -232
0.288270, -3147, 712, 2515, 3211, 4154, -232
0.288405, -3147, 712, 2515, 3211, 4154, -232
0.288539, -3147, 712, 2515, 3211, 4154, -232
0.288674, -5208, 258, 1436, 2633, 2819, 1894
0.288808, -5208, 258, 1436, 2633, 2819, 1894
0.288943, -5208, 258, 1436, 2633, 2819, 1894
0.289077, -5208, 258, 1436, 2633, 2819, 1894
0.289212, -5208, 258, 1436, 2633, 2819, 1894
0.289346, -5208, 258, 1436, 2633, 2819, 1894
0.289481, -5208, 258, 1436, 2633, 2819, 1894
0.289615, -5208, 258, 1436, 2633, 2819, 1894
0.289750, -3631, -495, 556, 1408, 366, 4560
0.289885, -3631, -495, 556, 1408, 366, 4560
0.290019, -3631, -495, 556, 1408, 366, 4560
0.290154, -3631, -495, 556, 1408, 366, 4560
0.290289, -3631, -495, 556, 1408, 366, 4560
0.290423, -3631, -495, 556, 1408, 366, 4560
0.290558, -3631, -495, 556, 1408, 366, 4560
0.290692, -309, 34, 109, -243, -2629, 5567
0.290827, -309, 34, 109, -243, -2629, 5567
0.290962, -309, 34, 109, -243, -2629, 5567
0.291096, -309, 34, 109, -243, -2629, 5567
0.291238, -309, 34, 109, -243, -2629, 5567
0.291373, -309, 34, 109, -243, -2629, 5567
0.291508, -309, 34, 109, -243, -2629, 5567
0.291642, -309, 34, 109, -243, -2629, 5567
0.291777, 1525, 995, 396, -1970, -4814, 4713
0.291911, 1525, 995, 396, -1970, -4814, 4713
0.292046, 1525, 995, 396, -1970, -4814, 4713
0.292180, 1525, 995, 396, -1970, -4814, 4713
0.292315, 1525, 995, 396, -1970, -4814, 4713
0.292450, 1525, 995, 396, -1970, -4814, 4713
0.292584, 1525, 995, 396, -1970, -4814, 4713
0.292719, 2077, 1134, 2687, -2638, -5497, 3179
0.292853, 2077, 1134, 2687, -2638, -5497, 3179
0.292988, 2077, 1134, 2687, -2638, -5497, 3179
0.293122, 2077, 1134, 2687, -2638, -5497, 3179
0.293257, 2077, 1134, 2687, -2638, -5497, 3179
0.293391, 2077, 1134, 2687, -2638, -5497, 3179
0.293526, 2077, 1134, 2687, -2638, -5497, 3179
0.293660, 2077, 1134, 2687, -2638, -5497, 3179
0.293795, 72, 457, 3248, -1792, -4519, 2144
0.293930, 72, 457, 3248, -1792, -4519, 2144
0.294064, 72, 457, 3248, -1792, -4519, 2144
0.294199, 72, 457, 3248, -1792, -4519, 2144
0.294334, 72, 457, 3248, -1792, -4519, 2144
0.294468, 72, 457, 3248, -1792, -4519, 2144
0.294603, 72, 457, 3248, -1792, -4519, 2144
0.294738, -2494, -1052, 963, -1316, -2743, 3058
0.294873, -2494, -1052, 963, -1316, -2743, 3058
0.295007, -2494, -1052, 963, -1316, -2743, 3058
0.295143, -2494, -1052, 963, -1316, -2743, 3058
0.295277, -2494, -1052, 963, -1316, -2743, 3058
0.295412, -2494, -1052, 963, -1316, -2743, 3058
0.295546, -2494, -1052, 963, -1316, -2743, 3058
0.295681, -2494, -1052, 963, -1316, -2743, 3058
0.295815, -1672, -386, 945, -1494, -1870, 5056
0.295950, -1672, -386, 945, -1494, -1870, 5056
0.296085, -1672, -386, 945, -1494, -1870, 5056
0.296219, -1672, -386, 945, -1494, -1870, 5056
0.296354, -1672, -386, 945, -1494, -1870, 5056
0.296489, -1672, -386, 945, -1494, -1870, 5056
0.296623, -1672, -386, 945, -1494, -1870, 5056
0.296759, 1209, 1480, 2221, -1532, -1894, 5589
0.296894, 1209, 1480, 2221, -1532, -1894, 5589
0.297029, 1209, 1480, 2221, -1532, -1894, 5589
0.297163, 1209, 1480, 2221, -1532, -1894, 5589
0.297298, 1209, 1480, 2221, -1532, -1894, 5589
0.297432, 1209, 1480, 2221, -1532, -1894, 5589
0.297567, 1209, 1480, 2221, -1532, -1894, 5589
0.297701, 1209, 1480, 2221, -1532, -1894, 5589
0.297836, 2667, 957, 3488, -1448, -1366, 4369
0.297971, 2667, 957, 3488, -1448, -1366, 4369
0.298105, 2667, 957, 3488, -1448, -1366, 4369
0.298240, 2667, 957, 3488, -1448, -1366, 4369
0.298374, 2667, 957, 3488, -1448, -1366, 4369
0.298509, 2667, 957, 3488, -1448, -1366, 4369
0.298643, 2667, 957, 3488, -1448, -1366, 4369
0.298779, 2410, 532, 3888, -627, -494, 2626
0.298913, 2410, 532, 3888, -627, -494, 2626
0.299048, 2410, 532, 3888, -627, -494, 2626
0.299182, 2410, 532, 3888, -627, -494, 2626
0.299317, 2410, 532, 3888, -627, -494, 2626
0.299451, 2410, 532, 3888, -627, -494, 2626
0.299586, 2410, 532, 3888, -627, -494, 2626
0.299720, 2410, 532, 3888, -627, -494, 2626
0.299855, 678, 977, 2456, 228, 77, 1292
0.299990, 678, 977, 2456, 228, 77, 1292
0.300124, 678, 977, 2456, 228, 77, 1292
0.300259, 678, 977, 2456, 228, 77, 1292
0.300393, 678, 977, 2456, 228, 77, 1292
0.300528, 678, 977, 2456, 228, 77, 1292
0.300662, 678, 977, 2456, 228, 77, 1292
0.300797, -786, 646, 1797, 399, 375, 1213
0.300931, -786, 646, 1797, 399, 375, 1213
0.301066, -786, 646, 1797, 399, 375, 1213
0.301201, -786, 646, 1797, 399, 375, 1213
0.301335, -786, 646, 1797, 399, 375, 1213
0.301470, -786, 646, 1797, 399, 375, 1213
0.301604, -786, 646, 1797, 399, 375, 1213
0.301739, -786, 646, 1797, 399, 375, 1213
0.301873, 1557, 506, 1779, 334, -99, 1274
0.302008, 1557, 506, 1779, 334, -99, 1274
0.302143, 1557, 506, 1779, 334, -99, 1274
0.302277, 1557, 506, 1779, 334, -99, 1274
0.302412, 1557, 506, 1779, 334, -99, 1274
0.302547, 1557, 506, 1779, 334, -99, 1274
0.302681, 1557, 506, 1779, 334, -99, 1274
0.302816, 1557, 506, 1779, 334, -99, 1274
0.302950, 4530, 935, 1909, 170, -754, -735
0.303085, 4530, 935, 1909, 170, -754, -735
0.303220, 4530, 935, 1909, 170, -754, -735
0.303354, 4530, 935, 1909, 170, -754, -735
0.303489, 4530, 935, 1909, 170, -754, -735
0.303633, 4530, 935, 1909, 170, -754, -735
0.303769, 4530, 935, 1909, 170, -754, -735
0.303904, 2575, 1299, 2349, 169, -306, -3601
0.304038, 2575, 1299, 2349, 169, -306, -3601
0.304173, 2575, 1299, 2349, 169, -306, -3601
0.304308, 2575, 1299, 2349, 169, -306, -3601
0.304442, 2575, 1299, 2349, 169, -306, -3601
0.304577, 2575, 1299, 2349, 169, -306, -3601
0.304711, 2575, 1299, 2349, 169, -306, -3601
0.304846, 2575, 1299, 2349, 169, -306, -3601
0.304980, -966, 914, 2104, 453, 1005, -4379
0.305115, -966, 914, 2104, 453, 1005, -4379
0.305249, -966, 914, 2104, 453, 1005, -4379
0.305384, -966, 914, 2104, 453, 1005, -4379
0.305519, -966, 914, 2104, 453, 1005, -4379
0.305653, -966, 914, 2104, 453, 1005, -4379
0.305788, -966, 914, 2104, 453, 1005, -4379
0.305922, -946, 476, 1484, 667, 1900, -3484
0.306057, -946, 476, 1484, 667, 1900, -3484
0.306191, -946, 476, 1484, 667, 1900, -3484
0.306326, -946, 476, 1484, 667, 1900, -3484
0.306460, -946, 476, 1484, 667, 1900, -3484
0.306595, -946, 476, 1484, 667, 1900, -3484
0.306730, -946, 476, 1484, 667, 1900, -3484
0.306864, -946, 476, 1484, 667, 1900, -3484
0.306999, -23, 734, 1129, 468, 1935, -3123
0.307133, -23, 734, 1129, 468, 1935, -3123
0.307268, -23, 734, 1129, 468, 1935, -3123
0.307402, -23, 734, 1129, 468, 1935, -3123
0.307537, -23, 734, 1129, 468, 1935, -3123
0.307671, -23, 734, 1129, 468, 1935, -3123
0.307806, -23, 734, 1129, 468, 1935, -3123
0.307940, -1756, 523, 1208, -99, 1844, -2851
0.308075, -1756, 523, 1208, -99, 1844, -2851
0.308209, -1756, 523, 1208, -99, 1844, -2851
0.308344, -1756, 523, 1208, -99, 1844, -2851
0.308479, -1756, 523, 1208, -99, 1844, -2851
0.308613, -1756, 523, 1208, -99, 1844, -2851
0.308748, -1756, 523, 1208, -99, 1844, -2851
0.308882, -1756, 523, 1208, -99, 1844, -2851
0.309017, -3734, -72, 1671, -612, 1756, -1252
0.309151, -3734, -72, 1671, -612, 1756, -1252
0.309286, -3734, -72, 1671, -612, 1756, -1252
0.309420, -3734, -72, 1671, -612, 1756, -1252
0.309555, -3734, -72, 1671, -612, 1756, -1252
0.309690, -3734, -72, 1671, -612, 1756, -1252
0.309824, -3734, -72, 1671, -612, 1756, -1252
0.309958, -4993, 736, 1798, -840, 1316, 1394
0.310093, -4993, 736, 1798, -840, 1316, 1394
0.310228, -4993, 736, 1798, -840, 1316, 1394
0.310362, -4993, 736, 1798, -840, 1316, 1394
0.310497, -4993, 736, 1798, -840, 1316, 1394
0.310631, -4993, 736, 1798, -840, 1316, 1394
0.310766, -4993, 736, 1798, -840, 1316, 1394
0.310901, -4993, 736, 1798, -840, 1316, 1394
0.311035, -2716, 827, 2327, -1082, 404, 4335
0.311170, -2716, 827, 2327, -1082, 404, 4335
0.311304, -2716, 827, 2327, -1082, 404, 4335
0.311439, -2716, 827, 2327, -1082, 404, 4335
0.311573, -2716, 827, 2327, -1082, 404, 4335
0.311708, -2716, 827, 2327, -1082, 404, 4335
0.311842, -2716, 827, 2327, -1082, 404, 4335
0.311977, 5208, -986, 4085, -913, -1186, 4307
0.312112, 5208, -986, 4085, -913, -1186, 4307
0.312246, 5208, -986, 4085, -913, -1186, 4307
0.312381, 5208, -986, 4085, -913, -1186, 4307
0.312515, 5208, -986, 4085, -913, -1186, 4307
0.312650, 5208, -986, 4085, -913, -1186, 4307
0.312784, 5208, -986, 4085, -913, -1186, 4307
0.312919, 5208, -986, 4085, -913, -1186, 4307
0.313053, 6511, -389, 3563, 54, -2088, -145
0.313188, 6511, -389, 3563, 54, -2088, -145
0.313323, 6511, -389, 3563, 54, -2088, -145
0.313457, 6511, -389, 3563, 54, -2088, -145
0.313592, 6511, -389, 3563, 54, -2088, -145
0.313727, 6511, -389, 3563, 54, -2088, -145
0.313861, 6511, -389, 3563, 54, -2088, -145
0.313996, 1265, 438, 866, 347, -1231, -3302
0.314130, 1265, 438, 866, 347, -1231, -3302
0.314265, 1265, 438, 866, 347, -1231, -3302
0.314399, 1265, 438, 866, 347, -1231, -3302
0.314534, 1265, 438, 866, 347, -1231, -3302
0.314669, 1265, 438, 866, 347, -1231, -3302
0.314803, 1265, 438, 866, 347, -1231, -3302
0.314938, 1265, 438, 866, 347, -1231, -3302
0.315073, 1398, -520, 579, -58, -234, -3874
0.315207, 1398, -520, 579, -58, -234, -3874
0.315342, 1398, -520, 579, -58, -234, -3874
0.315477, 1398, -520, 579, -58, -234, -3874
0.315611, 1398, -520, 579, -58, -234, -3874
0.315746, 1398, -520, 579, -58, -234, -3874
0.315880, 1398, -520, 579, -58, -234, -3874
0.316019, 642, 97, 1657, 254, 632, -4958
0.316154, 642, 97, 1657, 254, 632, -4958
0.316289, 642, 97, 1657, 254, 632, -4958
0.316423, 642, 97, 1657, 254, 632, -4958
0.316558, 642, 97, 1657, 254, 632, -4958
0.316693, 642, 97, 1657, 254, 632, -4958
0.316827, 642, 97, 1657, 254, 632, -4958
0.316962, 642, 97, 1657, 254, 632, -4958
0.317096, -5006, 712, 2172, 726, 2186, -4149
0.317231, -5006, 712, 2172, 726, 2186, -4149
0.317366, -5006, 712, 2172, 726, 2186, -4149
0.317500, -5006, 712, 2172, 726, 2186, -4149
0.317635, -5006, 712, 2172, 726, 2186, -4149
0.317769, -5006, 712, 2172, 726, 2186, -4149
0.317904, -5006, 712, 2172, 726, 2186, -4149
0.318038, -5846, 213, 3949, 1246, 3221, -102
0.318173, -5846, 213, 3949, 1246, 3221, -102
0.318308, -5846, 213, 3949, 1246, 3221, -102
0.318442, -5846, 213, 3949, 1246, 3221, -102
0.318577, -5846, 213, 3949, 1246, 3221, -102
0.318716, -5846, 213, 3949, 1246, 3221, -102
0.318850, -5846, 213, 3949, 1246, 3221, -102
0.318984, -5846, 213, 3949, 1246, 3221, -102
0.319118, -1115, 359, 5247, 2671, 2782, 2851
0.319252, -1115, 359, 5247, 2671, 2782, 2851
0.319386, -1115, 359, 5247, 2671, 2782, 2851
0.319521, -1115, 359, 5247, 2671, 2782, 2851
0.319655, -1115, 359, 5247, 2671, 2782, 2851
0.319789, -1115, 359, 5247, 2671, 2782, 2851
0.319924, -1115, 359, 5247, 2671, 2782, 2851
0.320058, 763, 879, 3533, 3755, 1750, 2587
0.320192, 763, 879, 3533, 3755, 1750, 2587
0.320327, 763, 879, 3533, 3755, 1750, 2587
0.320461, 763, 879, 3533, 3755, 1750, 2587
0.320596, 763, 879, 3533, 3755, 1750, 2587
0.320730, 763, 879, 3533, 3755, 1750, 2587
0.320864, 763, 879, 3533, 3755, 1750, 2587
0.320998, 763, 879, 3533, 3755, 1750, 2587
0.321133, -914, 1175, 2347, 3479, 705, 1873
0.321267, -914, 1175, 2347, 3479, 705, 1873
0.321402, -914, 1175, 2347, 3479, 705, 1873
0.321536, -914, 1175, 2347, 3479, 705, 1873
0.321670, -914, 1175, 2347, 3479, 705, 1873
0.321805, -914, 1175, 2347, 3479, 705, 1873
0.321939, -914, 1175, 2347, 3479, 705, 1873
0.322074, -914, 1175, 2347, 3479, 705, 1873
0.322208, -4036, 1570, 2933, 3361, -276, 2783
0.322342, -4036, 1570, 2933, 3361, -276, 2783
0.322477, -4036, 1570, 2933, 3361, -276, 2783
0.322611, -4036, 1570, 2933, 3361, -276, 2783
0.322746, -4036, 1570, 2933, 3361, -276, 2783
0.322881, -4036, 1570, 2933, 3361, -276, 2783
0.323015, -4036, 1570, 2933, 3361, -276, 2783
0.323150, -4975, 1190, 4231, 4287, -1047, 5347
0.323284, -4975, 1190, 4231, 4287, -1047, 5347
0.323419, -4975, 1190, 4231, 4287, -1047, 5347
0.323553, -4975, 1190, 4231, 4287, -1047, 5347
0.323688, -4975, 1190, 4231, 4287, -1047, 5347
0.323822, -4975, 1190, 4231, 4287, -1047, 5347
0.323956, -4975, 1190, 4231, 4287, -1047, 5347
0.324091, -4975, 1190, 4231, 4287, -1047, 5347
0.324225, -4627, 2540, 4015, 5561, -1814, 8232
0.324360, -4627, 2540, 4015, 5561, -1814, 8232
0.324494, -4627, 2540, 4015, 5561, -1814, 8232
0.324629, -4627, 2540, 4015, 5561, -1814, 8232
0.324763, -4627, 2540, 4015, 5561, -1814, 8232
0.324898, -4627, 2540, 4015, 5561, -1814, 8232
0.325032, -4627, 2540, 4015, 5561, -1814, 8232
0.325167, -5340, 3814, 1977, 5837, -2524, 11248
0.325301, -5340, 3814, 1977, 5837, -2524, 11248
0.325436, -5340, 3814, 1977, 5837, -2524, 11248
0.325570, -5340, 3814, 1977, 5837, -2524, 11248
0.325704, -5340, 3814, 1977, 5837, -2524, 11248
0.325839, -5340, 3814, 1977, 5837, -2524, 11248
0.325973, -5340, 3814, 1977, 5837, -2524, 11248
0.326108, -5340, 3814, 1977, 5837, -2524, 11248
0.326242, -1514, 392, 655, 4504, -3695, 13728
0.326377, -1514, 392, 655, 4504, -3695, 13728
0.326511, -1514, 392, 655, 4504, -3695, 13728
0.326646, -1514, 392, 655, 4504, -3695, 13728
0.326781, -1514, 392, 655, 4504, -3695, 13728
0.326915, -1514, 392, 655, 4504, -3695, 13728
0.327049, -1514, 392, 655, 4504, -3695, 13728
0.327184, 2149, -1513, -1672, 1997, -5345, 13564
0.327318, 2149, -1513, -1672, 1997, -5345, 13564
0.327453, 2149, -1513, -1672, 1997, -5345, 13564
0.327587, 2149, -1513, -1672, 1997, -5345, 13564
0.327722, 2149, -1513, -1672, 1997, -5345, 13564
0.327856, 2149, -1513, -1672, 1997, -5345, 13564
0.327991, 2149, -1513, -1672, 1997, -5345, 13564
0.328130, 2149, -1513, -1672, 1997, -5345, 13564
0.328265, 5420, -1324, -2399, -1265, -6658, 11263
0.328400, 5420, -1324, -2399, -1265, -6658, 11263
0.328534, 5420, -1324, -2399, -1265, -6658, 11263
0.328669, 5420, -1324, -2399, -1265, -6658, 11263
0.328803, 5420, -1324, -2399, -1265, -6658, 11263
0.328937, 5420, -1324, -2399, -1265, -6658, 11263
0.329072, 5420, -1324, -2399, -1265, -6658, 11263
0.329206, 9483, -1392, 124, -3635, -6752, 6616
0.329341, 9483, -1392, 124, -3635, -6752, 6616
0.329476, 9483, -1392, 124, -3635, -6752, 6616
0.329610, 9483, -1392, 124, -3635, -6752, 6616
0.329744, 9483, -1392, 124, -3635, -6752, 6616
0.329879, 9483, -1392, 124, -3635, -6752, 6616
0.330013, 9483, -1392, 124, -3635, -6752, 6616
0.330148, 9483, -1392, 124, -3635, -6752, 6616
0.330282, 6975, 396, 2978, -3496, -4517, 781
0.330417, 6975, 396, 2978, -3496, -4517, 781
0.330552, 6975, 396, 2978, -3496, -4517, 781
0.330686, 6975, 396, 2978, -3496, -4517, 781
0.330821, 6975, 396, 2978, -3496, -4517, 781
0.330956, 6975, 396, 2978, -3496, -4517, 781
0.331090, 6975, 396, 2978, -3496, -4517, 781
0.331225, 3315, 1037, 4120, -1452, -1008, -2799
0.331360, 3315, 1037, 4120, -1452, -1008, -2799
0.331494, 3315, 1037, 4120, -1452, -1008, -2799
0.331629, 3315, 1037, 4120, -1452, -1008, -2799
0.331763, 3315, 1037, 4120, -1452, -1008, -2799
0.331898, 3315, 1037, 4120, -1452, -1008, -2799
0.332033, 3315, 1037, 4120, -1452, -1008, -2799
0.332167, 3315, 1037, 4120, -1452, -1008, -2799
0.332302, 1124, 621, 2987, 740, 1859, -4296
0.332437, 1124, 621, 2987, 740, 1859, -4296
0.332571, 1124, 621, 2987, 740, 1859, -4296
0.332701, 1124, 621, 2987, 740, 1859, -4296
0.332835, 1124, 621, 2987, 740, 1859, -4296
0.332970, 1124, 621, 2987, 740, 1859, -4296
0.333105, 1124, 621, 2987, 740, 1859, -4296
0.333239, -2435, 464, 2421, 2130, 3576, -4007
0.333374, -2435, 464, 2421, 2130, 3576, -4007
0.333509, -2435, 464, 2421, 2130, 3576, -4007
0.333643, -2435, 464, 2421, 2130, 3576, -4007
0.333778, -2435, 464, 2421, 2130, 3576, -4007
0.333912, -2435, 464, 2421, 2130, 3576, -4007
0.334047, -2435, 464, 2421, 2130, 3576, -4007
0.334181, -2435, 464, 2421, 2130, 3576, -4007
0.334316, -2541, -395, 2918, 3000, 3931, -1909
0.334451, -2541, -395, 2918, 3000, 3931, -1909
0.334585, -2541, -395, 2918, 3000, 3931, -1909
0.334720, -2541, -395, 2918, 3000, 3931, -1909
0.334855, -2541, -395, 2918, 3000, 3931, -1909
0.334990, -2541, -395, 2918, 3000, 3931, -1909
0.335124, -2541, -395, 2918, 3000, 3931, -1909
0.335259, -2541, -395, 2918, 3000, 3931, -1909
0.335393, 1206, -385, 1166, 3184, 3132, -952
0.335528, 1206, -385, 1166, 3184, 3132, -952
0.335663, 1206, -385, 1166, 3184, 3132, -952
0.335797, 1206, -385, 1166, 3184, 3132, -952
0.335932, 1206, -385, 1166, 3184, 3132, -952
0.336066, 1206, -385, 1166, 3184, 3132, -952
0.336201, 1206, -385, 1166, 3184, 3132, -952
0.336335, 3324, 467, -1681, 1575, 2020, -2520
0.336470, 3324, 467, -1681, 1575, 2020, -2520
0.336605, 3324, 467, -1681, 1575, 2020, -2520
0.336739, 3324, 467, -1681, 1575, 2020, -2520
0.336874, 3324, 467, -1681, 1575, 2020, -2520
0.337008, 3324, 467, -1681, 1575, 2020, -2520
0.337143, 3324, 467, -1681, 1575, 2020, -2520
0.337278, 3324, 467, -1681, 1575, 2020, -2520
0.337412, 1693, 756, -1045, -941, 1362, -4605
0.337547, 1693, 756, -1045, -941, 1362, -4605
0.337682, 1693, 756, -1045, -941, 1362, -4605
0.337816, 1693, 756, -1045, -941, 1362, -4605
0.337951, 1693, 756, -1045, -941, 1362, -4605
0.338085, 1693, 756, -1045, -941, 1362, -4605
0.338220, 1693, 756, -1045, -941, 1362, -4605
0.338354, -1396, 583, 1154, -2187, 1458, -5008
0.338489, -1396, 583, 1154, -2187, 1458, -5008
0.338624, -1396, 583, 1154, -2187, 1458, -5008
0.338759, -1396, 583, 1154, -2187, 1458, -5008
0.338894, -1396, 583, 1154, -2187, 1458, -5008
0.339028, -1396, 583, 1154, -2187, 1458, -5008
0.339163, -1396, 583, 1154, -2187, 1458, -5008
0.339297, -1396, 583, 1154, -2187, 1458, -5008
0.339432, -2801, 427, 2475, -2005, 1896, -3486
0.339566, -2801, 427, 2475, -2005, 1896, -3486
0.339701, -2801, 427, 2475, -2005, 1896, -3486
0.339836, -2801, 427, 2475, -2005, 1896, -3486
0.339974, -2801, 427, 2475, -2005, 1896, -3486
0.340109, -2801, 427, 2475, -2005, 1896, -3486
0.340244, -2801, 427, 2475, -2005, 1896, -3486
0.340378, -1251, 384, 3051, -1121, 1788, -1799
0.340513, -1251, 384, 3051, -1121, 1788, -1799
0.340647, -1251, 384, 3051, -1121, 1788, -1799
0.340782, -1251, 384, 3051, -1121, 1788, -1799
0.340917, -1251, 384, 3051, -1121, 1788, -1799
0.341051, -1251, 384, 3051, -1121, 1788, -1799
0.341186, -1251, 384, 3051, -1121, 1788, -1799
0.341321, -1251, 384, 3051, -1121, 1788, -1799
0.341455, -223, 657, 1450, -663, 1123, -1379
0.341590, -223, 657, 1450, -663, 1123, -1379
0.341724, -223, 657, 1450, -663, 1123, -1379
0.341859, -223, 657, 1450, -663, 1123, -1379
0.341994, -223, 657, 1450, -663, 1123, -1379
0.342128, -223, 657, 1450, -663, 1123, -1379
0.342263, -223, 657, 1450, -663, 1123, -1379
0.342397, -3877, 864, 367, -1500, 738, -730
0.342532, -3877, 864, 367, -1500, 738, -730
0.342667, -3877, 864, 367, -1500, 738, -730
0.342802, -3877, 864, 367, -1500, 738, -730
0.342936, -3877, 864, 367, -1500, 738, -730
0.343071, -3877, 864, 367, -1500, 738, -730
0.343206, -3877, 864, 367, -1500, 738, -730
0.343340, -3877, 864, 367, -1500, 738, -730
0.343475, -6486, 61, 1028, -2615, 366, 2541
0.343610, -6486, 61, 1028, -2615, 366, 2541
0.343744, -6486, 61, 1028, -2615, 366, 2541
0.343879, -6486, 61, 1028, -2615, 366, 2541
0.344013, -6486, 61, 1028, -2615, 366, 2541
0.344148, -6486, 61, 1028, -2615, 366, 2541
0.344282, -6486, 61, 1028, -2615, 366, 2541
0.344417, -2698, -358, 2361, -3256, -935, 6045
0.344552, -2698, -358, 2361, -3256, -935, 6045
0.344686, -2698, -358, 2361, -3256, -935, 6045
0.344821, -2698, -358, 2361, -3256, -935, 6045
0.344955, -2698, -358, 2361, -3256, -935, 6045
0.345090, -2698, -358, 2361, -3256, -935, 6045
0.345225, -2698, -358, 2361, -3256, -935, 6045
0.345359, -2698, -358, 2361, -3256, -935, 6045
0.345494, -168, 910, 5493, -2658, -2266, 6647
0.345629, -168, 910, 5493, -2658, -2266, 6647
0.345763, -168, 910, 5493, -2658, -2266, 6647
0.345898, -168, 910, 5493, -2658, -2266, 6647
0.346032, -168, 910, 5493, -2658, -2266, 6647
0.346167, -168, 910, 5493, -2658, -2266, 6647
0.346302, -168, 910, 5493, -2658, -2266, 6647
0.346436, -1740, 1741, 5895, -652, -2361, 6713
0.346571, -1740, 1741, 5895, -652, -2361, 6713
0.346705, -1740, 1741, 5895, -652, -2361, 6713
0.346845, -1740, 1741, 5895, -652, -2361, 6713
0.346980, -1740, 1741, 5895, -652, -2361, 6713
0.347114, -1740, 1741, 5895, -652, -2361, 6713
0.347249, -1740, 1741, 5895, -652, -2361, 6713
0.347384, -1740, 1741, 5895, -652, -2361, 6713
0.347518, -195, 791, 2026, 241, -2227, 7549
0.347653, -195, 791, 2026, 241, -2227, 7549
0.347788, -195, 791, 2026, 241, -2227, 7549
0.347922, -195, 791, 2026, 241, -2227, 7549
0.348057, -195, 791, 2026, 241, -2227, 7549
0.348191, -195, 791, 2026, 241, -2227, 7549
0.348326, -195, 791, 2026, 241, -2227, 7549
0.348461, 3517, 21, -165, -789, -3121, 6490
0.348595, 3517, 21, -165, -789, -3121, 6490
0.348730, 3517, 21, -165, -789, -3121, 6490
0.348865, 3517, 21, -165, -789, -3121, 6490
0.348999, 3517, 21, -165, -789, -3121, 6490
0.349134, 3517, 21, -165, -789, -3121, 6490
0.349268, 3517, 21, -165, -789, -3121, 6490
0.349403, 3517, 21, -165, -789, -3121, 6490
0.349537, 3459, 704, 569, -1929, -3975, 3635
0.349672, 3459, 704, 569, -1929, -3975, 3635
0.349807, 3459, 704, 569, -1929, -3975, 3635
0.349941, 3459, 704, 569, -1929, -3975, 3635
0.350076, 3459, 704, 569, -1929, -3975, 3635
0.350210, 3459, 704, 569, -1929, -3975, 3635
0.350345, 3459, 704, 569, -1929, -3975, 3635
0.350480, 2381, 751, 1732, -2483, -3419, 1622
0.350614, 2381, 751, 1732, -2483, -3419, 1622
0.350749, 2381, 751, 1732, -2483, -3419, 1622
0.350884, 2381, 751, 1732, -2483, -3419, 1622
0.351019, 2381, 751, 1732, -2483, -3419, 1622
0.351153, 2381, 751, 1732, -2483, -3419, 1622
0.351288, 2381, 751, 1732, -2483, -3419, 1622
0.351422, 2381, 751, 1732, -2483, -3419, 1622
0.351557, 2400, 126, 3979, -1888, -1909, 189
0.351692, 2400, 126, 3979, -1888, -1909, 189
0.351826, 2400, 126, 3979, -1888, -1909, 189
0.351961, 2400, 126, 3979, -1888, -1909, 189
0.352095, 2400, 126, 3979, -1888, -1909, 189
0.352237, 2400, 126, 3979, -1888, -1909, 189
0.352372, 2400, 126, 3979, -1888, -1909, 189
0.352506, 1360, 400, 5237, 549, 28, -964
0.352641, 1360, 400, 5237, 549, 28, -964
0.352776, 1360, 400, 5237, 549, 28, -964
0.352910, 1360, 400, 5237, 549, 28, -964
0.353045, 1360, 400, 5237, 549, 28, -964
0.353179, 1360, 400, 5237, 549, 28, -964
0.353314, 1360, 400, 5237, 549, 28, -964
0.353448, 1360, 400, 5237, 549, 28, -964
0.353583, 3292, 424, 2695, 2510, 1489, -1729
0.353718, 3292, 424, 2695, 2510, 1489, -1729
0.353852, 3292, 424, 2695, 2510, 1489, -1729
0.353987, 3292, 424, 2695, 2510, 1489, -1729
0.354121, 3292, 424, 2695, 2510, 1489, -1729
0.354256, 3292, 424, 2695, 2510, 1489, -1729
0.354390, 3292, 424, 2695, 2510, 1489, -1729
0.354525, 4532, 786, 1393, 2642, 1991, -4268
0.354660, 4532, 786, 1393, 2642, 1991, -4268
0.354795, 4532, 786, 1393, 2642, 1991, -4268
0.354929, 4532, 786, 1393, 2642, 1991, -4268
0.355064, 4532, 786, 1393, 2642, 1991, -4268
0.355198, 4532, 786, 1393, 2642, 1991, -4268
0.355333, 4532, 786, 1393, 2642, 1991, -4268
0.355467, 4532, 786, 1393, 2642, 1991, -4268
0.355602, -791, 1084, 2687, 3003, 2741, -6316
