Time, ax, ay, az, gx, gy, gz
0.000016, -357, 567, 2023, -1540, 1791, 2146
0.000187, -357, 567, 2023, -1540, 1791, 2146
0.000327, -357, 567, 2023, -1540, 1791, 2146
0.000465, -357, 567, 2023, -1540, 1791, 2146
0.000604, -357, 567, 2023, -1540, 1791, 2146
0.000736, -357, 567, 2023, -1540, 1791, 2146
0.000873, -61, 523, 1994, -1874, 1544, 2386
0.001010, -61, 523, 1994, -1874, 1544, 2386
0.001143, -61, 523, 1994, -1874, 1544, 2386
0.001280, -61, 523, 1994, -1874, 1544, 2386
0.001417, -61, 523, 1994, -1874, 1544, 2386
0.001554, -61, 523, 1994, -1874, 1544, 2386
0.001690, -61, 523, 1994, -1874, 1544, 2386
0.001823, -61, 523, 1994, -1874, 1544, 2386
0.001959, 1255, 490, 1990, -2136, 867, 2171
0.002096, 1255, 490, 1990, -2136, 867, 2171
0.002233, 1255, 490, 1990, -2136, 867, 2171
0.002370, 1255, 490, 1990, -2136, 867, 2171
0.002506, 1255, 490, 1990, -2136, 867, 2171
0.002643, 1255, 490, 1990, -2136, 867, 2171
0.002780, 1255, 490, 1990, -2136, 867, 2171
0.002917, 2880, 453, 2126, -2286, 123, 934
0.003054, 2880, 453, 2126, -2286, 123, 934
0.003191, 2880, 453, 2126, -2286, 123, 934
0.003328, 2880, 453, 2126, -2286, 123, 934
0.003464, 2880, 453, 2126, -2286, 123, 934
0.003601, 2880, 453, 2126, -2286, 123, 934
0.003739, 2880, 453, 2126, -2286, 123, 934
0.003876, 3732, 391, 2726, -2134, -323, -1204
0.004013, 3732, 391, 2726, -2134, -323, -1204
0.004150, 3732, 391, 2726, -2134, -323, -1204
0.004287, 3732, 391, 2726, -2134, -323, -1204
0.004423, 3732, 391, 2726, -2134, -323, -1204
0.004560, 3732, 391, 2726, -2134, -323, -1204
0.004697, 3732, 391, 2726, -2134, -323, -1204
0.004834, 3732, 391, 2726, -2134, -323, -1204
0.004970, 3721, 291, 2856, -1447, -265, -3612
0.005107, 3721, 291, 2856, -1447, -265, -3612
0.005245, 3721, 291, 2856, -1447, -265, -3612
0.005383, 3721, 291, 2856, -1447, -265, -3612
0.005520, 3721, 291, 2856, -1447, -265, -3612
0.005657, 3721, 291, 2856, -1447, -265, -3612
0.005793, 3721, 291, 2856, -1447, -265, -3612
0.005930, 3811, 238, 1423, -847, 169, -5949
0.006067, 3811, 238, 1423, -847, 169, -5949
0.006204, 3811, 238, 1423, -847, 169, -5949
0.006341, 3811, 238, 1423, -847, 169, -5949
0.006478, 3811, 238, 1423, -847, 169, -5949
0.006615, 3811, 238, 1423, -847, 169, -5949
0.006752, 3811, 238, 1423, -847, 169, -5949
0.006889, 3811, 238, 1423, -847, 169, -5949
0.007025, 3270, 235, 260, -1064, 733, -8288
0.007162, 3270, 235, 260, -1064, 733, -8288
0.007299, 3270, 235, 260, -1064, 733, -8288
0.007436, 3270, 235, 260, -1064, 733, -8288
0.007572, 3270, 235, 260, -1064, 733, -8288
0.007709, 3270, 235, 260, -1064, 733, -8288
0.007846, 3270, 235, 260, -1064, 733, -8288
0.007982, 7, 213, 1238, -1388, 1635, -9589
0.008119, 7, 213, 1238, -1388, 1635, -9589
0.008256, 7, 213, 1238, -1388, 1635, -9589
0.008393, 7, 213, 1238, -1388, 1635, -9589
0.008529, 7, 213, 1238, -1388, 1635, -9589
0.008666, 7, 213, 1238, -1388, 1635, -9589
0.008803, 7, 213, 1238, -1388, 1635, -9589
0.008940, -3796, 487, 2927, -706, 2952, -8328
0.009076, -3796, 487, 2927, -706, 2952, -8328
0.009213, -3796, 487, 2927, -706, 2952, -8328
0.009350, -3796, 487, 2927, -706, 2952, -8328
0.009486, -3796, 487, 2927, -706, 2952, -8328
0.009623, -3796, 487, 2927, -706, 2952, -8328
0.009760, -3796, 487, 2927, -706, 2952, -8328
0.009896, -3796, 487, 2927, -706, 2952, -8328
0.010033, -5462, 809, 3048, 587, 4105, -5004
0.010170, -5462, 809, 3048, 587, 4105, -5004
0.010306, -5462, 809, 3048, 587, 4105, -5004
0.010443, -5462, 809, 3048, 587, 4105, -5004
0.010580, -5462, 809, 3048, 587, 4105, -5004
0.010716, -5462, 809, 3048, 587, 4105, -5004
0.010853, -5462, 809, 3048, 587, 4105, -5004
0.010989, -5125, 739, 1855, 1007, 4298, -1193
0.011126, -5125, 739, 1855, 1007, 4298, -1193
0.011263, -5125, 739, 1855, 1007, 4298, -1193
0.011400, -5125, 739, 1855, 1007, 4298, -1193
0.011536, -5125, 739, 1855, 1007, 4298, -1193
0.011673, -5125, 739, 1855, 1007, 4298, -1193
0.011810, -5125, 739, 1855, 1007, 4298, -1193
0.011947, -5125, 739, 1855, 1007, 4298, -1193
0.012083, -3386, 684, 1551, 222, 3231, 1896
0.012220, -3386, 684, 1551, 222, 3231, 1896
0.012357, -3386, 684, 1551, 222, 3231, 1896
0.012493, -3386, 684, 1551, 222, 3231, 1896
0.012771, -3386, 684, 1551, 222, 3231, 1896
0.012920, -3386, 684, 1551, 222, 3231, 1896
0.013058, -1905, 725, 2121, -827, 1576, 3719
0.013195, -1905, 725, 2121, -827, 1576, 3719
0.013332, -1905, 725, 2121, -827, 1576, 3719
0.013469, -1905, 725, 2121, -827, 1576, 3719
0.013606, -1905, 725, 2121, -827, 1576, 3719
0.013743, -1905, 725, 2121, -827, 1576, 3719
0.013879, -1905, 725, 2121, -827, 1576, 3719
0.014016, -1108, 647, 2213, -1627, 153, 4627
0.014153, -1108, 647, 2213, -1627, 153, 4627
0.014290, -1108, 647, 2213, -1627, 153, 4627
0.014427, -1108, 647, 2213, -1627, 153, 4627
0.014563, -1108, 647, 2213, -1627, 153, 4627
0.014700, -1108, 647, 2213, -1627, 153, 4627
0.014837, -1108, 647, 2213, -1627, 153, 4627
0.014973, -1108, 647, 2213, -1627, 153, 4627
0.015110, 196, 522, 2020, -2180, -917, 4879
0.015247, 196, 522, 2020, -2180, -917, 4879
0.015384, 196, 522, 2020, -2180, -917, 4879
0.015520, 196, 522, 2020, -2180, -917, 4879
0.015657, 196, 522, 2020, -2180, -917, 4879
0.015794, 196, 522, 2020, -2180, -917, 4879
0.015931, 196, 522, 2020, -2180, -917, 4879
0.016067, 1919, 342, 2058, -2502, -1797, 4236
0.016204, 1919, 342, 2058, -2502, -1797, 4236
0.016336, 1919, 342, 2058, -2502, -1797, 4236
0.016473, 1919, 342, 2058, -2502, -1797, 4236
0.016612, 1919, 342, 2058, -2502, -1797, 4236
0.016749, 1919, 342, 2058, -2502, -1797, 4236
0.016886, 1919, 342, 2058, -2502, -1797, 4236
0.017023, 1919, 342, 2058, -2502, -1797, 4236
0.017160, 3651, 104, 2309, -2571, -2584, 2515
0.017297, 3651, 104, 2309, -2571, -2584, 2515
0.017433, 3651, 104, 2309, -2571, -2584, 2515
0.017570, 3651, 104, 2309, -2571, -2584, 2515
0.017703, 3651, 104, 2309, -2571, -2584, 2515
0.017840, 3651, 104, 2309, -2571, -2584, 2515
0.017977, 3651, 104, 2309, -2571, -2584, 2515
0.018113, 5005, -23, 3101, -2127, -3050, -315
0.018250, 5005, -23, 3101, -2127, -3050, -315
0.018387, 5005, -23, 3101, -2127, -3050, -315
0.018524, 5005, -23, 3101, -2127, -3050, -315
0.018661, 5005, -23, 3101, -2127, -3050, -315
0.018798, 5005, -23, 3101, -2127, -3050, -315
0.018934, 5005, -23, 3101, -2127, -3050, -315
0.019071, 5865, 323, 4321, -804, -2695, -3873
0.019208, 5865, 323, 4321, -804, -2695, -3873
0.019345, 5865, 323, 4321, -804, -2695, -3873
0.019482, 5865, 323, 4321, -804, -2695, -3873
0.019619, 5865, 323, 4321, -804, -2695, -3873
0.019757, 5865, 323, 4321, -804, -2695, -3873
0.019894, 5865, 323, 4321, -804, -2695, -3873
0.020030, 5865, 323, 4321, -804, -2695, -3873
0.020167, 6408, 1002, 4750, 1225, -1368, -7752
0.020304, 6408, 1002, 4750, 1225, -1368, -7752
0.020441, 6408, 1002, 4750, 1225, -1368, -7752
0.020578, 6408, 1002, 4750, 1225, -1368, -7752
0.020715, 6408, 1002, 4750, 1225, -1368, -7752
0.020852, 6408, 1002, 4750, 1225, -1368, -7752
0.020988, 6408, 1002, 4750, 1225, -1368, -7752
0.021125, 4014, 1352, 4451, 3492, 814, -11267
0.021262, 4014, 1352, 4451, 3492, 814, -11267
0.021399, 4014, 1352, 4451, 3492, 814, -11267
0.021536, 4014, 1352, 4451, 3492, 814, -11267
0.021673, 4014, 1352, 4451, 3492, 814, -11267
0.021809, 4014, 1352, 4451, 3492, 814, -11267
0.021946, 4014, 1352, 4451, 3492, 814, -11267
0.022083, 4014, 1352, 4451, 3492, 814, -11267
0.022220, -2296, 1154, 2802, 5582, 3483, -12129
0.022357, -2296, 1154, 2802, 5582, 3483, -12129
0.022494, -2296, 1154, 2802, 5582, 3483, -12129
0.022630, -2296, 1154, 2802, 5582, 3483, -12129
0.022767, -2296, 1154, 2802, 5582, 3483, -12129
0.022904, -2296, 1154, 2802, 5582, 3483, -12129
0.023041, -2296, 1154, 2802, 5582, 3483, -12129
0.023178, -8805, 297, -1490, 5846, 5586, -8574
0.023315, -8805, 297, -1490, 5846, 5586, -8574
0.023451, -8805, 297, -1490, 5846, 5586, -8574
0.023588, -8805, 297, -1490, 5846, 5586, -8574
0.023725, -8805, 297, -1490, 5846, 5586, -8574
0.023862, -8805, 297, -1490, 5846, 5586, -8574
0.023999, -8805, 297, -1490, 5846, 5586, -8574
0.024136, -10967, -411, -3705, 3341, 5893, -1657
0.024273, -10967, -411, -3705, 3341, 5893, -1657
0.024410, -10967, -411, -3705, 3341, 5893, -1657
0.024547, -10967, -411, -3705, 3341, 5893, -1657
0.024684, -10967, -411, -3705, 3341, 5893, -1657
0.024917, -10967, -411, -3705, 3341, 5893, -1657
0.025065, -10967, -411, -3705, 3341, 5893, -1657
0.025203, -6234, 84, -335, 401, 4226, 4944
0.025340, -6234, 84, -335, 401, 4226, 4944
0.025477, -6234, 84, -335, 401, 4226, 4944
0.025614, -6234, 84, -335, 401, 4226, 4944
0.025751, -6234, 84, -335, 401, 4226, 4944
0.025888, -6234, 84, -335, 401, 4226, 4944
0.026024, -6234, 84, -335, 401, 4226, 4944
0.026161, -6234, 84, -335, 401, 4226, 4944
0.026298, -344, 841, 2974, -1224, 2112, 7622
0.026435, -344, 841, 2974, -1224, 2112, 7622
0.026572, -344, 841, 2974, -1224, 2112, 7622
0.026709, -344, 841, 2974, -1224, 2112, 7622
0.026845, -344, 841, 2974, -1224, 2112, 7622
0.026982, -344, 841, 2974, -1224, 2112, 7622
0.027119, -344, 841, 2974, -1224, 2112, 7622
0.027256, 441, 855, 2781, -2363, 786, 7283
0.027393, 441, 855, 2781, -2363, 786, 7283
0.027530, 441, 855, 2781, -2363, 786, 7283
0.027666, 441, 855, 2781, -2363, 786, 7283
0.027804, 441, 855, 2781, -2363, 786, 7283
0.027941, 441, 855, 2781, -2363, 786, 7283
0.028077, 441, 855, 2781, -2363, 786, 7283
0.028214, -541, 602, 1985, -3396, -456, 6867
0.028351, -541, 602, 1985, -3396, -456, 6867
0.028488, -541, 602, 1985, -3396, -456, 6867
0.028625, -541, 602, 1985, -3396, -456, 6867
0.028762, -541, 602, 1985, -3396, -456, 6867
0.028899, -541, 602, 1985, -3396, -456, 6867
0.029035, -541, 602, 1985, -3396, -456, 6867
0.029172, -541, 602, 1985, -3396, -456, 6867
0.029309, -329, 531, 1962, -3885, -2208, 6807
0.029446, -329, 531, 1962, -3885, -2208, 6807
0.029583, -329, 531, 1962, -3885, -2208, 6807
0.029720, -329, 531, 1962, -3885, -2208, 6807
0.029857, -329, 531, 1962, -3885, -2208, 6807
0.029993, -329, 531, 1962, -3885, -2208, 6807
0.030130, -329, 531, 1962, -3885, -2208, 6807
0.030267, 21, 473, 1900, -3844, -3823, 6634
0.030404, 21, 473, 1900, -3844, -3823, 6634
0.030541, 21, 473, 1900, -3844, -3823, 6634
0.030678, 21, 473, 1900, -3844, -3823, 6634
0.030814, 21, 473, 1900, -3844, -3823, 6634
0.030951, 21, 473, 1900, -3844, -3823, 6634
0.031088, 21, 473, 1900, -3844, -3823, 6634
0.031225, 21, 473, 1900, -3844, -3823, 6634
0.031362, 321, 418, 1845, -3562, -4429, 6422
0.031499, 321, 418, 1845, -3562, -4429, 6422
0.031636, 321, 418, 1845, -3562, -4429, 6422
0.031773, 321, 418, 1845, -3562, -4429, 6422
0.031910, 321, 418, 1845, -3562, -4429, 6422
0.032046, 321, 418, 1845, -3562, -4429, 6422
0.032183, 321, 418, 1845, -3562, -4429, 6422
0.032320, 748, 485, 2089, -3315, -3831, 6178
0.032457, 748, 485, 2089, -3315, -3831, 6178
0.032594, 748, 485, 2089, -3315, -3831, 6178
0.032731, 748, 485, 2089, -3315, -3831, 6178
0.032868, 748, 485, 2089, -3315, -3831, 6178
0.033005, 748, 485, 2089, -3315, -3831, 6178
0.033141, 748, 485, 2089, -3315, -3831, 6178
0.033278, 1211, 526, 2230, -3172, -2701, 5776
0.033415, 1211, 526, 2230, -3172, -2701, 5776
0.033552, 1211, 526, 2230, -3172, -2701, 5776
0.033689, 1211, 526, 2230, -3172, -2701, 5776
0.033826, 1211, 526, 2230, -3172, -2701, 5776
0.033963, 1211, 526, 2230, -3172, -2701, 5776
0.034100, 1211, 526, 2230, -3172, -2701, 5776
0.034236, 1211, 526, 2230, -3172, -2701, 5776
0.034373, 1856, 483, 2194, -2976, -1608, 5078
0.034510, 1856, 483, 2194, -2976, -1608, 5078
0.034647, 1856, 483, 2194, -2976, -1608, 5078
0.034784, 1856, 483, 2194, -2976, -1608, 5078
0.034921, 1856, 483, 2194, -2976, -1608, 5078
0.035058, 1856, 483, 2194, -2976, -1608, 5078
0.035194, 1856, 483, 2194, -2976, -1608, 5078
0.035331, 2120, 460, 2076, -2742, -516, 4053
0.035468, 2120, 460, 2076, -2742, -516, 4053
0.035605, 2120, 460, 2076, -2742, -516, 4053
0.035742, 2120, 460, 2076, -2742, -516, 4053
0.035879, 2120, 460, 2076, -2742, -516, 4053
0.036016, 2120, 460, 2076, -2742, -516, 4053
0.036153, 2120, 460, 2076, -2742, -516, 4053
0.036290, 2120, 460, 2076, -2742, -516, 4053
0.036426, 1091, 407, 1686, -2681, 610, 3194
0.036563, 1091, 407, 1686, -2681, 610, 3194
0.036700, 1091, 407, 1686, -2681, 610, 3194
0.036837, 1091, 407, 1686, -2681, 610, 3194
0.036974, 1091, 407, 1686, -2681, 610, 3194
0.037111, 1091, 407, 1686, -2681, 610, 3194
0.037248, 1091, 407, 1686, -2681, 610, 3194
0.037384, -130, 333, 1471, -2748, 1475, 3089
0.037611, -130, 333, 1471, -2748, 1475, 3089
0.037759, -130, 333, 1471, -2748, 1475, 3089
0.037896, -130, 333, 1471, -2748, 1475, 3089
0.038033, -130, 333, 1471, -2748, 1475, 3089
0.038170, -130, 333, 1471, -2748, 1475, 3089
0.038307, -130, 333, 1471, -2748, 1475, 3089
0.038444, -696, 369, 1801, -2691, 1864, 3541
0.038581, -696, 369, 1801, -2691, 1864, 3541
0.038718, -696, 369, 1801, -2691, 1864, 3541
0.038854, -696, 369, 1801, -2691, 1864, 3541
0.038991, -696, 369, 1801, -2691, 1864, 3541
0.039128, -696, 369, 1801, -2691, 1864, 3541
0.039265, -696, 369, 1801, -2691, 1864, 3541
0.039401, -1081, 496, 2060, -2549, 1845, 4210
0.039538, -1081, 496, 2060, -2549, 1845, 4210
0.039675, -1081, 496, 2060, -2549, 1845, 4210
0.039812, -1081, 496, 2060, -2549, 1845, 4210
0.039949, -1081, 496, 2060, -2549, 1845, 4210
0.040086, -1081, 496, 2060, -2549, 1845, 4210
0.040223, -1081, 496, 2060, -2549, 1845, 4210
0.040359, -914, 590, 2022, -2525, 1516, 4930
0.040496, -914, 590, 2022, -2525, 1516, 4930
0.040633, -914, 590, 2022, -2525, 1516, 4930
0.040770, -914, 590, 2022, -2525, 1516, 4930
0.040906, -914, 590, 2022, -2525, 1516, 4930
0.041043, -914, 590, 2022, -2525, 1516, 4930
0.041180, -914, 590, 2022, -2525, 1516, 4930
0.041317, -914, 590, 2022, -2525, 1516, 4930
0.041454, -399, 573, 2070, -2659, 996, 5383
0.041591, -399, 573, 2070, -2659, 996, 5383
0.041727, -399, 573, 2070, -2659, 996, 5383
0.041864, -399, 573, 2070, -2659, 996, 5383
0.042001, -399, 573, 2070, -2659, 996, 5383
0.042137, -399, 573, 2070, -2659, 996, 5383
0.042274, -399, 573, 2070, -2659, 996, 5383
0.042411, -103, 525, 2146, -2877, 418, 5527
0.042548, -103, 525, 2146, -2877, 418, 5527
0.042685, -103, 525, 2146, -2877, 418, 5527
0.042822, -103, 525, 2146, -2877, 418, 5527
0.042958, -103, 525, 2146, -2877, 418, 5527
0.043095, -103, 525, 2146, -2877, 418, 5527
0.043232, -103, 525, 2146, -2877, 418, 5527
0.043368, -103, 525, 2146, -2877, 418, 5527
0.043505, 141, 479, 2104, -3091, -144, 5494
0.043642, 141, 479, 2104, -3091, -144, 5494
0.043779, 141, 479, 2104, -3091, -144, 5494
0.043916, 141, 479, 2104, -3091, -144, 5494
0.044053, 141, 479, 2104, -3091, -144, 5494
0.044190, 141, 479, 2104, -3091, -144, 5494
0.044326, 141, 479, 2104, -3091, -144, 5494
0.044463, 661, 364, 2090, -3242, -601, 5272
0.044600, 661, 364, 2090, -3242, -601, 5272
0.044737, 661, 364, 2090, -3242, -601, 5272
0.044874, 661, 364, 2090, -3242, -601, 5272
0.045010, 661, 364, 2090, -3242, -601, 5272
0.045147, 661, 364, 2090, -3242, -601, 5272
0.045284, 661, 364, 2090, -3242, -601, 5272
0.045420, 661, 364, 2090, -3242, -601, 5272
0.045557, 2417, 150, 2099, -3319, -961, 4566
0.045694, 2417, 150, 2099, -3319, -961, 4566
0.045831, 2417, 150, 2099, -3319, -961, 4566
0.045968, 2417, 150, 2099, -3319, -961, 4566
0.046104, 2417, 150, 2099, -3319, -961, 4566
0.046241, 2417, 150, 2099, -3319, -961, 4566
0.046378, 2417, 150, 2099, -3319, -961, 4566
0.046515, 8553, 452, 1589, -3496, -1458, 2004
0.046652, 8553, 452, 1589, -3496, -1458, 2004
0.046789, 8553, 452, 1589, -3496, -1458, 2004
0.046925, 8553, 452, 1589, -3496, -1458, 2004
0.047062, 8553, 452, 1589, -3496, -1458, 2004
0.047199, 8553, 452, 1589, -3496, -1458, 2004
0.047336, 8553, 452, 1589, -3496, -1458, 2004
0.047472, 15792, 390, 2433, -3713, -1810, -4918
0.047609, 15792, 390, 2433, -3713, -1810, -4918
0.047746, 15792, 390, 2433, -3713, -1810, -4918
0.047883, 15792, 390, 2433, -3713, -1810, -4918
0.048020, 15792, 390, 2433, -3713, -1810, -4918
0.048157, 15792, 390, 2433, -3713, -1810, -4918
0.048293, 15792, 390, 2433, -3713, -1810, -4918
0.048430, 15792, 390, 2433, -3713, -1810, -4918
0.048567, 14939, 230, 4092, -2725, -932, -14938
0.048704, 14939, 230, 4092, -2725, -932, -14938
0.048841, 14939, 230, 4092, -2725, -932, -14938
0.048978, 14939, 230, 4092, -2725, -932, -14938
0.049114, 14939, 230, 4092, -2725, -932, -14938
0.049251, 14939, 230, 4092, -2725, -932, -14938
0.049388, 14939, 230, 4092, -2725, -932, -14938
0.049524, 6256, 917, 3133, -301, 1636, -22278
0.049661, 6256, 917, 3133, -301, 1636, -22278
0.049798, 6256, 917, 3133, -301, 1636, -22278
0.050023, 6256, 917, 3133, -301, 1636, -22278
0.050170, 6256, 917, 3133, -301, 1636, -22278
0.050308, 6256, 917, 3133, -301, 1636, -22278
0.050445, 6256, 917, 3133, -301, 1636, -22278
0.050582, -2923, 465, 2831, 2571, 4898, -23754
0.050719, -2923, 465, 2831, 2571, 4898, -23754
0.050856, -2923, 465, 2831, 2571, 4898, -23754
0.050993, -2923, 465, 2831, 2571, 4898, -23754
0.051129, -2923, 465, 2831, 2571, 4898, -23754
0.051266, -2923, 465, 2831, 2571, 4898, -23754
0.051403, -2923, 465, 2831, 2571, 4898, -23754
0.051540, -6656, -48, 4015, 6121, 7430, -20421
0.051677, -6656, -48, 4015, 6121, 7430, -20421
0.051814, -6656, -48, 4015, 6121, 7430, -20421
0.051951, -6656, -48, 4015, 6121, 7430, -20421
0.052087, -6656, -48, 4015, 6121, 7430, -20421
0.052224, -6656, -48, 4015, 6121, 7430, -20421
0.052361, -6656, -48, 4015, 6121, 7430, -20421
0.052498, -6656, -48, 4015, 6121, 7430, -20421
0.052634, -7227, -668, 2279, 8805, 8638, -15122
0.052772, -7227, -668, 2279, 8805, 8638, -15122
0.052908, -7227, -668, 2279, 8805, 8638, -15122
0.053045, -7227, -668, 2279, 8805, 8638, -15122
0.053182, -7227, -668, 2279, 8805, 8638, -15122
0.053319, -7227, -668, 2279, 8805, 8638, -15122
0.053456, -7227, -668, 2279, 8805, 8638, -15122
0.053591, -8209, -1150, -1462, 8154, 8260, -9622
0.053726, -8209, -1150, -1462, 8154, 8260, -9622
0.053860, -8209, -1150, -1462, 8154, 8260, -9622
0.053995, -8209, -1150, -1462, 8154, 8260, -9622
0.054130, -8209, -1150, -1462, 8154, 8260, -9622
0.054264, -8209, -1150, -1462, 8154, 8260, -9622
0.054399, -8209, -1150, -1462, 8154, 8260, -9622
0.054533, -8209, -1150, -1462, 8154, 8260, -9622
0.054668, -7814, 446, -2495, 4844, 6507, -4165
0.054803, -7814, 446, -2495, 4844, 6507, -4165
0.054938, -7814, 446, -2495, 4844, 6507, -4165
0.055073, -7814, 446, -2495, 4844, 6507, -4165
0.055207, -7814, 446, -2495, 4844, 6507, -4165
0.055342, -7814, 446, -2495, 4844, 6507, -4165
0.055476, -7814, 446, -2495, 4844, 6507, -4165
0.055611, -6425, 1302, 356, 1327, 4495, 583
0.055746, -6425, 1302, 356, 1327, 4495, 583
0.055880, -6425, 1302, 356, 1327, 4495, 583
0.056015, -6425, 1302, 356, 1327, 4495, 583
0.056149, -6425, 1302, 356, 1327, 4495, 583
0.056283, -6425, 1302, 356, 1327, 4495, 583
0.056416, -6425, 1302, 356, 1327, 4495, 583
0.056550, -6425, 1302, 356, 1327, 4495, 583
0.056684, -3622, 924, 2839, -634, 2576, 3843
0.056818, -3622, 924, 2839, -634, 2576, 3843
0.056953, -3622, 924, 2839, -634, 2576, 3843
0.057087, -3622, 924, 2839, -634, 2576, 3843
0.057222, -3622, 924, 2839, -634, 2576, 3843
0.057356, -3622, 924, 2839, -634, 2576, 3843
0.057491, -3622, 924, 2839, -634, 2576, 3843
0.057625, -157, 790, 2633, -1489, 520, 4973
0.057760, -157, 790, 2633, -1489, 520, 4973
0.057894, -157, 790, 2633, -1489, 520, 4973
0.058029, -157, 790, 2633, -1489, 520, 4973
0.058163, -157, 790, 2633, -1489, 520, 4973
0.058297, -157, 790, 2633, -1489, 520, 4973
0.058432, -157, 790, 2633, -1489, 520, 4973
0.058566, -157, 790, 2633, -1489, 520, 4973
0.058701, 1679, 620, 1946, -2363, -1532, 4279
0.058835, 1679, 620, 1946, -2363, -1532, 4279
0.058970, 1679, 620, 1946, -2363, -1532, 4279
0.059104, 1679, 620, 1946, -2363, -1532, 4279
0.059239, 1679, 620, 1946, -2363, -1532, 4279
0.059373, 1679, 620, 1946, -2363, -1532, 4279
0.059507, 1679, 620, 1946, -2363, -1532, 4279
0.059642, 2413, 448, 1936, -3006, -3390, 2729
0.059777, 2413, 448, 1936, -3006, -3390, 2729
0.059911, 2413, 448, 1936, -3006, -3390, 2729
0.060046, 2413, 448, 1936, -3006, -3390, 2729
0.060180, 2413, 448, 1936, -3006, -3390, 2729
0.060314, 2413, 448, 1936, -3006, -3390, 2729
0.060449, 2413, 448, 1936, -3006, -3390, 2729
0.060583, 2413, 448, 1936, -3006, -3390, 2729
0.060718, 2473, 449, 1907, -2949, -4428, 910
0.060847, 2473, 449, 1907, -2949, -4428, 910
0.060984, 2473, 449, 1907, -2949, -4428, 910
0.061119, 2473, 449, 1907, -2949, -4428, 910
0.061253, 2473, 449, 1907, -2949, -4428, 910
0.061388, 2473, 449, 1907, -2949, -4428, 910
0.061522, 2473, 449, 1907, -2949, -4428, 910
0.061657, 2725, 551, 2017, -2461, -4111, -779
0.061791, 2725, 551, 2017, -2461, -4111, -779
0.061926, 2725, 551, 2017, -2461, -4111, -779
0.062082, 2725, 551, 2017, -2461, -4111, -779
0.062223, 2725, 551, 2017, -2461, -4111, -779
0.062359, 2725, 551, 2017, -2461, -4111, -779
0.062494, 2725, 551, 2017, -2461, -4111, -779
0.062628, 2725, 551, 2017, -2461, -4111, -779
0.062763, 2767, 320, 2668, -1723, -2703, -2437
0.062898, 2767, 320, 2668, -1723, -2703, -2437
0.063032, 2767, 320, 2668, -1723, -2703, -2437
0.063167, 2767, 320, 2668, -1723, -2703, -2437
0.063301, 2767, 320, 2668, -1723, -2703, -2437
0.063436, 2767, 320, 2668, -1723, -2703, -2437
0.063570, 2767, 320, 2668, -1723, -2703, -2437
0.063706, 24, 94, 2804, -742, -626, -3390
0.063841, 24, 94, 2804, -742, -626, -3390
0.063975, 24, 94, 2804, -742, -626, -3390
0.064110, 24, 94, 2804, -742, -626, -3390
0.064244, 24, 94, 2804, -742, -626, -3390
0.064379, 24, 94, 2804, -742, -626, -3390
0.064514, 24, 94, 2804, -742, -626, -3390
0.064648, 24, 94, 2804, -742, -626, -3390
0.064783, -3431, 445, 1980, -4, 1492, -2213
0.064918, -3431, 445, 1980, -4, 1492, -2213
0.065052, -3431, 445, 1980, -4, 1492, -2213
0.065187, -3431, 445, 1980, -4, 1492, -2213
0.065321, -3431, 445, 1980, -4, 1492, -2213
0.065456, -3431, 445, 1980, -4, 1492, -2213
0.065590, -3431, 445, 1980, -4, 1492, -2213
0.065725, -4717, 712, 1443, 82, 2880, 632
0.065860, -4717, 712, 1443, 82, 2880, 632
0.065994, -4717, 712, 1443, 82, 2880, 632
0.066129, -4717, 712, 1443, 82, 2880, 632
0.066263, -4717, 712, 1443, 82, 2880, 632
0.066398, -4717, 712, 1443, 82, 2880, 632
0.066533, -4717, 712, 1443, 82, 2880, 632
0.066667, -4717, 712, 1443, 82, 2880, 632
0.066802, -3955, 644, 1668, -412, 3221, 3730
0.066937, -3955, 644, 1668, -412, 3221, 3730
0.067071, -3955, 644, 1668, -412, 3221, 3730
0.067206, -3955, 644, 1668, -412, 3221, 3730
0.067340, -3955, 644, 1668, -412, 3221, 3730
0.067475, -3955, 644, 1668, -412, 3221, 3730
0.067609, -3955, 644, 1668, -412, 3221, 3730
0.067744, -1002, 616, 2095, -1216, 2614, 5740
0.067879, -1002, 616, 2095, -1216, 2614, 5740
0.068014, -1002, 616, 2095, -1216, 2614, 5740
0.068148, -1002, 616, 2095, -1216, 2614, 5740
0.068283, -1002, 616, 2095, -1216, 2614, 5740
0.068417, -1002, 616, 2095, -1216, 2614, 5740
0.068552, -1002, 616, 2095, -1216, 2614, 5740
0.068686, -1002, 616, 2095, -1216, 2614, 5740
0.068821, 1637, 485, 2278, -2104, 1586, 5664
0.068955, 1637, 485, 2278, -2104, 1586, 5664
0.069090, 1637, 485, 2278, -2104, 1586, 5664
0.069225, 1637, 485, 2278, -2104, 1586, 5664
0.069359, 1637, 485, 2278, -2104, 1586, 5664
0.069494, 1637, 485, 2278, -2104, 1586, 5664
0.069628, 1637, 485, 2278, -2104, 1586, 5664
0.069763, 3373, 357, 2011, -2945, 530, 4099
0.069898, 3373, 357, 2011, -2945, 530, 4099
0.070032, 3373, 357, 2011, -2945, 530, 4099
0.070167, 3373, 357, 2011, -2945, 530, 4099
0.070301, 3373, 357, 2011, -2945, 530, 4099
0.070436, 3373, 357, 2011, -2945, 530, 4099
0.070570, 3373, 357, 2011, -2945, 530, 4099
0.070705, 3373, 357, 2011, -2945, 530, 4099
0.070840, 6917, 646, 1643, -3594, -636, 1055
0.070974, 6917, 646, 1643, -3594, -636, 1055
0.071109, 6917, 646, 1643, -3594, -636, 1055
0.071243, 6917, 646, 1643, -3594, -636, 1055
0.071378, 6917, 646, 1643, -3594, -636, 1055
0.071512, 6917, 646, 1643, -3594, -636, 1055
0.071647, 6917, 646, 1643, -3594, -636, 1055
0.071782, 8608, 384, 2527, -3639, -1404, -4082
0.071916, 8608, 384, 2527, -3639, -1404, -4082
0.072051, 8608, 384, 2527, -3639, -1404, -4082
0.072185, 8608, 384, 2527, -3639, -1404, -4082
0.072319, 8608, 384, 2527, -3639, -1404, -4082
0.072454, 8608, 384, 2527, -3639, -1404, -4082
0.072588, 8608, 384, 2527, -3639, -1404, -4082
0.072722, 8608, 384, 2527, -3639, -1404, -4082
0.072857, 5512, -64, 3938, -2312, -1015, -9066
0.072991, 5512, -64, 3938, -2312, -1015, -9066
0.073126, 5512, -64, 3938, -2312, -1015, -9066
0.073260, 5512, -64, 3938, -2312, -1015, -9066
0.073395, 5512, -64, 3938, -2312, -1015, -9066
0.073529, 5512, -64, 3938, -2312, -1015, -9066
0.073663, 5512, -64, 3938, -2312, -1015, -9066
0.073798, 5512, -64, 3938, -2312, -1015, -9066
0.073932, 2430, 668, 4263, 281, 298, -11716
0.074067, 2430, 668, 4263, 281, 298, -11716
0.074201, 2430, 668, 4263, 281, 298, -11716
0.074344, 2430, 668, 4263, 281, 298, -11716
0.074484, 2430, 668, 4263, 281, 298, -11716
0.074620, 2430, 668, 4263, 281, 298, -11716
0.074755, 2430, 668, 4263, 281, 298, -11716
0.074889, 474, 1723, 4713, 3322, 1983, -12694
0.075024, 474, 1723, 4713, 3322, 1983, -12694
0.075158, 474, 1723, 4713, 3322, 1983, -12694
0.075300, 474, 1723, 4713, 3322, 1983, -12694
0.075443, 474, 1723, 4713, 3322, 1983, -12694
0.075581, 474, 1723, 4713, 3322, 1983, -12694
0.075716, 474, 1723, 4713, 3322, 1983, -12694
0.075850, -1696, 2579, 4123, 6121, 3734, -12302
0.075985, -1696, 2579, 4123, 6121, 3734, -12302
0.076120, -1696, 2579, 4123, 6121, 3734, -12302
0.076255, -1696, 2579, 4123, 6121, 3734, -12302
0.076389, -1696, 2579, 4123, 6121, 3734, -12302
0.076524, -1696, 2579, 4123, 6121, 3734, -12302
0.076659, -1696, 2579, 4123, 6121, 3734, -12302
0.076788, -1696, 2579, 4123, 6121, 3734, -12302
0.076923, -7827, -348, -1659, 6182, 5201, -9516
0.077058, -7827, -348, -1659, 6182, 5201, -9516
0.077192, -7827, -348, -1659, 6182, 5201, -9516
0.077327, -7827, -348, -1659, 6182, 5201, -9516
0.077462, -7827, -348, -1659, 6182, 5201, -9516
0.077597, -7827, -348, -1659, 6182, 5201, -9516
0.077731, -7827, -348, -1659, 6182, 5201, -9516
0.077866, -13142, -3138, -5040, 2530, 5186, -2573
0.078001, -13142, -3138, -5040, 2530, 5186, -2573
0.078136, -13142, -3138, -5040, 2530, 5186, -2573
0.078270, -13142, -3138, -5040, 2530, 5186, -2573
0.078405, -13142, -3138, -5040, 2530, 5186, -2573
0.078540, -13142, -3138, -5040, 2530, 5186, -2573
0.078674, -13142, -3138, -5040, 2530, 5186, -2573
0.078809, -13142, -3138, -5040, 2530, 5186, -2573
0.078944, -6571, 175, 661, -465, 2998, 5237
0.079078, -6571, 175, 661, -465, 2998, 5237
0.079213, -6571, 175, 661, -465, 2998, 5237
0.079348, -6571, 175, 661, -465, 2998, 5237
0.079483, -6571, 175, 661, -465, 2998, 5237
0.079617, -6571, 175, 661, -465, 2998, 5237
0.079752, -6571, 175, 661, -465, 2998, 5237
0.079887, 742, 1796, 4302, -1060, 967, 7600
0.080022, 742, 1796, 4302, -1060, 967, 7600
0.080157, 742, 1796, 4302, -1060, 967, 7600
0.080286, 742, 1796, 4302, -1060, 967, 7600
0.080422, 742, 1796, 4302, -1060, 967, 7600
0.080557, 742, 1796, 4302, -1060, 967, 7600
0.080693, 742, 1796, 4302, -1060, 967, 7600
0.080831, 742, 1796, 4302, -1060, 967, 7600
0.080971, 97, 468, 2531, -1992, 207, 6595
0.081115, 97, 468, 2531, -1992, 207, 6595
0.081258, 97, 468, 2531, -1992, 207, 6595
0.081398, 97, 468, 2531, -1992, 207, 6595
0.081538, 97, 468, 2531, -1992, 207, 6595
0.081675, 97, 468, 2531, -1992, 207, 6595
0.081811, 97, 468, 2531, -1992, 207, 6595
0.081946, -655, 393, 1637, -3260, -1012, 6380
0.082083, -655, 393, 1637, -3260, -1012, 6380
0.082218, -655, 393, 1637, -3260, -1012, 6380
0.082353, -655, 393, 1637, -3260, -1012, 6380
0.082487, -655, 393, 1637, -3260, -1012, 6380
0.082622, -655, 393, 1637, -3260, -1012, 6380
0.082756, -655, 393, 1637, -3260, -1012, 6380
0.082891, -655, 393, 1637, -3260, -1012, 6380
0.083026, 182, 556, 2007, -3793, -2904, 6266
0.083161, 182, 556, 2007, -3793, -2904, 6266
0.083295, 182, 556, 2007, -3793, -2904, 6266
0.083430, 182, 556, 2007, -3793, -2904, 6266
0.083565, 182, 556, 2007, -3793, -2904, 6266
0.083700, 182, 556, 2007, -3793, -2904, 6266
0.083835, 182, 556, 2007, -3793, -2904, 6266
0.083969, 418, 445, 1948, -3868, -4624, 5697
0.084104, 418, 445, 1948, -3868, -4624, 5697
0.084239, 418, 445, 1948, -3868, -4624, 5697
0.084368, 418, 445, 1948, -3868, -4624, 5697
0.084503, 418, 445, 1948, -3868, -4624, 5697
0.084638, 418, 445, 1948, -3868, -4624, 5697
0.084773, 418, 445, 1948, -3868, -4624, 5697
0.084907, 418, 445, 1948, -3868, -4624, 5697
0.085042, 731, 294, 1615, -3617, -5298, 5114
0.085177, 731, 294, 1615, -3617, -5298, 5114
0.085311, 731, 294, 1615, -3617, -5298, 5114
0.085446, 731, 294, 1615, -3617, -5298, 5114
0.085581, 731, 294, 1615, -3617, -5298, 5114
0.085715, 731, 294, 1615, -3617, -5298, 5114
0.085850, 731, 294, 1615, -3617, -5298, 5114
0.085985, 1967, 360, 1852, -3435, -4379, 4416
0.086119, 1967, 360, 1852, -3435, -4379, 4416
0.086254, 1967, 360, 1852, -3435, -4379, 4416
0.086389, 1967, 360, 1852, -3435, -4379, 4416
0.086549, 1967, 360, 1852, -3435, -4379, 4416
0.086691, 1967, 360, 1852, -3435, -4379, 4416
0.086827, 1967, 360, 1852, -3435, -4379, 4416
0.086962, 1967, 360, 1852, -3435, -4379, 4416
0.087097, 3500, 342, 1754, -3623, -2838, 3070
0.087232, 3500, 342, 1754, -3623, -2838, 3070
0.087367, 3500, 342, 1754, -3623, -2838, 3070
0.087501, 3500, 342, 1754, -3623, -2838, 3070
0.087636, 3500, 342, 1754, -3623, -2838, 3070
0.087772, 3500, 342, 1754, -3623, -2838, 3070
0.087907, 3500, 342, 1754, -3623, -2838, 3070
0.088041, 4396, 50, 1694, -3827, -1459, 868
0.088176, 4396, 50, 1694, -3827, -1459, 868
0.088311, 4396, 50, 1694, -3827, -1459, 868
0.088446, 4396, 50, 1694, -3827, -1459, 868
0.088580, 4396, 50, 1694, -3827, -1459, 868
0.088715, 4396, 50, 1694, -3827, -1459, 868
0.088850, 4396, 50, 1694, -3827, -1459, 868
0.088984, 4396, 50, 1694, -3827, -1459, 868
0.089119, 4575, 75, 3162, -3329, 107, -1645
0.089254, 4575, 75, 3162, -3329, 107, -1645
0.089389, 4575, 75, 3162, -3329, 107, -1645
0.089523, 4575, 75, 3162, -3329, 107, -1645
0.089658, 4575, 75, 3162, -3329, 107, -1645
0.089793, 4575, 75, 3162, -3329, 107, -1645
0.089927, 4575, 75, 3162, -3329, 107, -1645
0.090062, 4332, 625, 3825, -1925, 1852, -4136
0.090197, 4332, 625, 3825, -1925, 1852, -4136
0.090332, 4332, 625, 3825, -1925, 1852, -4136
0.090466, 4332, 625, 3825, -1925, 1852, -4136
0.090601, 4332, 625, 3825, -1925, 1852, -4136
0.090736, 4332, 625, 3825, -1925, 1852, -4136
0.090870, 4332, 625, 3825, -1925, 1852, -4136
0.091005, 4332, 625, 3825, -1925, 1852, -4136
0.091140, 2545, 635, 2184, -693, 3353, -6249
0.091274, 2545, 635, 2184, -693, 3353, -6249
0.091409, 2545, 635, 2184, -693, 3353, -6249
0.091544, 2545, 635, 2184, -693, 3353, -6249
0.091678, 2545, 635, 2184, -693, 3353, -6249
0.091813, 2545, 635, 2184, -693, 3353, -6249
0.091948, 2545, 635, 2184, -693, 3353, -6249
0.092083, 163, 306, 807, -307, 4264, -7098
0.092218, 163, 306, 807, -307, 4264, -7098
0.092352, 163, 306, 807, -307, 4264, -7098
0.092487, 163, 306, 807, -307, 4264, -7098
0.092621, 163, 306, 807, -307, 4264, -7098
0.092756, 163, 306, 807, -307, 4264, -7098
0.092886, 163, 306, 807, -307, 4264, -7098
0.093021, 163, 306, 807, -307, 4264, -7098
0.093156, -1688, 434, 223, -639, 4484, -6604
0.093291, -1688, 434, 223, -639, 4484, -6604
0.093425, -1688, 434, 223, -639, 4484, -6604
0.093560, -1688, 434, 223, -639, 4484, -6604
0.093695, -1688, 434, 223, -639, 4484, -6604
0.093829, -1688, 434, 223, -639, 4484, -6604
0.093964, -1688, 434, 223, -639, 4484, -6604
0.094099, -3938, 518, 949, -1243, 4345, -4777
0.094234, -3938, 518, 949, -1243, 4345, -4777
0.094368, -3938, 518, 949, -1243, 4345, -4777
0.094503, -3938, 518, 949, -1243, 4345, -4777
0.094637, -3938, 518, 949, -1243, 4345, -4777
0.094772, -3938, 518, 949, -1243, 4345, -4777
0.094907, -3938, 518, 949, -1243, 4345, -4777
0.095041, -3938, 518, 949, -1243, 4345, -4777
0.095176, -3493, 594, 2321, -1325, 3872, -2041
0.095311, -3493, 594, 2321, -1325, 3872, -2041
0.095446, -3493, 594, 2321, -1325, 3872, -2041
0.095580, -3493, 594, 2321, -1325, 3872, -2041
0.095715, -3493, 594, 2321, -1325, 3872, -2041
0.095850, -3493, 594, 2321, -1325, 3872, -2041
0.095984, -3493, 594, 2321, -1325, 3872, -2041
0.096119, -719, 687, 2265, -1392, 3027, -324
0.096254, -719, 687, 2265, -1392, 3027, -324
0.096389, -719, 687, 2265, -1392, 3027, -324
0.096524, -719, 687, 2265, -1392, 3027, -324
0.096658, -719, 687, 2265, -1392, 3027, -324
0.096793, -719, 687, 2265, -1392, 3027, -324
0.096928, -719, 687, 2265, -1392, 3027, -324
0.097062, -719, 687, 2265, -1392, 3027, -324
0.097197, 211, 555, 2268, -1945, 1897, -159
0.097332, 211, 555, 2268, -1945, 1897, -159
0.097467, 211, 555, 2268, -1945, 1897, -159
0.097601, 211, 555, 2268, -1945, 1897, -159
0.097736, 211, 555, 2268, -1945, 1897, -159
0.097871, 211, 555, 2268, -1945, 1897, -159
0.098005, 211, 555, 2268, -1945, 1897, -159
0.098140, -850, 545, 2883, -2087, 724, -192
0.098275, -850, 545, 2883, -2087, 724, -192
0.098409, -850, 545, 2883, -2087, 724, -192
0.098544, -850, 545, 2883, -2087, 724, -192
0.098679, -850, 545, 2883, -2087, 724, -192
0.098825, -850, 545, 2883, -2087, 724, -192
0.098965, -850, 545, 2883, -2087, 724, -192
0.099102, -850, 545, 2883, -2087, 724, -192
0.099236, -3067, 506, 2305, -1794, -25, 758
0.099371, -3067, 506, 2305, -1794, -25, 758
0.099506, -3067, 506, 2305, -1794, -25, 758
0.099641, -3067, 506, 2305, -1794, -25, 758
0.099776, -3067, 506, 2305, -1794, -25, 758
0.099910, -3067, 506, 2305, -1794, -25, 758
0.100045, -3067, 506, 2305, -1794, -25, 758
0.100180, -3700, 391, 1257, -1871, -609, 2887
0.100314, -3700, 391, 1257, -1871, -609, 2887
0.100449, -3700, 391, 1257, -1871, -609, 2887
0.100584, -3700, 391, 1257, -1871, -609, 2887
0.100719, -3700, 391, 1257, -1871, -609, 2887
0.100853, -3700, 391, 1257, -1871, -609, 2887
0.100988, -3700, 391, 1257, -1871, -609, 2887
0.101123, -3700, 391, 1257, -1871, -609, 2887
0.101257, -1521, 488, 1757, -2166, -1375, 4796
0.101392, -1521, 488, 1757, -2166, -1375, 4796
0.101527, -1521, 488, 1757, -2166, -1375, 4796
0.101662, -1521, 488, 1757, -2166, -1375, 4796
0.101796, -1521, 488, 1757, -2166, -1375, 4796
0.101931, -1521, 488, 1757, -2166, -1375, 4796
0.102066, -1521, 488, 1757, -2166, -1375, 4796
0.102200, 751, 558, 2537, -2323, -1970, 5241
0.102335, 751, 558, 2537, -2323, -1970, 5241
0.102470, 751, 558, 2537, -2323, -1970, 5241
0.102605, 751, 558, 2537, -2323, -1970, 5241
0.102739, 751, 558, 2537, -2323, -1970, 5241
0.102874, 751, 558, 2537, -2323, -1970, 5241
0.103009, 751, 558, 2537, -2323, -1970, 5241
0.103143, 751, 558, 2537, -2323, -1970, 5241
0.103278, 2087, 438, 2125, -2529, -2136, 4480
0.103413, 2087, 438, 2125, -2529, -2136, 4480
0.103547, 2087, 438, 2125, -2529, -2136, 4480
0.103682, 2087, 438, 2125, -2529, -2136, 4480
0.103817, 2087, 438, 2125, -2529, -2136, 4480
0.103952, 2087, 438, 2125, -2529, -2136, 4480
0.104086, 2087, 438, 2125, -2529, -2136, 4480
0.104221, 3174, 306, 1724, -2808, -1939, 2961
0.104356, 3174, 306, 1724, -2808, -1939, 2961
0.104491, 3174, 306, 1724, -2808, -1939, 2961
0.104625, 3174, 306, 1724, -2808, -1939, 2961
0.104760, 3174, 306, 1724, -2808, -1939, 2961
0.104895, 3174, 306, 1724, -2808, -1939, 2961
0.105029, 3174, 306, 1724, -2808, -1939, 2961
0.105164, 3174, 306, 1724, -2808, -1939, 2961
0.105298, 4076, 328, 2270, -2811, -1450, 829
0.105433, 4076, 328, 2270, -2811, -1450, 829
0.105568, 4076, 328, 2270, -2811, -1450, 829
0.105703, 4076, 328, 2270, -2811, -1450, 829
0.105837, 4076, 328, 2270, -2811, -1450, 829
0.105972, 4076, 328, 2270, -2811, -1450, 829
0.106107, 4076, 328, 2270, -2811, -1450, 829
0.106241, 4034, 410, 2630, -2247, -651, -1675
0.106376, 4034, 410, 2630, -2247, -651, -1675
0.106511, 4034, 410, 2630, -2247, -651, -1675
0.106645, 4034, 410, 2630, -2247, -651, -1675
0.106780, 4034, 410, 2630, -2247, -651, -1675
0.106915, 4034, 410, 2630, -2247, -651, -1675
0.107049, 4034, 410, 2630, -2247, -651, -1675
0.107184, 4034, 410, 2630, -2247, -651, -1675
0.107319, 1362, 391, 1745, -1545, 578, -3576
0.107453, 1362, 391, 1745, -1545, 578, -3576
0.107588, 1362, 391, 1745, -1545, 578, -3576
0.107723, 1362, 391, 1745, -1545, 578, -3576
0.107857, 1362, 391, 1745, -1545, 578, -3576
0.107992, 1362, 391, 1745, -1545, 578, -3576
0.108127, 1362, 391, 1745, -1545, 578, -3576
0.108261, 1362, 391, 1745, -1545, 578, -3576
0.108396, -1646, 495, 994, -1269, 1917, -3466
0.108531, -1646, 495, 994, -1269, 1917, -3466
0.108665, -1646, 495, 994, -1269, 1917, -3466
0.108800, -1646, 495, 994, -1269, 1917, -3466
0.108935, -1646, 495, 994, -1269, 1917, -3466
0.109070, -1646, 495, 994, -1269, 1917, -3466
0.109204, -1646, 495, 994, -1269, 1917, -3466
0.109339, -1515, 386, 1785, -1183, 2694, -2090
0.109474, -1515, 386, 1785, -1183, 2694, -2090
0.109608, -1515, 386, 1785, -1183, 2694, -2090
0.109743, -1515, 386, 1785, -1183, 2694, -2090
0.109878, -1515, 386, 1785, -1183, 2694, -2090
0.110012, -1515, 386, 1785, -1183, 2694, -2090
0.110147, -1515, 386, 1785, -1183, 2694, -2090
0.110282, -1515, 386, 1785, -1183, 2694, -2090
0.110416, -651, 221, 2988, -812, 2935, -1157
0.110551, -651, 221, 2988, -812, 2935, -1157
0.110686, -651, 221, 2988, -812, 2935, -1157
0.110840, -651, 221, 2988, -812, 2935, -1157
0.110981, -651, 221, 2988, -812, 2935, -1157
0.111117, -651, 221, 2988, -812, 2935, -1157
0.111252, -651, 221, 2988, -812, 2935, -1157
0.111386, -350, 663, 2906, -357, 2939, -654
0.111521, -350, 663, 2906, -357, 2939, -654
0.111656, -350, 663, 2906, -357, 2939, -654
0.111791, -350, 663, 2906, -357, 2939, -654
0.111926, -350, 663, 2906, -357, 2939, -654
0.112061, -350, 663, 2906, -357, 2939, -654
0.112195, -350, 663, 2906, -357, 2939, -654
0.112330, 226, 866, 2050, -467, 2685, -539
0.112465, 226, 866, 2050, -467, 2685, -539
0.112599, 226, 866, 2050, -467, 2685, -539
0.112734, 226, 866, 2050, -467, 2685, -539
0.112869, 226, 866, 2050, -467, 2685, -539
0.113003, 226, 866, 2050, -467, 2685, -539
0.113138, 226, 866, 2050, -467, 2685, -539
0.113273, 226, 866, 2050, -467, 2685, -539
0.113408, -333, 574, 1592, -1061, 2200, -694
0.113542, -333, 574, 1592, -1061, 2200, -694
0.113677, -333, 574, 1592, -1061, 2200, -694
0.113812, -333, 574, 1592, -1061, 2200, -694
0.113947, -333, 574, 1592, -1061, 2200, -694
0.114081, -333, 574, 1592, -1061, 2200, -694
0.114216, -333, 574, 1592, -1061, 2200, -694
0.114350, -2326, 243, 1767, -1504, 1571, -148
0.114485, -2326, 243, 1767, -1504, 1571, -148
0.114620, -2326, 243, 1767, -1504, 1571, -148
0.114755, -2326, 243, 1767, -1504, 1571, -148
0.114889, -2326, 243, 1767, -1504, 1571, -148
0.115024, -2326, 243, 1767, -1504, 1571, -148
0.115159, -2326, 243, 1767, -1504, 1571, -148
0.115293, -2326, 243, 1767, -1504, 1571, -148
0.115428, -2950, 126, 2400, -1464, 831, 1526
0.115563, -2950, 126, 2400, -1464, 831, 1526
0.115698, -2950, 126, 2400, -1464, 831, 1526
0.115833, -2950, 126, 2400, -1464, 831, 1526
0.115967, -2950, 126, 2400, -1464, 831, 1526
0.116102, -2950, 126, 2400, -1464, 831, 1526
0.116237, -2950, 126, 2400, -1464, 831, 1526
0.116371, -2950, 126, 2400, -1464, 831, 1526
0.116506, 1395, 567, 2861, -1013, -125, 2639
0.116641, 1395, 567, 2861, -1013, -125, 2639
0.116775, 1395, 567, 2861, -1013, -125, 2639
0.116910, 1395, 567, 2861, -1013, -125, 2639
0.117045, 1395, 567, 2861, -1013, -125, 2639
0.117180, 1395, 567, 2861, -1013, -125, 2639
0.117314, 1395, 567, 2861, -1013, -125, 2639
0.117449, 6164, 609, 3054, -695, -1055, 474
0.117584, 6164, 609, 3054, -695, -1055, 474
0.117718, 6164, 609, 3054, -695, -1055, 474
0.117853, 6164, 609, 3054, -695, -1055, 474
0.117988, 6164, 609, 3054, -695, -1055, 474
0.118122, 6164, 609, 3054, -695, -1055, 474
0.118257, 6164, 609, 3054, -695, -1055, 474
0.118391, 6164, 609, 3054, -695, -1055, 474
0.118526, 3870, 144, 3371, -338, -1113, -3328
0.118661, 3870, 144, 3371, -338, -1113, -3328
0.118796, 3870, 144, 3371, -338, -1113, -3328
0.118930, 3870, 144, 3371, -338, -1113, -3328
0.119065, 3870, 144, 3371, -338, -1113, -3328
0.119200, 3870, 144, 3371, -338, -1113, -3328
0.119334, 3870, 144, 3371, -338, -1113, -3328
0.119469, -401, 118, 1878, 393, -276, -4684
0.119604, -401, 118, 1878, 393, -276, -4684
0.119739, -401, 118, 1878, 393, -276, -4684
0.119874, -401, 118, 1878, 393, -276, -4684
0.120008, -401, 118, 1878, 393, -276, -4684
0.120143, -401, 118, 1878, 393, -276, -4684
0.120278, -401, 118, 1878, 393, -276, -4684
0.120412, -401, 118, 1878, 393, -276, -4684
0.120547, -2445, 140, -588, 397, 597, -3783
0.120682, -2445, 140, -588, 397, 597, -3783
0.120817, -2445, 140, -588, 397, 597, -3783
0.120952, -2445, 140, -588, 397, 597, -3783
0.121086, -2445, 140, -588, 397, 597, -3783
0.121221, -2445, 140, -588, 397, 597, -3783
0.121356, -2445, 140, -588, 397, 597, -3783
0.121490, -4127, 317, 114, -321, 1090, -1708
0.121625, -4127, 317, 114, -321, 1090, -1708
0.121760, -4127, 317, 114, -321, 1090, -1708
0.121894, -4127, 317, 114, -321, 1090, -1708
0.122029, -4127, 317, 114, -321, 1090, -1708
0.122164, -4127, 317, 114, -321, 1090, -1708
0.122298, -4127, 317, 114, -321, 1090, -1708
0.122433, -4127, 317, 114, -321, 1090, -1708
0.122568, -3025, 586, 2126, -656, 1305, 1114
0.122703, -3025, 586, 2126, -656, 1305, 1114
0.122837, -3025, 586, 2126, -656, 1305, 1114
0.122972, -3025, 586, 2126, -656, 1305, 1114
0.123107, -3025, 586, 2126, -656, 1305, 1114
0.123252, -3025, 586, 2126, -656, 1305, 1114
0.123392, -3025, 586, 2126, -656, 1305, 1114
0.123528, 552, 493, 2649, -791, 1377, 2592
0.123663, 552, 493, 2649, -791, 1377, 2592
0.123799, 552, 493, 2649, -791, 1377, 2592
0.123933, 552, 493, 2649, -791, 1377, 2592
0.124067, 552, 493, 2649, -791, 1377, 2592
0.124201, 552, 493, 2649, -791, 1377, 2592
0.124335, 552, 493, 2649, -791, 1377, 2592
0.124469, 552, 493, 2649, -791, 1377, 2592
0.124603, 3644, 408, 2741, -1017, 1176, 1642
0.124737, 3644, 408, 2741, -1017, 1176, 1642
0.124872, 3644, 408, 2741, -1017, 1176, 1642
0.125006, 3644, 408, 2741, -1017, 1176, 1642
0.125141, 3644, 408, 2741, -1017, 1176, 1642
0.125275, 3644, 408, 2741, -1017, 1176, 1642
0.125410, 3644, 408, 2741, -1017, 1176, 1642
0.125544, 4328, 383, 2756, -1112, 858, -891
0.125679, 4328, 383, 2756, -1112, 858, -891
0.125813, 4328, 383, 2756, -1112, 858, -891
0.125948, 4328, 383, 2756, -1112, 858, -891
0.126082, 4328, 383, 2756, -1112, 858, -891
0.126216, 4328, 383, 2756, -1112, 858, -891
0.126351, 4328, 383, 2756, -1112, 858, -891
0.126485, 4328, 383, 2756, -1112, 858, -891
0.126620, 1965, 286, 2418, -870, 807, -3165
0.126754, 1965, 286, 2418, -870, 807, -3165
0.126889, 1965, 286, 2418, -870, 807, -3165
0.127023, 1965, 286, 2418, -870, 807, -3165
0.127157, 1965, 286, 2418, -870, 807, -3165
0.127292, 1965, 286, 2418, -870, 807, -3165
0.127426, 1965, 286, 2418, -870, 807, -3165
0.127561, -741, 308, 1782, -238, 1002, -3768
0.127695, -741, 308, 1782, -238, 1002, -3768
0.127830, -741, 308, 1782, -238, 1002, -3768
0.127964, -741, 308, 1782, -238, 1002, -3768
0.128099, -741, 308, 1782, -238, 1002, -3768
0.128234, -741, 308, 1782, -238, 1002, -3768
0.128368, -741, 308, 1782, -238, 1002, -3768
0.128503, -741, 308, 1782, -238, 1002, -3768
0.128637, -2983, 422, 1136, 241, 1334, -2742
0.128772, -2983, 422, 1136, 241, 1334, -2742
0.128907, -2983, 422, 1136, 241, 1334, -2742
0.129041, -2983, 422, 1136, 241, 1334, -2742
0.129176, -2983, 422, 1136, 241, 1334, -2742
0.129310, -2983, 422, 1136, 241, 1334, -2742
0.129445, -2983, 422, 1136, 241, 1334, -2742
0.129580, -4283, 438, 1143, 138, 1502, -338
0.129714, -4283, 438, 1143, 138, 1502, -338
0.129849, -4283, 438, 1143, 138, 1502, -338
0.129984, -4283, 438, 1143, 138, 1502, -338
0.130118, -4283, 438, 1143, 138, 1502, -338
0.130253, -4283, 438, 1143, 138, 1502, -338
0.130387, -4283, 438, 1143, 138, 1502, -338
0.130522, -4283, 438, 1143, 138, 1502, -338
0.130656, -1294, 397, 1775, -240, 1042, 2051
0.130791, -1294, 397, 1775, -240, 1042, 2051
0.130926, -1294, 397, 1775, -240, 1042, 2051
0.131060, -1294, 397, 1775, -240, 1042, 2051
0.131195, -1294, 397, 1775, -240, 1042, 2051
0.131329, -1294, 397, 1775, -240, 1042, 2051
0.131464, -1294, 397, 1775, -240, 1042, 2051
0.131599, 3747, 231, 2619, -615, 233, 1796
0.131734, 3747, 231, 2619, -615, 233, 1796
0.131868, 3747, 231, 2619, -615, 233, 1796
0.132002, 3747, 231, 2619, -615, 233, 1796
0.132136, 3747, 231, 2619, -615, 233, 1796
0.132270, 3747, 231, 2619, -615, 233, 1796
0.132405, 3747, 231, 2619, -615, 233, 1796
0.132539, 3747, 231, 2619, -615, 233, 1796
0.132674, 6154, 327, 3375, -719, -171, -1234
0.132808, 6154, 327, 3375, -719, -171, -1234
0.132943, 6154, 327, 3375, -719, -171, -1234
0.133077, 6154, 327, 3375, -719, -171, -1234
0.133212, 6154, 327, 3375, -719, -171, -1234
0.133346, 6154, 327, 3375, -719, -171, -1234
0.133480, 6154, 327, 3375, -719, -171, -1234
0.133615, 5204, 604, 3764, -123, 226, -4940
0.133749, 5204, 604, 3764, -123, 226, -4940
0.133884, 5204, 604, 3764, -123, 226, -4940
0.134018, 5204, 604, 3764, -123, 226, -4940
0.134153, 5204, 604, 3764, -123, 226, -4940
0.134287, 5204, 604, 3764, -123, 226, -4940
0.134421, 5204, 604, 3764, -123, 226, -4940
0.134556, 5204, 604, 3764, -123, 226, -4940
0.134690, 2038, 468, 3485, 1303, 1287, -7502
0.134825, 2038, 468, 3485, 1303, 1287, -7502
0.134959, 2038, 468, 3485, 1303, 1287, -7502
0.135094, 2038, 468, 3485, 1303, 1287, -7502
0.135228, 2038, 468, 3485, 1303, 1287, -7502
0.135363, 2038, 468, 3485, 1303, 1287, -7502
0.135497, 2038, 468, 3485, 1303, 1287, -7502
0.135631, 2038, 468, 3485, 1303, 1287, -7502
0.135773, -1578, 198, 1425, 2641, 2347, -7892
0.135908, -1578, 198, 1425, 2641, 2347, -7892
0.136043, -1578, 198, 1425, 2641, 2347, -7892
0.136177, -1578, 198, 1425, 2641, 2347, -7892
0.136312, -1578, 198, 1425, 2641, 2347, -7892
0.136447, -1578, 198, 1425, 2641, 2347, -7892
0.136581, -1578, 198, 1425, 2641, 2347, -7892
0.136716, -4826, 184, -665, 2594, 2835, -5922
0.136851, -4826, 184, -665, 2594, 2835, -5922
0.136985, -4826, 184, -665, 2594, 2835, -5922
0.137120, -4826, 184, -665, 2594, 2835, -5922
0.137255, -4826, 184, -665, 2594, 2835, -5922
0.137389, -4826, 184, -665, 2594, 2835, -5922
0.137524, -4826, 184, -665, 2594, 2835, -5922
0.137658, -4826, 184, -665, 2594, 2835, -5922
0.137793, -5232, 512, 254, 1681, 2638, -2315
0.137928, -5232, 512, 254, 1681, 2638, -2315
0.138063, -5232, 512, 254, 1681, 2638, -2315
0.138197, -5232, 512, 254, 1681, 2638, -2315
0.138332, -5232, 512, 254, 1681, 2638, -2315
0.138466, -5232, 512, 254, 1681, 2638, -2315
0.138601, -5232, 512, 254, 1681, 2638, -2315
0.138736, -1751, 798, 2256, 1085, 2078, 606
0.138871, -1751, 798, 2256, 1085, 2078, 606
0.139005, -1751, 798, 2256, 1085, 2078, 606
0.139140, -1751, 798, 2256, 1085, 2078, 606
0.139274, -1751, 798, 2256, 1085, 2078, 606
0.139409, -1751, 798, 2256, 1085, 2078, 606
0.139544, -1751, 798, 2256, 1085, 2078, 606
0.139678, -1751, 798, 2256, 1085, 2078, 606
0.139814, 2643, 997, 3441, 888, 1530, 904
0.139948, 2643, 997, 3441, 888, 1530, 904
0.140083, 2643, 997, 3441, 888, 1530, 904
0.140218, 2643, 997, 3441, 888, 1530, 904
0.140352, 2643, 997, 3441, 888, 1530, 904
0.140487, 2643, 997, 3441, 888, 1530, 904
0.140621, 2643, 997, 3441, 888, 1530, 904
0.140756, 5638, 1693, 4508, 1239, 1047, -1471
0.140891, 5638, 1693, 4508, 1239, 1047, -1471
0.141025, 5638, 1693, 4508, 1239, 1047, -1471
0.141160, 5638, 1693, 4508, 1239, 1047, -1471
0.141295, 5638, 1693, 4508, 1239, 1047, -1471
0.141429, 5638, 1693, 4508, 1239, 1047, -1471
0.141564, 5638, 1693, 4508, 1239, 1047, -1471
0.141698, 5638, 1693, 4508, 1239, 1047, -1471
0.141833, 3254, 1353, 5230, 2520, 1114, -4669
0.141968, 3254, 1353, 5230, 2520, 1114, -4669
0.142102, 3254, 1353, 5230, 2520, 1114, -4669
0.142237, 3254, 1353, 5230, 2520, 1114, -4669
0.142372, 3254, 1353, 5230, 2520, 1114, -4669
0.142506, 3254, 1353, 5230, 2520, 1114, -4669
0.142641, 3254, 1353, 5230, 2520, 1114, -4669
0.142775, -1774, 28, 3250, 4270, 1607, -5488
0.142910, -1774, 28, 3250, 4270, 1607, -5488
0.143045, -1774, 28, 3250, 4270, 1607, -5488
0.143180, -1774, 28, 3250, 4270, 1607, -5488
0.143314, -1774, 28, 3250, 4270, 1607, -5488
0.143449, -1774, 28, 3250, 4270, 1607, -5488
0.143583, -1774, 28, 3250, 4270, 1607, -5488
0.143718, -1774, 28, 3250, 4270, 1607, -5488
0.143853, -5150, -646, -2124, 4419, 1535, -3527
0.143988, -5150, -646, -2124, 4419, 1535, -3527
0.144122, -5150, -646, -2124, 4419, 1535, -3527
0.144257, -5150, -646, -2124, 4419, 1535, -3527
0.144392, -5150, -646, -2124, 4419, 1535, -3527
0.144526, -5150, -646, -2124, 4419, 1535, -3527
0.144661, -5150, -646, -2124, 4419, 1535, -3527
0.144795, -8473, -739, -3766, 1916, 695, 514
0.144930, -8473, -739, -3766, 1916, 695, 514
0.145065, -8473, -739, -3766, 1916, 695, 514
0.145200, -8473, -739, -3766, 1916, 695, 514
0.145334, -8473, -739, -3766, 1916, 695, 514
0.145469, -8473, -739, -3766, 1916, 695, 514
0.145604, -8473, -739, -3766, 1916, 695, 514
0.145738, -8473, -739, -3766, 1916, 695, 514
0.145873, -5888, 321, 796, -431, -679, 5646
0.146008, -5888, 321, 796, -431, -679, 5646
0.146142, -5888, 321, 796, -431, -679, 5646
0.146277, -5888, 321, 796, -431, -679, 5646
0.146412, -5888, 321, 796, -431, -679, 5646
0.146546, -5888, 321, 796, -431, -679, 5646
0.146681, -5888, 321, 796, -431, -679, 5646
0.146815, 613, 940, 3476, -988, -1602, 7892
0.146950, 613, 940, 3476, -988, -1602, 7892
0.147085, 613, 940, 3476, -988, -1602, 7892
0.147220, 613, 940, 3476, -988, -1602, 7892
0.147354, 613, 940, 3476, -988, -1602, 7892
0.147489, 613, 940, 3476, -988, -1602, 7892
0.147624, 613, 940, 3476, -988, -1602, 7892
0.147759, 613, 940, 3476, -988, -1602, 7892
0.147897, 3559, 497, 2486, -1583, -1688, 6528
0.148034, 3559, 497, 2486, -1583, -1688, 6528
0.148169, 3559, 497, 2486, -1583, -1688, 6528
0.148304, 3559, 497, 2486, -1583, -1688, 6528
0.148439, 3559, 497, 2486, -1583, -1688, 6528
0.148573, 3559, 497, 2486, -1583, -1688, 6528
0.148708, 3559, 497, 2486, -1583, -1688, 6528
0.148842, 6033, 397, 2195, -2563, -2011, 3604
0.148977, 6033, 397, 2195, -2563, -2011, 3604
0.149112, 6033, 397, 2195, -2563, -2011, 3604
0.149246, 6033, 397, 2195, -2563, -2011, 3604
0.149381, 6033, 397, 2195, -2563, -2011, 3604
0.149516, 6033, 397, 2195, -2563, -2011, 3604
0.149650, 6033, 397, 2195, -2563, -2011, 3604
0.149785, 6033, 397, 2195, -2563, -2011, 3604
0.149920, 6353, 254, 2876, -2695, -2329, -611
0.150054, 6353, 254, 2876, -2695, -2329, -611
0.150189, 6353, 254, 2876, -2695, -2329, -611
0.150324, 6353, 254, 2876, -2695, -2329, -611
0.150458, 6353, 254, 2876, -2695, -2329, -611
0.150593, 6353, 254, 2876, -2695, -2329, -611
0.150728, 6353, 254, 2876, -2695, -2329, -611
0.150862, 878, 183, 2595, -1774, -1821, -3699
0.150997, 878, 183, 2595, -1774, -1821, -3699
0.151132, 878, 183, 2595, -1774, -1821, -3699
0.151266, 878, 183, 2595, -1774, -1821, -3699
0.151401, 878, 183, 2595, -1774, -1821, -3699
0.151536, 878, 183, 2595, -1774, -1821, -3699
0.151670, 878, 183, 2595, -1774, -1821, -3699
0.151805, 878, 183, 2595, -1774, -1821, -3699
0.151940, -2996, 461, 1610, -549, -802, -3084
0.152075, -2996, 461, 1610, -549, -802, -3084
0.152209, -2996, 461, 1610, -549, -802, -3084
0.152344, -2996, 461, 1610, -549, -802, -3084
0.152479, -2996, 461, 1610, -549, -802, -3084
0.152613, -2996, 461, 1610, -549, -802, -3084
0.152748, -2996, 461, 1610, -549, -802, -3084
0.152883, -1132, 486, 1650, 298, 251, -1200
0.153017, -1132, 486, 1650, 298, 251, -1200
0.153152, -1132, 486, 1650, 298, 251, -1200
0.153287, -1132, 486, 1650, 298, 251, -1200
0.153421, -1132, 486, 1650, 298, 251, -1200
0.153556, -1132, 486, 1650, 298, 251, -1200
0.153691, -1132, 486, 1650, 298, 251, -1200
0.153825, -1132, 486, 1650, 298, 251, -1200
0.153960, -258, 347, 2185, 626, 1007, -512
0.154095, -258, 347, 2185, 626, 1007, -512
0.154229, -258, 347, 2185, 626, 1007, -512
0.154364, -258, 347, 2185, 626, 1007, -512
0.154499, -258, 347, 2185, 626, 1007, -512
0.154633, -258, 347, 2185, 626, 1007, -512
0.154768, -258, 347, 2185, 626, 1007, -512
0.154902, -275, 520, 2096, 488, 1350, 49
0.155037, -275, 520, 2096, 488, 1350, 49
0.155172, -275, 520, 2096, 488, 1350, 49
0.155306, -275, 520, 2096, 488, 1350, 49
0.155441, -275, 520, 2096, 488, 1350, 49
0.155575, -275, 520, 2096, 488, 1350, 49
0.155710, -275, 520, 2096, 488, 1350, 49
0.155845, -275, 520, 2096, 488, 1350, 49
0.155980, 2701, 525, 2383, 200, 1506, -140
0.156114, 2701, 525, 2383, 200, 1506, -140
0.156249, 2701, 525, 2383, 200, 1506, -140
0.156384, 2701, 525, 2383, 200, 1506, -140
0.156518, 2701, 525, 2383, 200, 1506, -140
0.156653, 2701, 525, 2383, 200, 1506, -140
0.156787, 2701, 525, 2383, 200, 1506, -140
0.156922, 3898, 309, 3008, 271, 1725, -2264
0.157057, 3898, 309, 3008, 271, 1725, -2264
0.157191, 3898, 309, 3008, 271, 1725, -2264
0.157326, 3898, 309, 3008, 271, 1725, -2264
0.157460, 3898, 309, 3008, 271, 1725, -2264
0.157595, 3898, 309, 3008, 271, 1725, -2264
0.157730, 3898, 309, 3008, 271, 1725, -2264
0.157864, 3898, 309, 3008, 271, 1725, -2264
0.157999, 1358, 495, 2701, 693, 2060, -4244
0.158134, 1358, 495, 2701, 693, 2060, -4244
0.158268, 1358, 495, 2701, 693, 2060, -4244
0.158403, 1358, 495, 2701, 693, 2060, -4244
0.158537, 1358, 495, 2701, 693, 2060, -4244
0.158672, 1358, 495, 2701, 693, 2060, -4244
0.158807, 1358, 495, 2701, 693, 2060, -4244
0.158941, 1358, 495, 2701, 693, 2060, -4244
0.159076, -1558, 641, 1813, 1101, 2361, -4334
0.159211, -1558, 641, 1813, 1101, 2361, -4334
0.159345, -1558, 641, 1813, 1101, 2361, -4334
0.159480, -1558, 641, 1813, 1101, 2361, -4334
0.159614, -1558, 641, 1813, 1101, 2361, -4334
0.159749, -1558, 641, 1813, 1101, 2361, -4334
0.159884, -1558, 641, 1813, 1101, 2361, -4334
0.160019, -3037, 488, 1617, 1417, 2301, -2925
0.160154, -3037, 488, 1617, 1417, 2301, -2925
0.160297, -3037, 488, 1617, 1417, 2301, -2925
0.160432, -3037, 488, 1617, 1417, 2301, -2925
0.160566, -3037, 488, 1617, 1417, 2301, -2925
0.160701, -3037, 488, 1617, 1417, 2301, -2925
0.160836, -3037, 488, 1617, 1417, 2301, -2925
0.160971, -3037, 488, 1617, 1417, 2301, -2925
0.161105, -2662, 560, 1844, 1615, 1674, -1058
0.161240, -2662, 560, 1844, 1615, 1674, -1058
0.161374, -2662, 560, 1844, 1615, 1674, -1058
0.161509, -2662, 560, 1844, 1615, 1674, -1058
0.161643, -2662, 560, 1844, 1615, 1674, -1058
0.161778, -2662, 560, 1844, 1615, 1674, -1058
0.161912, -2662, 560, 1844, 1615, 1674, -1058
0.162046, -1654, 602, 1802, 1429, 807, 415
0.162181, -1654, 602, 1802, 1429, 807, 415
0.162316, -1654, 602, 1802, 1429, 807, 415
0.162450, -1654, 602, 1802, 1429, 807, 415
0.162584, -1654, 602, 1802, 1429, 807, 415
0.162719, -1654, 602, 1802, 1429, 807, 415
0.162853, -1654, 602, 1802, 1429, 807, 415
0.162988, -1654, 602, 1802, 1429, 807, 415
0.163122, -413, 534, 1827, 883, 70, 1191
0.163257, -413, 534, 1827, 883, 70, 1191
0.163391, -413, 534, 1827, 883, 70, 1191
0.163526, -413, 534, 1827, 883, 70, 1191
0.163660, -413, 534, 1827, 883, 70, 1191
0.163795, -413, 534, 1827, 883, 70, 1191
0.163930, -413, 534, 1827, 883, 70, 1191
0.164064, 1066, 659, 1946, 336, -430, 1091
0.164199, 1066, 659, 1946, 336, -430, 1091
0.164333, 1066, 659, 1946, 336, -430, 1091
0.164468, 1066, 659, 1946, 336, -430, 1091
0.164602, 1066, 659, 1946, 336, -430, 1091
0.164737, 1066, 659, 1946, 336, -430, 1091
0.164871, 1066, 659, 1946, 336, -430, 1091
0.165006, 1066, 659, 1946, 336, -430, 1091
0.165141, 1925, 714, 1963, -29, -670, 164
0.165275, 1925, 714, 1963, -29, -670, 164
0.165410, 1925, 714, 1963, -29, -670, 164
0.165544, 1925, 714, 1963, -29, -670, 164
0.165679, 1925, 714, 1963, -29, -670, 164
0.165813, 1925, 714, 1963, -29, -670, 164
0.165948, 1925, 714, 1963, -29, -670, 164
0.166083, 1055, 386, 1670, -229, -634, -904
0.166217, 1055, 386, 1670, -229, -634, -904
0.166352, 1055, 386, 1670, -229, -634, -904
0.166487, 1055, 386, 1670, -229, -634, -904
0.166621, 1055, 386, 1670, -229, -634, -904
0.166756, 1055, 386, 1670, -229, -634, -904
0.166890, 1055, 386, 1670, -229, -634, -904
0.167025, 1055, 386, 1670, -229, -634, -904
0.167159, -1268, -31, 1336, -335, -355, -1006
0.167294, -1268, -31, 1336, -335, -355, -1006
0.167429, -1268, -31, 1336, -335, -355, -1006
0.167563, -1268, -31, 1336, -335, -355, -1006
0.167698, -1268, -31, 1336, -335, -355, -1006
0.167833, -1268, -31, 1336, -335, -355, -1006
0.167968, -1268, -31, 1336, -335, -355, -1006
0.168102, -2103, -28, 1845, -212, -122, 180
0.168237, -2103, -28, 1845, -212, -122, 180
0.168372, -2103, -28, 1845, -212, -122, 180
0.168506, -2103, -28, 1845, -212, -122, 180
0.168641, -2103, -28, 1845, -212, -122, 180
0.168775, -2103, -28, 1845, -212, -122, 180
0.168910, -2103, -28, 1845, -212, -122, 180
0.169045, -2103, -28, 1845, -212, -122, 180
0.169179, 959, 509, 3025, 361, -240, 1091
0.169314, 959, 509, 3025, 361, -240, 1091
0.169449, 959, 509, 3025, 361, -240, 1091
0.169583, 959, 509, 3025, 361, -240, 1091
0.169718, 959, 509, 3025, 361, -240, 1091
0.169852, 959, 509, 3025, 361, -240, 1091
0.169987, 959, 509, 3025, 361, -240, 1091
0.170121, 5224, 1000, 3648, 1156, -511, -529
0.170256, 5224, 1000, 3648, 1156, -511, -529
0.170391, 5224, 1000, 3648, 1156, -511, -529
0.170525, 5224, 1000, 3648, 1156, -511, -529
0.170660, 5224, 1000, 3648, 1156, -511, -529
0.170795, 5224, 1000, 3648, 1156, -511, -529
0.170929, 5224, 1000, 3648, 1156, -511, -529
0.171064, 5224, 1000, 3648, 1156, -511, -529
0.171198, 3789, 597, 3008, 1744, -125, -3798
0.171333, 3789, 597, 3008, 1744, -125, -3798
0.171468, 3789, 597, 3008, 1744, -125, -3798
0.171602, 3789, 597, 3008, 1744, -125, -3798
0.171737, 3789, 597, 3008, 1744, -125, -3798
0.171872, 3789, 597, 3008, 1744, -125, -3798
0.172007, 3789, 597, 3008, 1744, -125, -3798
0.172141, -1377, 105, 1540, 2094, 919, -4904
0.172276, -1377, 105, 1540, 2094, 919, -4904
0.172411, -1377, 105, 1540, 2094, 919, -4904
0.172545, -1377, 105, 1540, 2094, 919, -4904
0.172680, -1377, 105, 1540, 2094, 919, -4904
0.172818, -1377, 105, 1540, 2094, 919, -4904
0.172953, -1377, 105, 1540, 2094, 919, -4904
0.173088, -1377, 105, 1540, 2094, 919, -4904
0.173222, -2509, 377, 256, 2104, 1478, -3399
0.173357, -2509, 377, 256, 2104, 1478, -3399
0.173492, -2509, 377, 256, 2104, 1478, -3399
0.173626, -2509, 377, 256, 2104, 1478, -3399
0.173761, -2509, 377, 256, 2104, 1478, -3399
0.173895, -2509, 377, 256, 2104, 1478, -3399
0.174030, -2509, 377, 256, 2104, 1478, -3399
0.174164, -1152, 405, 390, 1556, 1251, -1973
0.174299, -1152, 405, 390, 1556, 1251, -1973
0.174434, -1152, 405, 390, 1556, 1251, -1973
0.174568, -1152, 405, 390, 1556, 1251, -1973
0.174703, -1152, 405, 390, 1556, 1251, -1973
0.174838, -1152, 405, 390, 1556, 1251, -1973
0.174972, -1152, 405, 390, 1556, 1251, -1973
0.175107, -1152, 405, 390, 1556, 1251, -1973
0.175241, -599, 285, 1759, 996, 912, -1292
0.175376, -599, 285, 1759, 996, 912, -1292
0.175511, -599, 285, 1759, 996, 912, -1292
0.175645, -599, 285, 1759, 996, 912, -1292
0.175780, -599, 285, 1759, 996, 912, -1292
0.175915, -599, 285, 1759, 996, 912, -1292
0.176049, -599, 285, 1759, 996, 912, -1292
0.176184, -575, 396, 2452, 812, 917, -771
0.176319, -575, 396, 2452, 812, 917, -771
0.176453, -575, 396, 2452, 812, 917, -771
0.176588, -575, 396, 2452, 812, 917, -771
0.176723, -575, 396, 2452, 812, 917, -771
0.176857, -575, 396, 2452, 812, 917, -771
0.176992, -575, 396, 2452, 812, 917, -771
0.177127, -575, 396, 2452, 812, 917, -771
0.177261, -442, 281, 2305, 698, 1002, -365
0.177396, -442, 281, 2305, 698, 1002, -365
0.177531, -442, 281, 2305, 698, 1002, -365
0.177665, -442, 281, 2305, 698, 1002, -365
0.177800, -442, 281, 2305, 698, 1002, -365
0.177934, -442, 281, 2305, 698, 1002, -365
0.178069, -442, 281, 2305, 698, 1002, -365
0.178203, -442, 281, 2305, 698, 1002, -365
0.178338, 723, 290, 2185, 617, 553, -419
0.178473, 723, 290, 2185, 617, 553, -419
0.178607, 723, 290, 2185, 617, 553, -419
0.178742, 723, 290, 2185, 617, 553, -419
0.178877, 723, 290, 2185, 617, 553, -419
0.179011, 723, 290, 2185, 617, 553, -419
0.179146, 723, 290, 2185, 617, 553, -419
0.179280, 1635, 426, 2102, 593, -226, -1288
0.179415, 1635, 426, 2102, 593, -226, -1288
0.179550, 1635, 426, 2102, 593, -226, -1288
0.179684, 1635, 426, 2102, 593, -226, -1288
0.179819, 1635, 426, 2102, 593, -226, -1288
0.179954, 1635, 426, 2102, 593, -226, -1288
0.180089, 1635, 426, 2102, 593, -226, -1288
0.180223, 1635, 426, 2102, 593, -226, -1288
0.180358, 509, 436, 1949, 594, -608, -2246
0.180492, 509, 436, 1949, 594, -608, -2246
0.180627, 509, 436, 1949, 594, -608, -2246
0.180762, 509, 436, 1949, 594, -608, -2246
0.180896, 509, 436, 1949, 594, -608, -2246
0.181031, 509, 436, 1949, 594, -608, -2246
0.181166, 509, 436, 1949, 594, -608, -2246
0.181300, -1795, 506, 1846, 750, -369, -2042
0.181435, -1795, 506, 1846, 750, -369, -2042
0.181570, -1795, 506, 1846, 750, -369, -2042
0.181704, -1795, 506, 1846, 750, -369, -2042
0.181839, -1795, 506, 1846, 750, -369, -2042
0.181973, -1795, 506, 1846, 750, -369, -2042
0.182108, -1795, 506, 1846, 750, -369, -2042
0.182243, -1795, 506, 1846, 750, -369, -2042
0.182377, -3353, 414, 1625, 936, 121, -393
0.182512, -3353, 414, 1625, 936, 121, -393
0.182646, -3353, 414, 1625, 936, 121, -393
0.182781, -3353, 414, 1625, 936, 121, -393
0.182916, -3353, 414, 1625, 936, 121, -393
0.183050, -3353, 414, 1625, 936, 121, -393
0.183185, -3353, 414, 1625, 936, 121, -393
0.183319, -2831, 291, 1427, 783, 206, 1825
0.183454, -2831, 291, 1427, 783, 206, 1825
0.183589, -2831, 291, 1427, 783, 206, 1825
0.183724, -2831, 291, 1427, 783, 206, 1825
0.183858, -2831, 291, 1427, 783, 206, 1825
0.183993, -2831, 291, 1427, 783, 206, 1825
0.184128, -2831, 291, 1427, 783, 206, 1825
0.184262, -2831, 291, 1427, 783, 206, 1825
0.184397, -777, 432, 1864, 345, -275, 3250
0.184532, -777, 432, 1864, 345, -275, 3250
0.184666, -777, 432, 1864, 345, -275, 3250
0.184801, -777, 432, 1864, 345, -275, 3250
0.184936, -777, 432, 1864, 345, -275, 3250
0.185070, -777, 432, 1864, 345, -275, 3250
0.185205, -777, 432, 1864, 345, -275, 3250
0.185339, 668, 531, 2487, -35, -720, 3389
0.185474, 668, 531, 2487, -35, -720, 3389
0.185613, 668, 531, 2487, -35, -720, 3389
0.185748, 668, 531, 2487, -35, -720, 3389
0.185883, 668, 531, 2487, -35, -720, 3389
0.186017, 668, 531, 2487, -35, -720, 3389
0.186152, 668, 531, 2487, -35, -720, 3389
0.186286, 668, 531, 2487, -35, -720, 3389
0.186421, 1417, 494, 2726, -170, -802, 2795
0.186556, 1417, 494, 2726, -170, -802, 2795
0.186690, 1417, 494, 2726, -170, -802, 2795
0.186825, 1417, 494, 2726, -170, -802, 2795
0.186960, 1417, 494, 2726, -170, -802, 2795
0.187095, 1417, 494, 2726, -170, -802, 2795
0.187229, 1417, 494, 2726, -170, -802, 2795
0.187364, 2181, 488, 2660, 14, -733, 1710
0.187498, 2181, 488, 2660, 14, -733, 1710
0.187633, 2181, 488, 2660, 14, -733, 1710
0.187768, 2181, 488, 2660, 14, -733, 1710
0.187903, 2181, 488, 2660, 14, -733, 1710
0.188037, 2181, 488, 2660, 14, -733, 1710
0.188172, 2181, 488, 2660, 14, -733, 1710
0.188307, 2181, 488, 2660, 14, -733, 1710
0.188441, 2583, 616, 2524, 437, -607, 223
0.188576, 2583, 616, 2524, 437, -607, 223
0.188711, 2583, 616, 2524, 437, -607, 223
0.188845, 2583, 616, 2524, 437, -607, 223
0.188980, 2583, 616, 2524, 437, -607, 223
0.189114, 2583, 616, 2524, 437, -607, 223
0.189249, 2583, 616, 2524, 437, -607, 223
0.189384, 2569, 690, 2372, 957, -402, -1405
0.189518, 2569, 690, 2372, 957, -402, -1405
0.189653, 2569, 690, 2372, 957, -402, -1405
0.189788, 2569, 690, 2372, 957, -402, -1405
0.189922, 2569, 690, 2372, 957, -402, -1405
0.190057, 2569, 690, 2372, 957, -402, -1405
0.190191, 2569, 690, 2372, 957, -402, -1405
0.190326, 2569, 690, 2372, 957, -402, -1405
0.190461, 725, 428, 2025, 1477, 73, -2676
0.190595, 725, 428, 2025, 1477, 73, -2676
0.190730, 725, 428, 2025, 1477, 73, -2676
0.190865, 725, 428, 2025, 1477, 73, -2676
0.190999, 725, 428, 2025, 1477, 73, -2676
0.191134, 725, 428, 2025, 1477, 73, -2676
0.191269, 725, 428, 2025, 1477, 73, -2676
0.191403, -2557, 228, 1424, 1803, 811, -2302
0.191538, -2557, 228, 1424, 1803, 811, -2302
0.191672, -2557, 228, 1424, 1803, 811, -2302
0.191807, -2557, 228, 1424, 1803, 811, -2302
0.191942, -2557, 228, 1424, 1803, 811, -2302
0.192077, -2557, 228, 1424, 1803, 811, -2302
0.192211, -2557, 228, 1424, 1803, 811, -2302
0.192346, -2557, 228, 1424, 1803, 811, -2302
0.192480, -2912, 393, 1177, 1757, 1194, -308
0.192615, -2912, 393, 1177, 1757, 1194, -308
0.192750, -2912, 393, 1177, 1757, 1194, -308
0.192885, -2912, 393, 1177, 1757, 1194, -308
0.193019, -2912, 393, 1177, 1757, 1194, -308
0.193154, -2912, 393, 1177, 1757, 1194, -308
0.193288, -2912, 393, 1177, 1757, 1194, -308
0.193423, -373, 572, 1901, 1487, 966, 1111
0.193558, -373, 572, 1901, 1487, 966, 1111
0.193692, -373, 572, 1901, 1487, 966, 1111
0.193827, -373, 572, 1901, 1487, 966, 1111
0.193962, -373, 572, 1901, 1487, 966, 1111
0.194096, -373, 572, 1901, 1487, 966, 1111
0.194231, -373, 572, 1901, 1487, 966, 1111
0.194365, -373, 572, 1901, 1487, 966, 1111
0.194500, 1582, 728, 2716, 1287, 620, 921
0.194635, 1582, 728, 2716, 1287, 620, 921
0.194769, 1582, 728, 2716, 1287, 620, 921
0.194904, 1582, 728, 2716, 1287, 620, 921
0.195038, 1582, 728, 2716, 1287, 620, 921
0.195173, 1582, 728, 2716, 1287, 620, 921
0.195307, 1582, 728, 2716, 1287, 620, 921
0.195442, 2507, 874, 2386, 1137, 515, -281
0.195577, 2507, 874, 2386, 1137, 515, -281
0.195712, 2507, 874, 2386, 1137, 515, -281
0.195846, 2507, 874, 2386, 1137, 515, -281
0.195981, 2507, 874, 2386, 1137, 515, -281
0.196115, 2507, 874, 2386, 1137, 515, -281
0.196250, 2507, 874, 2386, 1137, 515, -281
0.196384, 2507, 874, 2386, 1137, 515, -281
0.196519, 1185, 537, 1514, 780, 677, -1669
0.196654, 1185, 537, 1514, 780, 677, -1669
0.196789, 1185, 537, 1514, 780, 677, -1669
0.196923, 1185, 537, 1514, 780, 677, -1669
0.197058, 1185, 537, 1514, 780, 677, -1669
0.197192, 1185, 537, 1514, 780, 677, -1669
0.197327, 1185, 537, 1514, 780, 677, -1669
0.197462, 1185, 537, 1514, 780, 677, -1669
0.197596, -1376, 157, 1846, 642, 845, -1792
0.197731, -1376, 157, 1846, 642, 845, -1792
0.197866, -1376, 157, 1846, 642, 845, -1792
0.198000, -1376, 157, 1846, 642, 845, -1792
0.198135, -1376, 157, 1846, 642, 845, -1792
0.198269, -1376, 157, 1846, 642, 845, -1792
0.198408, -1376, 157, 1846, 642, 845, -1792
0.198543, -575, 366, 2120, 1115, 583, -918
0.198678, -575, 366, 2120, 1115, 583, -918
0.198812, -575, 366, 2120, 1115, 583, -918
0.198947, -575, 366, 2120, 1115, 583, -918
0.199081, -575, 366, 2120, 1115, 583, -918
0.199216, -575, 366, 2120, 1115, 583, -918
0.199350, -575, 366, 2120, 1115, 583, -918
0.199485, -575, 366, 2120, 1115, 583, -918
0.199620, -27, 122, 762, 1112, 131, -872
0.199755, -27, 122, 762, 1112, 131, -872
0.199890, -27, 122, 762, 1112, 131, -872
0.200024, -27, 122, 762, 1112, 131, -872
0.200159, -27, 122, 762, 1112, 131, -872
0.200293, -27, 122, 762, 1112, 131, -872
0.200428, -27, 122, 762, 1112, 131, -872
0.200563, -2214, -277, 122, 87, -167, -480
0.200697, -2214, -277, 122, 87, -167, -480
0.200832, -2214, -277, 122, 87, -167, -480
0.200967, -2214, -277, 122, 87, -167, -480
0.201101, -2214, -277, 122, 87, -167, -480
0.201236, -2214, -277, 122, 87, -167, -480
0.201371, -2214, -277, 122, 87, -167, -480
0.201505, -2214, -277, 122, 87, -167, -480
0.201640, -1581, 239, 1454, -786, -477, 1002
0.201775, -1581, 239, 1454, -786, -477, 1002
0.201909, -1581, 239, 1454, -786, -477, 1002
0.202044, -1581, 239, 1454, -786, -477, 1002
0.202179, -1581, 239, 1454, -786, -477, 1002
0.202313, -1581, 239, 1454, -786, -477, 1002
0.202448, -1581, 239, 1454, -786, -477, 1002
0.202582, -50, 708, 2626, -893, -569, 1611
0.202717, -50, 708, 2626, -893, -569, 1611
0.202852, -50, 708, 2626, -893, -569, 1611
0.202987, -50, 708, 2626, -893, -569, 1611
0.203121, -50, 708, 2626, -893, -569, 1611
0.203256, -50, 708, 2626, -893, -569, 1611
0.203390, -50, 708, 2626, -893, -569, 1611
0.203525, -50, 708, 2626, -893, -569, 1611
0.203659, -1255, 592, 2325, -842, -343, 1805
0.203795, -1255, 592, 2325, -842, -343, 1805
0.203929, -1255, 592, 2325, -842, -343, 1805
0.204064, -1255, 592, 2325, -842, -343, 1805
0.204198, -1255, 592, 2325, -842, -343, 1805
0.204333, -1255, 592, 2325, -842, -343, 1805
0.204468, -1255, 592, 2325, -842, -343, 1805
0.204602, -2056, 467, 2014, -935, -197, 2920
0.204737, -2056, 467, 2014, -935, -197, 2920
0.204872, -2056, 467, 2014, -935, -197, 2920
0.205006, -2056, 467, 2014, -935, -197, 2920
0.205141, -2056, 467, 2014, -935, -197, 2920
0.205275, -2056, 467, 2014, -935, -197, 2920
0.205410, -2056, 467, 2014, -935, -197, 2920
0.205545, -2056, 467, 2014, -935, -197, 2920
0.205679, -1206, 529, 2209, -1018, -365, 4148
0.205814, -1206, 529, 2209, -1018, -365, 4148
0.205949, -1206, 529, 2209, -1018, -365, 4148
0.206083, -1206, 529, 2209, -1018, -365, 4148
0.206218, -1206, 529, 2209, -1018, -365, 4148
0.206352, -1206, 529, 2209, -1018, -365, 4148
0.206487, -1206, 529, 2209, -1018, -365, 4148
0.206621, 326, 494, 2092, -1179, -929, 4608
0.206756, 326, 494, 2092, -1179, -929, 4608
0.206891, 326, 494, 2092, -1179, -929, 4608
0.207025, 326, 494, 2092, -1179, -929, 4608
0.207160, 326, 494, 2092, -1179, -929, 4608
0.207295, 326, 494, 2092, -1179, -929, 4608
0.207429, 326, 494, 2092, -1179, -929, 4608
0.207564, 326, 494, 2092, -1179, -929, 4608
0.207699, 2965, 457, 1847, -1445, -1634, 3840
0.207833, 2965, 457, 1847, -1445, -1634, 3840
0.207968, 2965, 457, 1847, -1445, -1634, 3840
0.208102, 2965, 457, 1847, -1445, -1634, 3840
0.208237, 2965, 457, 1847, -1445, -1634, 3840
0.208372, 2965, 457, 1847, -1445, -1634, 3840
0.208506, 2965, 457, 1847, -1445, -1634, 3840
0.208641, 5174, 611, 1600, -1811, -1844, 1430
0.208775, 5174, 611, 1600, -1811, -1844, 1430
0.208910, 5174, 611, 1600, -1811, -1844, 1430
0.209044, 5174, 611, 1600, -1811, -1844, 1430
0.209179, 5174, 611, 1600, -1811, -1844, 1430
0.209314, 5174, 611, 1600, -1811, -1844, 1430
0.209448, 5174, 611, 1600, -1811, -1844, 1430
0.209583, 5174, 611, 1600, -1811, -1844, 1430
0.209717, 4427, 405, 1658, -2138, -1277, -1694
0.209852, 4427, 405, 1658, -2138, -1277, -1694
0.209987, 4427, 405, 1658, -2138, -1277, -1694
0.210121, 4427, 405, 1658, -2138, -1277, -1694
0.210256, 4427, 405, 1658, -2138, -1277, -1694
0.210390, 4427, 405, 1658, -2138, -1277, -1694
0.210525, 4427, 405, 1658, -2138, -1277, -1694
0.210660, 2117, 83, 2177, -1825, -215, -3792
0.210800, 2117, 83, 2177, -1825, -215, -3792
0.210936, 2117, 83, 2177, -1825, -215, -3792
0.211070, 2117, 83, 2177, -1825, -215, -3792
0.211205, 2117, 83, 2177, -1825, -215, -3792
0.211340, 2117, 83, 2177, -1825, -215, -3792
0.211474, 2117, 83, 2177, -1825, -215, -3792
0.211609, 2117, 83, 2177, -1825, -215, -3792
0.211744, 991, 433, 2615, -704, 973, -4577
0.211879, 991, 433, 2615, -704, 973, -4577
0.212013, 991, 433, 2615, -704, 973, -4577
0.212148, 991, 433, 2615, -704, 973, -4577
0.212283, 991, 433, 2615, -704, 973, -4577
0.212417, 991, 433, 2615, -704, 973, -4577
0.212552, 991, 433, 2615, -704, 973, -4577
0.212686, 784, 639, 2594, 469, 1965, -4920
0.212821, 784, 639, 2594, 469, 1965, -4920
0.212956, 784, 639, 2594, 469, 1965, -4920
0.213090, 784, 639, 2594, 469, 1965, -4920
0.213225, 784, 639, 2594, 469, 1965, -4920
0.213359, 784, 639, 2594, 469, 1965, -4920
0.213494, 784, 639, 2594, 469, 1965, -4920
0.213629, 784, 639, 2594, 469, 1965, -4920
0.213763, 1652, 614, 2538, 1187, 2503, -5353
0.213898, 1652, 614, 2538, 1187, 2503, -5353
0.214033, 1652, 614, 2538, 1187, 2503, -5353
0.214167, 1652, 614, 2538, 1187, 2503, -5353
0.214302, 1652, 614, 2538, 1187, 2503, -5353
0.214436, 1652, 614, 2538, 1187, 2503, -5353
0.214571, 1652, 614, 2538, 1187, 2503, -5353
0.214705, 2499, 619, 2502, 1528, 2750, -6487
0.214840, 2499, 619, 2502, 1528, 2750, -6487
0.214974, 2499, 619, 2502, 1528, 2750, -6487
0.215108, 2499, 619, 2502, 1528, 2750, -6487
0.215243, 2499, 619, 2502, 1528, 2750, -6487
0.215377, 2499, 619, 2502, 1528, 2750, -6487
0.215512, 2499, 619, 2502, 1528, 2750, -6487
0.215647, 2499, 619, 2502, 1528, 2750, -6487
0.215781, 257, 365, 2524, 1757, 3192, -7546
0.215916, 257, 365, 2524, 1757, 3192, -7546
0.216051, 257, 365, 2524, 1757, 3192, -7546
0.216185, 257, 365, 2524, 1757, 3192, -7546
0.216320, 257, 365, 2524, 1757, 3192, -7546
0.216454, 257, 365, 2524, 1757, 3192, -7546
0.216589, 257, 365, 2524, 1757, 3192, -7546
0.216724, 257, 365, 2524, 1757, 3192, -7546
0.216858, -1994, 463, 2076, 2176, 3609, -6940
0.216993, -1994, 463, 2076, 2176, 3609, -6940
0.217127, -1994, 463, 2076, 2176, 3609, -6940
0.217262, -1994, 463, 2076, 2176, 3609, -6940
0.217397, -1994, 463, 2076, 2176, 3609, -6940
0.217531, -1994, 463, 2076, 2176, 3609, -6940
0.217666, -1994, 463, 2076, 2176, 3609, -6940
0.217800, -2063, 341, 172, 1924, 3489, -5562
0.217935, -2063, 341, 172, 1924, 3489, -5562
0.218070, -2063, 341, 172, 1924, 3489, -5562
0.218204, -2063, 341, 172, 1924, 3489, -5562
0.218339, -2063, 341, 172, 1924, 3489, -5562
0.218473, -2063, 341, 172, 1924, 3489, -5562
0.218608, -2063, 341, 172, 1924, 3489, -5562
0.218742, -2063, 341, 172, 1924, 3489, -5562
0.218877, -2470, 23, -123, 544, 2866, -4268
0.219012, -2470, 23, -123, 544, 2866, -4268
0.219147, -2470, 23, -123, 544, 2866, -4268
0.219281, -2470, 23, -123, 544, 2866, -4268
0.219416, -2470, 23, -123, 544, 2866, -4268
0.219550, -2470, 23, -123, 544, 2866, -4268
0.219685, -2470, 23, -123, 544, 2866, -4268
0.219820, -3576, 228, 1867, -470, 2057, -2443
0.219955, -3576, 228, 1867, -470, 2057, -2443
0.220089, -3576, 228, 1867, -470, 2057, -2443
0.220224, -3576, 228, 1867, -470, 2057, -2443
0.220358, -3576, 228, 1867, -470, 2057, -2443
0.220493, -3576, 228, 1867, -470, 2057, -2443
0.220628, -3576, 228, 1867, -470, 2057, -2443
0.220762, -3576, 228, 1867, -470, 2057, -2443
0.220897, -4020, 496, 3002, -485, 1419, 0
0.221032, -4020, 496, 3002, -485, 1419, 0
0.221166, -4020, 496, 3002, -485, 1419, 0
0.221301, -4020, 496, 3002, -485, 1419, 0
0.221435, -4020, 496, 3002, -485, 1419, 0
0.221570, -4020, 496, 3002, -485, 1419, 0
0.221705, -4020, 496, 3002, -485, 1419, 0
0.221839, -2353, 693, 2854, -224, 610, 2139
0.221974, -2353, 693, 2854, -224, 610, 2139
0.222109, -2353, 693, 2854, -224, 610, 2139
0.222243, -2353, 693, 2854, -224, 610, 2139
0.222378, -2353, 693, 2854, -224, 610, 2139
0.222512, -2353, 693, 2854, -224, 610, 2139
0.222647, -2353, 693, 2854, -224, 610, 2139
0.222781, -2353, 693, 2854, -224, 610, 2139
0.222916, 203, 683, 2287, -307, -531, 2866
0.223051, 203, 683, 2287, -307, -531, 2866
0.223189, 203, 683, 2287, -307, -531, 2866
0.223324, 203, 683, 2287, -307, -531, 2866
0.223459, 203, 683, 2287, -307, -531, 2866
0.223593, 203, 683, 2287, -307, -531, 2866
0.223728, 203, 683, 2287, -307, -531, 2866
0.223863, 1521, 550, 1940, -837, -1480, 2290
0.223998, 1521, 550, 1940, -837, -1480, 2290
0.224132, 1521, 550, 1940, -837, -1480, 2290
0.224267, 1521, 550, 1940, -837, -1480, 2290
0.224402, 1521, 550, 1940, -837, -1480, 2290
0.224536, 1521, 550, 1940, -837, -1480, 2290
0.224671, 1521, 550, 1940, -837, -1480, 2290
0.224805, 1521, 550, 1940, -837, -1480, 2290
0.224940, 1645, 448, 1735, -1354, -1992, 1248
0.225075, 1645, 448, 1735, -1354, -1992, 1248
0.225209, 1645, 448, 1735, -1354, -1992, 1248
0.225344, 1645, 448, 1735, -1354, -1992, 1248
0.225479, 1645, 448, 1735, -1354, -1992, 1248
0.225613, 1645, 448, 1735, -1354, -1992, 1248
0.225748, 1645, 448, 1735, -1354, -1992, 1248
0.225882, 1579, 314, 1782, -1525, -1926, 241
0.226017, 1579, 314, 1782, -1525, -1926, 241
0.226152, 1579, 314, 1782, -1525, -1926, 241
0.226286, 1579, 314, 1782, -1525, -1926, 241
0.226421, 1579, 314, 1782, -1525, -1926, 241
0.226556, 1579, 314, 1782, -1525, -1926, 241
0.226690, 1579, 314, 1782, -1525, -1926, 241
0.226825, 1579, 314, 1782, -1525, -1926, 241
0.226959, 1563, 242, 2590, -1231, -1311, -692
0.227094, 1563, 242, 2590, -1231, -1311, -692
0.227229, 1563, 242, 2590, -1231, -1311, -692
0.227363, 1563, 242, 2590, -1231, -1311, -692
0.227498, 1563, 242, 2590, -1231, -1311, -692
0.227633, 1563, 242, 2590, -1231, -1311, -692
0.227767, 1563, 242, 2590, -1231, -1311, -692
0.227902, 1365, 362, 3345, -321, -408, -1512
0.228037, 1365, 362, 3345, -321, -408, -1512
0.228172, 1365, 362, 3345, -321, -408, -1512
0.228306, 1365, 362, 3345, -321, -408, -1512
0.228441, 1365, 362, 3345, -321, -408, -1512
0.228575, 1365, 362, 3345, -321, -408, -1512
0.228710, 1365, 362, 3345, -321, -408, -1512
0.228845, 1365, 362, 3345, -321, -408, -1512
0.228979, 1404, 482, 2571, 626, 515, -2222
0.229114, 1404, 482, 2571, 626, 515, -2222
0.229249, 1404, 482, 2571, 626, 515, -2222
0.229383, 1404, 482, 2571, 626, 515, -2222
0.229518, 1404, 482, 2571, 626, 515, -2222
0.229653, 1404, 482, 2571, 626, 515, -2222
0.229787, 1404, 482, 2571, 626, 515, -2222
0.229922, 740, 233, 1259, 745, 1236, -2938
0.230057, 740, 233, 1259, 745, 1236, -2938
0.230191, 740, 233, 1259, 745, 1236, -2938
0.230326, 740, 233, 1259, 745, 1236, -2938
0.230460, 740, 233, 1259, 745, 1236, -2938
0.230595, 740, 233, 1259, 745, 1236, -2938
0.230730, 740, 233, 1259, 745, 1236, -2938
0.230864, 740, 233, 1259, 745, 1236, -2938
0.230999, -178, 161, 896, 235, 1605, -3127
0.231134, -178, 161, 896, 235, 1605, -3127
0.231272, -178, 161, 896, 235, 1605, -3127
0.231414, -178, 161, 896, 235, 1605, -3127
0.231553, -178, 161, 896, 235, 1605, -3127
0.231699, -178, 161, 896, 235, 1605, -3127
0.231840, -178, 161, 896, 235, 1605, -3127
0.231976, 868, 573, 1274, -329, 1621, -3122
0.232112, 868, 573, 1274, -329, 1621, -3122
0.232247, 868, 573, 1274, -329, 1621, -3122
0.232382, 868, 573, 1274, -329, 1621, -3122
0.232519, 868, 573, 1274, -329, 1621, -3122
0.232657, 868, 573, 1274, -329, 1621, -3122
0.232796, 868, 573, 1274, -329, 1621, -3122
0.232932, 868, 573, 1274, -329, 1621, -3122
0.233068, 914, 588, 1815, -702, 1761, -3740
0.233204, 914, 588, 1815, -702, 1761, -3740
0.233343, 914, 588, 1815, -702, 1761, -3740
0.233481, 914, 588, 1815, -702, 1761, -3740
0.233618, 914, 588, 1815, -702, 1761, -3740
0.233758, 914, 588, 1815, -702, 1761, -3740
0.233890, 914, 588, 1815, -702, 1761, -3740
0.234026, -1505, 195, 1799, -887, 2241, -3712
0.234166, -1505, 195, 1799, -887, 2241, -3712
0.234303, -1505, 195, 1799, -887, 2241, -3712
0.234438, -1505, 195, 1799, -887, 2241, -3712
0.234573, -1505, 195, 1799, -887, 2241, -3712
0.234709, -1505, 195, 1799, -887, 2241, -3712
0.234851, -1505, 195, 1799, -887, 2241, -3712
0.234990, -2031, 291, 1702, -1013, 2384, -2397
0.235126, -2031, 291, 1702, -1013, 2384, -2397
0.235261, -2031, 291, 1702, -1013, 2384, -2397
0.235399, -2031, 291, 1702, -1013, 2384, -2397
0.235535, -2031, 291, 1702, -1013, 2384, -2397
0.235700, -2031, 291, 1702, -1013, 2384, -2397
0.235846, -2031, 291, 1702, -1013, 2384, -2397
0.235981, -2031, 291, 1702, -1013, 2384, -2397
0.236118, -884, 554, 2405, -976, 1821, -1338
0.236258, -884, 554, 2405, -976, 1821, -1338
0.236394, -884, 554, 2405, -976, 1821, -1338
0.236534, -884, 554, 2405, -976, 1821, -1338
0.236672, -884, 554, 2405, -976, 1821, -1338
0.236808, -884, 554, 2405, -976, 1821, -1338
0.236943, -884, 554, 2405, -976, 1821, -1338
0.237081, -215, 660, 2623, -817, 1000, -1008
0.237216, -215, 660, 2623, -817, 1000, -1008
0.237351, -215, 660, 2623, -817, 1000, -1008
0.237488, -215, 660, 2623, -817, 1000, -1008
0.237624, -215, 660, 2623, -817, 1000, -1008
0.237759, -215, 660, 2623, -817, 1000, -1008
0.237895, -215, 660, 2623, -817, 1000, -1008
0.238033, 496, 745, 2077, -880, 332, -1061
0.238172, 496, 745, 2077, -880, 332, -1061
0.238308, 496, 745, 2077, -880, 332, -1061
0.238443, 496, 745, 2077, -880, 332, -1061
0.238579, 496, 745, 2077, -880, 332, -1061
0.238716, 496, 745, 2077, -880, 332, -1061
0.238859, 496, 745, 2077, -880, 332, -1061
0.239001, 496, 745, 2077, -880, 332, -1061
0.239139, -606, 517, 2027, -1002, 92, -1224
0.239282, -606, 517, 2027, -1002, 92, -1224
0.239426, -606, 517, 2027, -1002, 92, -1224
0.239563, -606, 517, 2027, -1002, 92, -1224
0.239700, -606, 517, 2027, -1002, 92, -1224
0.239835, -606, 517, 2027, -1002, 92, -1224
0.239972, -606, 517, 2027, -1002, 92, -1224
0.240108, -2804, 327, 1800, -984, 193, -247
0.240243, -2804, 327, 1800, -984, 193, -247
0.240378, -2804, 327, 1800, -984, 193, -247
0.240512, -2804, 327, 1800, -984, 193, -247
0.240647, -2804, 327, 1800, -984, 193, -247
0.240781, -2804, 327, 1800, -984, 193, -247
0.240916, -2804, 327, 1800, -984, 193, -247
0.241050, -2804, 327, 1800, -984, 193, -247
0.241184, -2079, 450, 1632, -1021, 39, 1610
0.241319, -2079, 450, 1632, -1021, 39, 1610
0.241453, -2079, 450, 1632, -1021, 39, 1610
0.241588, -2079, 450, 1632, -1021, 39, 1610
0.241722, -2079, 450, 1632, -1021, 39, 1610
0.241857, -2079, 450, 1632, -1021, 39, 1610
0.241991, -2079, 450, 1632, -1021, 39, 1610
0.242125, 35, 543, 2029, -1125, -394, 2450
0.242260, 35, 543, 2029, -1125, -394, 2450
0.242394, 35, 543, 2029, -1125, -394, 2450
0.242529, 35, 543, 2029, -1125, -394, 2450
0.242663, 35, 543, 2029, -1125, -394, 2450
0.242797, 35, 543, 2029, -1125, -394, 2450
0.242932, 35, 543, 2029, -1125, -394, 2450
0.243066, 35, 543, 2029, -1125, -394, 2450
0.243201, -67, 520, 2248, -1343, -584, 2318
0.243335, -67, 520, 2248, -1343, -584, 2318
0.243470, -67, 520, 2248, -1343, -584, 2318
0.243599, -67, 520, 2248, -1343, -584, 2318
0.243731, -67, 520, 2248, -1343, -584, 2318
0.243864, -67, 520, 2248, -1343, -584, 2318
0.243998, -67, 520, 2248, -1343, -584, 2318
0.244133, -1808, 437, 2333, -1486, -471, 2755
0.244267, -1808, 437, 2333, -1486, -471, 2755
0.244402, -1808, 437, 2333, -1486, -471, 2755
0.244536, -1808, 437, 2333, -1486, -471, 2755
0.244670, -1808, 437, 2333, -1486, -471, 2755
0.244805, -1808, 437, 2333, -1486, -471, 2755
0.244939, -1808, 437, 2333, -1486, -471, 2755
0.245074, -1808, 437, 2333, -1486, -471, 2755
0.245208, -2216, 441, 2312, -1335, -438, 4046
0.245343, -2216, 441, 2312, -1335, -438, 4046
0.245477, -2216, 441, 2312, -1335, -438, 4046
0.245612, -2216, 441, 2312, -1335, -438, 4046
0.245746, -2216, 441, 2312, -1335, -438, 4046
0.245880, -2216, 441, 2312, -1335, -438, 4046
0.246015, -2216, 441, 2312, -1335, -438, 4046
0.246149, -547, 522, 2182, -1237, -755, 5025
0.246284, -547, 522, 2182, -1237, -755, 5025
0.246418, -547, 522, 2182, -1237, -755, 5025
0.246552, -547, 522, 2182, -1237, -755, 5025
0.246687, -547, 522, 2182, -1237, -755, 5025
0.246821, -547, 522, 2182, -1237, -755, 5025
0.246956, -547, 522, 2182, -1237, -755, 5025
0.247090, -547, 522, 2182, -1237, -755, 5025
0.247225, 1430, 461, 2280, -1364, -1265, 4832
0.247359, 1430, 461, 2280, -1364, -1265, 4832
0.247494, 1430, 461, 2280, -1364, -1265, 4832
0.247628, 1430, 461, 2280, -1364, -1265, 4832
0.247763, 1430, 461, 2280, -1364, -1265, 4832
0.247897, 1430, 461, 2280, -1364, -1265, 4832
0.248031, 1430, 461, 2280, -1364, -1265, 4832
0.248189, 3056, 450, 2460, -1493, -1550, 3532
0.248326, 3056, 450, 2460, -1493, -1550, 3532
0.248462, 3056, 450, 2460, -1493, -1550, 3532
0.248599, 3056, 450, 2460, -1493, -1550, 3532
0.248733, 3056, 450, 2460, -1493, -1550, 3532
0.248868, 3056, 450, 2460, -1493, -1550, 3532
0.249002, 3056, 450, 2460, -1493, -1550, 3532
0.249137, 3056, 450, 2460, -1493, -1550, 3532
0.249271, 4817, 687, 2677, -1399, -1415, 1226
0.249406, 4817, 687, 2677, -1399, -1415, 1226
0.249540, 4817, 687, 2677, -1399, -1415, 1226
0.249675, 4817, 687, 2677, -1399, -1415, 1226
0.249805, 4817, 687, 2677, -1399, -1415, 1226
0.249939, 4817, 687, 2677, -1399, -1415, 1226
0.250074, 4817, 687, 2677, -1399, -1415, 1226
0.250208, 4933, 652, 3124, -835, -832, -1968
0.250343, 4933, 652, 3124, -835, -832, -1968
0.250477, 4933, 652, 3124, -835, -832, -1968
0.250611, 4933, 652, 3124, -835, -832, -1968
0.250746, 4933, 652, 3124, -835, -832, -1968
0.250880, 4933, 652, 3124, -835, -832, -1968
0.251015, 4933, 652, 3124, -835, -832, -1968
0.251149, 4933, 652, 3124, -835, -832, -1968
0.251284, 1960, 469, 3185, 276, 250, -4453
0.251418, 1960, 469, 3185, 276, 250, -4453
0.251553, 1960, 469, 3185, 276, 250, -4453
0.251687, 1960, 469, 3185, 276, 250, -4453
0.251822, 1960, 469, 3185, 276, 250, -4453
0.251957, 1960, 469, 3185, 276, 250, -4453
0.252091, 1960, 469, 3185, 276, 250, -4453
0.252226, 1135, 1157, 3220, 1808, 1332, -5082
0.252360, 1135, 1157, 3220, 1808, 1332, -5082
0.252495, 1135, 1157, 3220, 1808, 1332, -5082
0.252629, 1135, 1157, 3220, 1808, 1332, -5082
0.252763, 1135, 1157, 3220, 1808, 1332, -5082
0.252898, 1135, 1157, 3220, 1808, 1332, -5082
0.253032, 1135, 1157, 3220, 1808, 1332, -5082
0.253167, 1135, 1157, 3220, 1808, 1332, -5082
0.253301, 2977, 1057, 2674, 3255, 2006, -6035
0.253436, 2977, 1057, 2674, 3255, 2006, -6035
0.253570, 2977, 1057, 2674, 3255, 2006, -6035
0.253705, 2977, 1057, 2674, 3255, 2006, -6035
0.253839, 2977, 1057, 2674, 3255, 2006, -6035
0.253974, 2977, 1057, 2674, 3255, 2006, -6035
0.254108, 2977, 1057, 2674, 3255, 2006, -6035
0.254242, 183, -827, -193, 3197, 2519, -7544
0.254377, 183, -827, -193, 3197, 2519, -7544
0.254511, 183, -827, -193, 3197, 2519, -7544
0.254646, 183, -827, -193, 3197, 2519, -7544
0.254780, 183, -827, -193, 3197, 2519, -7544
0.254915, 183, -827, -193, 3197, 2519, -7544
0.255049, 183, -827, -193, 3197, 2519, -7544
0.255184, 183, -827, -193, 3197, 2519, -7544
0.255318, -5180, -1074, -2365, 1313, 2658, -6300
0.255453, -5180, -1074, -2365, 1313, 2658, -6300
0.255588, -5180, -1074, -2365, 1313, 2658, -6300
0.255722, -5180, -1074, -2365, 1313, 2658, -6300
0.255857, -5180, -1074, -2365, 1313, 2658, -6300
0.255991, -5180, -1074, -2365, 1313, 2658, -6300
0.256126, -5180, -1074, -2365, 1313, 2658, -6300
0.256260, -6371, 556, -813, -665, 2355, -2342
0.256395, -6371, 556, -813, -665, 2355, -2342
0.256529, -6371, 556, -813, -665, 2355, -2342
0.256664, -6371, 556, -813, -665, 2355, -2342
0.256798, -6371, 556, -813, -665, 2355, -2342
0.256932, -6371, 556, -813, -665, 2355, -2342
0.257067, -6371, 556, -813, -665, 2355, -2342
0.257201, -6371, 556, -813, -665, 2355, -2342
0.257336, -4295, 970, 2208, -1576, 2030, 1320
0.257470, -4295, 970, 2208, -1576, 2030, 1320
0.257605, -4295, 970, 2208, -1576, 2030, 1320
0.257739, -4295, 970, 2208, -1576, 2030, 1320
0.257874, -4295, 970, 2208, -1576, 2030, 1320
0.258003, -4295, 970, 2208, -1576, 2030, 1320
0.258139, -4295, 970, 2208, -1576, 2030, 1320
0.258274, -4295, 970, 2208, -1576, 2030, 1320
0.258408, -1771, 538, 3379, -1608, 1481, 3431
0.258543, -1771, 538, 3379, -1608, 1481, 3431
0.258677, -1771, 538, 3379, -1608, 1481, 3431
0.258812, -1771, 538, 3379, -1608, 1481, 3431
0.258946, -1771, 538, 3379, -1608, 1481, 3431
0.259081, -1771, 538, 3379, -1608, 1481, 3431
0.259216, -1771, 538, 3379, -1608, 1481, 3431
0.259350, 1104, 603, 2356, -1821, 493, 3918
0.259485, 1104, 603, 2356, -1821, 493, 3918
0.259619, 1104, 603, 2356, -1821, 493, 3918
0.259754, 1104, 603, 2356, -1821, 493, 3918
0.259888, 1104, 603, 2356, -1821, 493, 3918
0.260023, 1104, 603, 2356, -1821, 493, 3918
0.260157, 1104, 603, 2356, -1821, 493, 3918
0.260308, 1104, 603, 2356, -1821, 493, 3918
0.260444, 3778, 773, 1216, -2867, -790, 2502
0.260579, 3778, 773, 1216, -2867, -790, 2502
0.260713, 3778, 773, 1216, -2867, -790, 2502
0.260848, 3778, 773, 1216, -2867, -790, 2502
0.260982, 3778, 773, 1216, -2867, -790, 2502
0.261117, 3778, 773, 1216, -2867, -790, 2502
0.261251, 3778, 773, 1216, -2867, -790, 2502
0.261386, 5738, 647, 1670, -3770, -2139, -567
0.261520, 5738, 647, 1670, -3770, -2139, -567
0.261655, 5738, 647, 1670, -3770, -2139, -567
0.261789, 5738, 647, 1670, -3770, -2139, -567
0.261923, 5738, 647, 1670, -3770, -2139, -567
0.262058, 5738, 647, 1670, -3770, -2139, -567
0.262192, 5738, 647, 1670, -3770, -2139, -567
0.262326, 5738, 647, 1670, -3770, -2139, -567
0.262461, 5577, 373, 2753, -3406, -2645, -4492
0.262595, 5577, 373, 2753, -3406, -2645, -4492
0.262730, 5577, 373, 2753, -3406, -2645, -4492
0.262864, 5577, 373, 2753, -3406, -2645, -4492
0.262999, 5577, 373, 2753, -3406, -2645, -4492
0.263133, 5577, 373, 2753, -3406, -2645, -4492
0.263267, 5577, 373, 2753, -3406, -2645, -4492
0.263402, -240, -75, 2940, -2016, -1457, -6976
0.263536, -240, -75, 2940, -2016, -1457, -6976
0.263671, -240, -75, 2940, -2016, -1457, -6976
0.263806, -240, -75, 2940, -2016, -1457, -6976
0.263940, -240, -75, 2940, -2016, -1457, -6976
0.264075, -240, -75, 2940, -2016, -1457, -6976
0.264209, -240, -75, 2940, -2016, -1457, -6976
0.264344, -240, -75, 2940, -2016, -1457, -6976
0.264479, -6933, -305, 2765, -306, 575, -4990
0.264613, -6933, -305, 2765, -306, 575, -4990
0.264748, -6933, -305, 2765, -306, 575, -4990
0.264883, -6933, -305, 2765, -306, 575, -4990
0.265017, -6933, -305, 2765, -306, 575, -4990
0.265152, -6933, -305, 2765, -306, 575, -4990
0.265286, -6933, -305, 2765, -306, 575, -4990
0.265421, -6151, 182, 2198, 1036, 1771, -161
0.265556, -6151, 182, 2198, 1036, 1771, -161
0.265690, -6151, 182, 2198, 1036, 1771, -161
0.265825, -6151, 182, 2198, 1036, 1771, -161
0.265960, -6151, 182, 2198, 1036, 1771, -161
0.266094, -6151, 182, 2198, 1036, 1771, -161
0.266229, -6151, 182, 2198, 1036, 1771, -161
0.266363, -6151, 182, 2198, 1036, 1771, -161
0.266498, -1594, 554, 1966, 1168, 1694, 2883
0.266632, -1594, 554, 1966, 1168, 1694, 2883
0.266767, -1594, 554, 1966, 1168, 1694, 2883
0.266902, -1594, 554, 1966, 1168, 1694, 2883
0.267036, -1594, 554, 1966, 1168, 1694, 2883
0.267171, -1594, 554, 1966, 1168, 1694, 2883
0.267305, -1594, 554, 1966, 1168, 1694, 2883
0.267440, 1542, 565, 2612, 405, 1033, 3185
0.267575, 1542, 565, 2612, 405, 1033, 3185
0.267710, 1542, 565, 2612, 405, 1033, 3185
0.267845, 1542, 565, 2612, 405, 1033, 3185
0.267980, 1542, 565, 2612, 405, 1033, 3185
0.268114, 1542, 565, 2612, 405, 1033, 3185
0.268249, 1542, 565, 2612, 405, 1033, 3185
0.268383, 1542, 565, 2612, 405, 1033, 3185
0.268517, 3728, 648, 2992, -263, 601, 1701
0.268652, 3728, 648, 2992, -263, 601, 1701
0.268787, 3728, 648, 2992, -263, 601, 1701
0.268921, 3728, 648, 2992, -263, 601, 1701
0.269056, 3728, 648, 2992, -263, 601, 1701
0.269190, 3728, 648, 2992, -263, 601, 1701
0.269324, 3728, 648, 2992, -263, 601, 1701
0.269459, 3369, 738, 2525, -544, 694, -851
0.269593, 3369, 738, 2525, -544, 694, -851
0.269728, 3369, 738, 2525, -544, 694, -851
0.269862, 3369, 738, 2525, -544, 694, -851
0.269997, 3369, 738, 2525, -544, 694, -851
0.270132, 3369, 738, 2525, -544, 694, -851
0.270266, 3369, 738, 2525, -544, 694, -851
0.270401, 3369, 738, 2525, -544, 694, -851
0.270535, 86, 627, 1697, -575, 914, -2553
0.270670, 86, 627, 1697, -575, 914, -2553
0.270805, 86, 627, 1697, -575, 914, -2553
0.270939, 86, 627, 1697, -575, 914, -2553
0.271074, 86, 627, 1697, -575, 914, -2553
0.271208, 86, 627, 1697, -575, 914, -2553
0.271343, 86, 627, 1697, -575, 914, -2553
0.271477, -3080, 300, 1416, -417, 891, -1993
0.271612, -3080, 300, 1416, -417, 891, -1993
0.271747, -3080, 300, 1416, -417, 891, -1993
0.271882, -3080, 300, 1416, -417, 891, -1993
0.272016, -3080, 300, 1416, -417, 891, -1993
0.272151, -3080, 300, 1416, -417, 891, -1993
0.272285, -3080, 300, 1416, -417, 891, -1993
0.272420, -3080, 300, 1416, -417, 891, -1993
0.272559, -3658, 220, 1459, -196, 519, 165
0.272696, -3658, 220, 1459, -196, 519, 165
0.272831, -3658, 220, 1459, -196, 519, 165
0.272965, -3658, 220, 1459, -196, 519, 165
0.273100, -3658, 220, 1459, -196, 519, 165
0.273234, -3658, 220, 1459, -196, 519, 165
0.273369, -3658, 220, 1459, -196, 519, 165
0.273504, -1275, 367, 1577, -245, -168, 2011
0.273638, -1275, 367, 1577, -245, -168, 2011
0.273773, -1275, 367, 1577, -245, -168, 2011
0.273907, -1275, 367, 1577, -245, -168, 2011
0.274042, -1275, 367, 1577, -245, -168, 2011
0.274177, -1275, 367, 1577, -245, -168, 2011
0.274311, -1275, 367, 1577, -245, -168, 2011
0.274446, -1275, 367, 1577, -245, -168, 2011
0.274580, 1792, 455, 2029, -631, -770, 2070
0.274715, 1792, 455, 2029, -631, -770, 2070
0.274845, 1792, 455, 2029, -631, -770, 2070
0.274981, 1792, 455, 2029, -631, -770, 2070
0.275117, 1792, 455, 2029, -631, -770, 2070
0.275253, 1792, 455, 2029, -631, -770, 2070
0.275388, 1792, 455, 2029, -631, -770, 2070
0.275523, 2945, 503, 2387, -1053, -814, 567
0.275657, 2945, 503, 2387, -1053, -814, 567
0.275793, 2945, 503, 2387, -1053, -814, 567
0.275927, 2945, 503, 2387, -1053, -814, 567
0.276062, 2945, 503, 2387, -1053, -814, 567
0.276197, 2945, 503, 2387, -1053, -814, 567
0.276332, 2945, 503, 2387, -1053, -814, 567
0.276468, 2945, 503, 2387, -1053, -814, 567
0.276602, 1724, 522, 2268, -1202, -276, -1067
0.276737, 1724, 522, 2268, -1202, -276, -1067
0.276872, 1724, 522, 2268, -1202, -276, -1067
0.277006, 1724, 522, 2268, -1202, -276, -1067
0.277141, 1724, 522, 2268, -1202, -276, -1067
0.277275, 1724, 522, 2268, -1202, -276, -1067
0.277410, 1724, 522, 2268, -1202, -276, -1067
0.277544, -155, 470, 1923, -1008, 436, -1688
0.277679, -155, 470, 1923, -1008, 436, -1688
0.277814, -155, 470, 1923, -1008, 436, -1688
0.277949, -155, 470, 1923, -1008, 436, -1688
0.278083, -155, 470, 1923, -1008, 436, -1688
0.278218, -155, 470, 1923, -1008, 436, -1688
0.278352, -155, 470, 1923, -1008, 436, -1688
0.278487, -155, 470, 1923, -1008, 436, -1688
0.278622, -1256, 354, 1594, -721, 922, -1236
0.278756, -1256, 354, 1594, -721, 922, -1236
0.278891, -1256, 354, 1594, -721, 922, -1236
0.279026, -1256, 354, 1594, -721, 922, -1236
0.279160, -1256, 354, 1594, -721, 922, -1236
0.279295, -1256, 354, 1594, -721, 922, -1236
0.279429, -1256, 354, 1594, -721, 922, -1236
0.279564, -1256, 354, 1594, -721, 922, -1236
0.279699, -1703, 346, 1544, -634, 1068, -187
0.279834, -1703, 346, 1544, -634, 1068, -187
0.279968, -1703, 346, 1544, -634, 1068, -187
0.280103, -1703, 346, 1544, -634, 1068, -187
0.280238, -1703, 346, 1544, -634, 1068, -187
0.280372, -1703, 346, 1544, -634, 1068, -187
0.280507, -1703, 346, 1544, -634, 1068, -187
0.280642, -1109, 434, 1958, -683, 934, 916
0.280776, -1109, 434, 1958, -683, 934, 916
0.280911, -1109, 434, 1958, -683, 934, 916
0.281046, -1109, 434, 1958, -683, 934, 916
0.281180, -1109, 434, 1958, -683, 934, 916
0.281315, -1109, 434, 1958, -683, 934, 916
0.281449, -1109, 434, 1958, -683, 934, 916
0.281584, -1109, 434, 1958, -683, 934, 916
0.281719, 605, 525, 2460, -658, 680, 1335
0.281854, 605, 525, 2460, -658, 680, 1335
0.281988, 605, 525, 2460, -658, 680, 1335
0.282123, 605, 525, 2460, -658, 680, 1335
0.282257, 605, 525, 2460, -658, 680, 1335
0.282392, 605, 525, 2460, -658, 680, 1335
0.282527, 605, 525, 2460, -658, 680, 1335
0.282661, 2072, 628, 2602, -562, 473, 585
0.282796, 2072, 628, 2602, -562, 473, 585
0.282931, 2072, 628, 2602, -562, 473, 585
0.283065, 2072, 628, 2602, -562, 473, 585
0.283200, 2072, 628, 2602, -562, 473, 585
0.283335, 2072, 628, 2602, -562, 473, 585
0.283469, 2072, 628, 2602, -562, 473, 585
0.283604, 2072, 628, 2602, -562, 473, 585
0.283739, 1513, 582, 2282, -469, 460, -723
0.283874, 1513, 582, 2282, -469, 460, -723
0.284008, 1513, 582, 2282, -469, 460, -723
0.284143, 1513, 582, 2282, -469, 460, -723
0.284278, 1513, 582, 2282, -469, 460, -723
0.284412, 1513, 582, 2282, -469, 460, -723
0.284547, 1513, 582, 2282, -469, 460, -723
0.284681, -84, 484, 1859, -374, 584, -1299
0.284816, -84, 484, 1859, -374, 584, -1299
0.284951, -84, 484, 1859, -374, 584, -1299
0.285092, -84, 484, 1859, -374, 584, -1299
0.285228, -84, 484, 1859, -374, 584, -1299
0.285362, -84, 484, 1859, -374, 584, -1299
0.285497, -84, 484, 1859, -374, 584, -1299
0.285632, -84, 484, 1859, -374, 584, -1299
0.285766, 6, 469, 1804, -228, 546, -1135
0.285901, 6, 469, 1804, -228, 546, -1135
0.286036, 6, 469, 1804, -228, 546, -1135
0.286170, 6, 469, 1804, -228, 546, -1135
0.286305, 6, 469, 1804, -228, 546, -1135
0.286439, 6, 469, 1804, -228, 546, -1135
0.286574, 6, 469, 1804, -228, 546, -1135
0.286709, 417, 305, 2028, -41, 391, -1261
0.286843, 417, 305, 2028, -41, 391, -1261
0.286978, 417, 305, 2028, -41, 391, -1261
0.287113, 417, 305, 2028, -41, 391, -1261
0.287247, 417, 305, 2028, -41, 391, -1261
0.287382, 417, 305, 2028, -41, 391, -1261
0.287516, 417, 305, 2028, -41, 391, -1261
0.287651, 417, 305, 2028, -41, 391, -1261
0.287786, -618, 180, 1944, 53, 385, -1326
0.287921, -618, 180, 1944, 53, 385, -1326
0.288055, -618, 180, 1944, 53, 385, -1326
0.288190, -618, 180, 1944, 53, 385, -1326
0.288325, -618, 180, 1944, 53, 385, -1326
0.288459, -618, 180, 1944, 53, 385, -1326
0.288594, -618, 180, 1944, 53, 385, -1326
0.288728, -502, 191, 1575, -76, 405, -815
0.288863, -502, 191, 1575, -76, 405, -815
0.288998, -502, 191, 1575, -76, 405, -815
0.289132, -502, 191, 1575, -76, 405, -815
0.289267, -502, 191, 1575, -76, 405, -815
0.289402, -502, 191, 1575, -76, 405, -815
0.289536, -502, 191, 1575, -76, 405, -815
0.289671, -502, 191, 1575, -76, 405, -815
0.289805, 1581, 218, 1785, -318, 272, -927
0.289940, 1581, 218, 1785, -318, 272, -927
0.290075, 1581, 218, 1785, -318, 272, -927
0.290209, 1581, 218, 1785, -318, 272, -927
0.290344, 1581, 218, 1785, -318, 272, -927
0.290479, 1581, 218, 1785, -318, 272, -927
0.290614, 1581, 218, 1785, -318, 272, -927
0.290748, 2609, 401, 1997, -490, 226, -2274
0.290883, 2609, 401, 1997, -490, 226, -2274
0.291018, 2609, 401, 1997, -490, 226, -2274
0.291152, 2609, 401, 1997, -490, 226, -2274
0.291287, 2609, 401, 1997, -490, 226, -2274
0.291421, 2609, 401, 1997, -490, 226, -2274
0.291556, 2609, 401, 1997, -490, 226, -2274
0.291695, 2609, 401, 1997, -490, 226, -2274
0.291830, 872, 438, 1867, -631, 572, -3658
0.291965, 872, 438, 1867, -631, 572, -3658
0.292099, 872, 438, 1867, -631, 572, -3658
0.292234, 872, 438, 1867, -631, 572, -3658
0.292369, 872, 438, 1867, -631, 572, -3658
0.292503, 872, 438, 1867, -631, 572, -3658
0.292638, 872, 438, 1867, -631, 572, -3658
0.292772, -2548, 300, 2226, -429, 1253, -3411
0.292907, -2548, 300, 2226, -429, 1253, -3411
0.293042, -2548, 300, 2226, -429, 1253, -3411
0.293176, -2548, 300, 2226, -429, 1253, -3411
0.293311, -2548, 300, 2226, -429, 1253, -3411
0.293446, -2548, 300, 2226, -429, 1253, -3411
0.293580, -2548, 300, 2226, -429, 1253, -3411
0.293715, -2548, 300, 2226, -429, 1253, -3411
0.293849, -3257, 416, 2136, 122, 1635, -1347
0.293984, -3257, 416, 2136, 122, 1635, -1347
0.294119, -3257, 416, 2136, 122, 1635, -1347
0.294253, -3257, 416, 2136, 122, 1635, -1347
0.294388, -3257, 416, 2136, 122, 1635, -1347
0.294522, -3257, 416, 2136, 122, 1635, -1347
0.294657, -3257, 416, 2136, 122, 1635, -1347
0.294791, -489, 641, 1681, 200, 1201, 188
0.294926, -489, 641, 1681, 200, 1201, 188
0.295061, -489, 641, 1681, 200, 1201, 188
0.295195, -489, 641, 1681, 200, 1201, 188
0.295330, -489, 641, 1681, 200, 1201, 188
0.295465, -489, 641, 1681, 200, 1201, 188
0.295599, -489, 641, 1681, 200, 1201, 188
0.295734, -489, 641, 1681, 200, 1201, 188
0.295869, 342, 652, 1958, -228, 532, 148
0.296004, 342, 652, 1958, -228, 532, 148
0.296138, 342, 652, 1958, -228, 532, 148
0.296273, 342, 652, 1958, -228, 532, 148
0.296407, 342, 652, 1958, -228, 532, 148
0.296542, 342, 652, 1958, -228, 532, 148
0.296677, 342, 652, 1958, -228, 532, 148
0.296811, -1100, 485, 2209, -613, 305, 264
0.296946, -1100, 485, 2209, -613, 305, 264
0.297081, -1100, 485, 2209, -613, 305, 264
0.297215, -1100, 485, 2209, -613, 305, 264
0.297350, -1100, 485, 2209, -613, 305, 264
0.297484, -1100, 485, 2209, -613, 305, 264
0.297619, -1100, 485, 2209, -613, 305, 264
0.297754, -1100, 485, 2209, -613, 305, 264
0.297888, -1141, 379, 2083, -768, 250, 1094
0.298028, -1141, 379, 2083, -768, 250, 1094
0.298163, -1141, 379, 2083, -768, 250, 1094
0.298298, -1141, 379, 2083, -768, 250, 1094
0.298432, -1141, 379, 2083, -768, 250, 1094
0.298567, -1141, 379, 2083, -768, 250, 1094
0.298701, -1141, 379, 2083, -768, 250, 1094
0.298836, 756, 439, 2097, -751, -87, 1406
0.298971, 756, 439, 2097, -751, -87, 1406
0.299106, 756, 439, 2097, -751, -87, 1406
0.299240, 756, 439, 2097, -751, -87, 1406
0.299375, 756, 439, 2097, -751, -87, 1406
0.299509, 756, 439, 2097, -751, -87, 1406
0.299644, 756, 439, 2097, -751, -87, 1406
0.299779, 756, 439, 2097, -751, -87, 1406
0.299913, 2318, 492, 2386, -709, -548, 488
0.300048, 2318, 492, 2386, -709, -548, 488
0.300183, 2318, 492, 2386, -709, -548, 488
0.300317, 2318, 492, 2386, -709, -548, 488
0.300452, 2318, 492, 2386, -709, -548, 488
0.300587, 2318, 492, 2386, -709, -548, 488
0.300721, 2318, 492, 2386, -709, -548, 488
0.300856, 2318, 492, 2386, -709, -548, 488
0.300990, 2491, 530, 2475, -558, -715, -1034
0.301125, 2491, 530, 2475, -558, -715, -1034
0.301260, 2491, 530, 2475, -558, -715, -1034
0.301394, 2491, 530, 2475, -558, -715, -1034
0.301529, 2491, 530, 2475, -558, -715, -1034
0.301664, 2491, 530, 2475, -558, -715, -1034
0.301798, 2491, 530, 2475, -558, -715, -1034
0.301933, 2050, 452, 2124, -264, -441, -2493
0.302068, 2050, 452, 2124, -264, -441, -2493
0.302202, 2050, 452, 2124, -264, -441, -2493
0.302337, 2050, 452, 2124, -264, -441, -2493
0.302472, 2050, 452, 2124, -264, -441, -2493
0.302606, 2050, 452, 2124, -264, -441, -2493
0.302741, 2050, 452, 2124, -264, -441, -2493
0.302875, 2050, 452, 2124, -264, -441, -2493
0.303010, 914, 164, 1910, 86, 157, -3530
0.303145, 914, 164, 1910, 86, 157, -3530
0.303279, 914, 164, 1910, 86, 157, -3530
0.303414, 914, 164, 1910, 86, 157, -3530
0.303548, 914, 164, 1910, 86, 157, -3530
0.303683, 914, 164, 1910, 86, 157, -3530
0.303818, 914, 164, 1910, 86, 157, -3530
0.303953, 403, 146, 1886, 487, 733, -3817
0.304087, 403, 146, 1886, 487, 733, -3817
0.304222, 403, 146, 1886, 487, 733, -3817
0.304357, 403, 146, 1886, 487, 733, -3817
0.304491, 403, 146, 1886, 487, 733, -3817
0.304626, 403, 146, 1886, 487, 733, -3817
0.304761, 403, 146, 1886, 487, 733, -3817
0.304895, 403, 146, 1886, 487, 733, -3817
0.305030, 1047, 591, 1986, 841, 1139, -4021
0.305165, 1047, 591, 1986, 841, 1139, -4021
0.305299, 1047, 591, 1986, 841, 1139, -4021
0.305434, 1047, 591, 1986, 841, 1139, -4021
0.305568, 1047, 591, 1986, 841, 1139, -4021
0.305703, 1047, 591, 1986, 841, 1139, -4021
0.305838, 1047, 591, 1986, 841, 1139, -4021
0.305972, 73, 816, 2255, 1109, 1662, -4434
0.306107, 73, 816, 2255, 1109, 1662, -4434
0.306242, 73, 816, 2255, 1109, 1662, -4434
0.306376, 73, 816, 2255, 1109, 1662, -4434
0.306511, 73, 816, 2255, 1109, 1662, -4434
0.306645, 73, 816, 2255, 1109, 1662, -4434
0.306780, 73, 816, 2255, 1109, 1662, -4434
0.306915, 73, 816, 2255, 1109, 1662, -4434
0.307049, -1901, 475, 2090, 1280, 2239, -3901
0.307184, -1901, 475, 2090, 1280, 2239, -3901
0.307318, -1901, 475, 2090, 1280, 2239, -3901
0.307453, -1901, 475, 2090, 1280, 2239, -3901
0.307588, -1901, 475, 2090, 1280, 2239, -3901
0.307722, -1901, 475, 2090, 1280, 2239, -3901
0.307857, -1901, 475, 2090, 1280, 2239, -3901
0.307991, -1211, 252, 1745, 1235, 2250, -2595
0.308126, -1211, 252, 1745, 1235, 2250, -2595
0.308261, -1211, 252, 1745, 1235, 2250, -2595
0.308395, -1211, 252, 1745, 1235, 2250, -2595
0.308530, -1211, 252, 1745, 1235, 2250, -2595
0.308664, -1211, 252, 1745, 1235, 2250, -2595
0.308800, -1211, 252, 1745, 1235, 2250, -2595
0.308935, -1211, 252, 1745, 1235, 2250, -2595
0.309069, 358, 392, 2046, 1047, 1658, -2163
0.309204, 358, 392, 2046, 1047, 1658, -2163
0.309338, 358, 392, 2046, 1047, 1658, -2163
0.309473, 358, 392, 2046, 1047, 1658, -2163
0.309607, 358, 392, 2046, 1047, 1658, -2163
0.309742, 358, 392, 2046, 1047, 1658, -2163
0.309877, 358, 392, 2046, 1047, 1658, -2163
0.310011, 13, 477, 2615, 998, 1091, -2383
0.310146, 13, 477, 2615, 998, 1091, -2383
0.310280, 13, 477, 2615, 998, 1091, -2383
0.310415, 13, 477, 2615, 998, 1091, -2383
0.310549, 13, 477, 2615, 998, 1091, -2383
0.310691, 13, 477, 2615, 998, 1091, -2383
0.310827, 13, 477, 2615, 998, 1091, -2383
0.310961, 13, 477, 2615, 998, 1091, -2383
0.311096, -21, 532, 2789, 1275, 751, -2311
0.311231, -21, 532, 2789, 1275, 751, -2311
0.311365, -21, 532, 2789, 1275, 751, -2311
0.311500, -21, 532, 2789, 1275, 751, -2311
0.311634, -21, 532, 2789, 1275, 751, -2311
0.311769, -21, 532, 2789, 1275, 751, -2311
0.311903, -21, 532, 2789, 1275, 751, -2311
0.312037, 1010, 742, 2585, 1735, 496, -2521
0.312171, 1010, 742, 2585, 1735, 496, -2521
0.312306, 1010, 742, 2585, 1735, 496, -2521
0.312440, 1010, 742, 2585, 1735, 496, -2521
0.312575, 1010, 742, 2585, 1735, 496, -2521
0.312709, 1010, 742, 2585, 1735, 496, -2521
0.312844, 1010, 742, 2585, 1735, 496, -2521
0.312978, 1010, 742, 2585, 1735, 496, -2521
0.313112, 1294, 764, 2286, 2050, 280, -3316
0.313247, 1294, 764, 2286, 2050, 280, -3316
0.313381, 1294, 764, 2286, 2050, 280, -3316
0.313516, 1294, 764, 2286, 2050, 280, -3316
0.313650, 1294, 764, 2286, 2050, 280, -3316
0.313784, 1294, 764, 2286, 2050, 280, -3316
0.313919, 1294, 764, 2286, 2050, 280, -3316
0.314053, -99, 322, 1764, 2121, 178, -3881
0.314188, -99, 322, 1764, 2121, 178, -3881
0.314322, -99, 322, 1764, 2121, 178, -3881
0.314457, -99, 322, 1764, 2121, 178, -3881
0.314591, -99, 322, 1764, 2121, 178, -3881
0.314725, -99, 322, 1764, 2121, 178, -3881
0.314860, -99, 322, 1764, 2121, 178, -3881
0.314994, -99, 322, 1764, 2121, 178, -3881
0.315129, -1635, -36, 1232, 2019, 230, -3360
0.315263, -1635, -36, 1232, 2019, 230, -3360
0.315398, -1635, -36, 1232, 2019, 230, -3360
0.315532, -1635, -36, 1232, 2019, 230, -3360
0.315667, -1635, -36, 1232, 2019, 230, -3360
0.315801, -1635, -36, 1232, 2019, 230, -3360
0.315936, -1635, -36, 1232, 2019, 230, -3360
0.316070, -720, 152, 1356, 1833, 200, -2299
0.316204, -720, 152, 1356, 1833, 200, -2299
0.316339, -720, 152, 1356, 1833, 200, -2299
0.316473, -720, 152, 1356, 1833, 200, -2299
0.316608, -720, 152, 1356, 1833, 200, -2299
0.316742, -720, 152, 1356, 1833, 200, -2299
0.316876, -720, 152, 1356, 1833, 200, -2299
0.317011, -720, 152, 1356, 1833, 200, -2299
0.317145, 1444, 643, 1949, 1675, 106, -2253
0.317280, 1444, 643, 1949, 1675, 106, -2253
0.317414, 1444, 643, 1949, 1675, 106, -2253
0.317548, 1444, 643, 1949, 1675, 106, -2253
0.317682, 1444, 643, 1949, 1675, 106, -2253
0.317817, 1444, 643, 1949, 1675, 106, -2253
0.317946, 1444, 643, 1949, 1675, 106, -2253
0.318080, 1444, 643, 1949, 1675, 106, -2253
0.318215, 1153, 796, 2059, 1523, 365, -3204
0.318349, 1153, 796, 2059, 1523, 365, -3204
0.318484, 1153, 796, 2059, 1523, 365, -3204
0.318618, 1153, 796, 2059, 1523, 365, -3204
0.318752, 1153, 796, 2059, 1523, 365, -3204
0.318887, 1153, 796, 2059, 1523, 365, -3204
0.319021, 1153, 796, 2059, 1523, 365, -3204
0.319155, -1749, 441, 1513, 1238, 973, -3262
0.319290, -1749, 441, 1513, 1238, 973, -3262
0.319424, -1749, 441, 1513, 1238, 973, -3262
0.319559, -1749, 441, 1513, 1238, 973, -3262
0.319696, -1749, 441, 1513, 1238, 973, -3262
0.319831, -1749, 441, 1513, 1238, 973, -3262
0.319965, -1749, 441, 1513, 1238, 973, -3262
0.320100, -1749, 441, 1513, 1238, 973, -3262
0.320234, -3216, 293, 1324, 943, 1294, -1575
0.320369, -3216, 293, 1324, 943, 1294, -1575
0.320504, -3216, 293, 1324, 943, 1294, -1575
0.320638, -3216, 293, 1324, 943, 1294, -1575
0.320773, -3216, 293, 1324, 943, 1294, -1575
0.320907, -3216, 293, 1324, 943, 1294, -1575
0.321042, -3216, 293, 1324, 943, 1294, -1575
0.321176, -2273, 445, 1575, 733, 938, 382
0.321311, -2273, 445, 1575, 733, 938, 382
0.321446, -2273, 445, 1575, 733, 938, 382
0.321580, -2273, 445, 1575, 733, 938, 382
0.321714, -2273, 445, 1575, 733, 938, 382
0.321849, -2273, 445, 1575, 733, 938, 382
0.321983, -2273, 445, 1575, 733, 938, 382
0.322118, -2273, 445, 1575, 733, 938, 382
0.322252, -1078, 547, 1873, 366, 214, 1520
0.322387, -1078, 547, 1873, 366, 214, 1520
0.322522, -1078, 547, 1873, 366, 214, 1520
0.322656, -1078, 547, 1873, 366, 214, 1520
0.322791, -1078, 547, 1873, 366, 214, 1520
0.322925, -1078, 547, 1873, 366, 214, 1520
0.323060, -1078, 547, 1873, 366, 214, 1520
0.323198, 15, 547, 2437, 15, -427, 1926
0.323335, 15, 547, 2437, 15, -427, 1926
0.323470, 15, 547, 2437, 15, -427, 1926
0.323605, 15, 547, 2437, 15, -427, 1926
0.323740, 15, 547, 2437, 15, -427, 1926
0.323874, 15, 547, 2437, 15, -427, 1926
0.324009, 15, 547, 2437, 15, -427, 1926
0.324143, 15, 547, 2437, 15, -427, 1926
0.324278, 371, 435, 2891, 12, -713, 1733
0.324412, 371, 435, 2891, 12, -713, 1733
0.324547, 371, 435, 2891, 12, -713, 1733
0.324681, 371, 435, 2891, 12, -713, 1733
0.324816, 371, 435, 2891, 12, -713, 1733
0.324950, 371, 435, 2891, 12, -713, 1733
0.325085, 371, 435, 2891, 12, -713, 1733
0.325219, 419, 545, 3041, 355, -838, 1430
0.325354, 419, 545, 3041, 355, -838, 1430
0.325489, 419, 545, 3041, 355, -838, 1430
0.325623, 419, 545, 3041, 355, -838, 1430
0.325758, 419, 545, 3041, 355, -838, 1430
0.325892, 419, 545, 3041, 355, -838, 1430
0.326027, 419, 545, 3041, 355, -838, 1430
0.326161, 419, 545, 3041, 355, -838, 1430
0.326296, 1952, 966, 3313, 1066, -1115, 823
0.326431, 1952, 966, 3313, 1066, -1115, 823
0.326565, 1952, 966, 3313, 1066, -1115, 823
0.326700, 1952, 966, 3313, 1066, -1115, 823
0.326834, 1952, 966, 3313, 1066, -1115, 823
0.326969, 1952, 966, 3313, 1066, -1115, 823
0.327103, 1952, 966, 3313, 1066, -1115, 823
0.327238, 3308, 840, 3000, 1875, -1176, -810
0.327373, 3308, 840, 3000, 1875, -1176, -810
0.327507, 3308, 840, 3000, 1875, -1176, -810
0.327642, 3308, 840, 3000, 1875, -1176, -810
0.327777, 3308, 840, 3000, 1875, -1176, -810
0.327911, 3308, 840, 3000, 1875, -1176, -810
0.328045, 3308, 840, 3000, 1875, -1176, -810
0.328179, 3308, 840, 3000, 1875, -1176, -810
0.328313, 2393, 92, 1458, 2130, -737, -2690
0.328447, 2393, 92, 1458, 2130, -737, -2690
0.328581, 2393, 92, 1458, 2130, -737, -2690
0.328715, 2393, 92, 1458, 2130, -737, -2690
0.328849, 2393, 92, 1458, 2130, -737, -2690
0.328982, 2393, 92, 1458, 2130, -737, -2690
0.329116, 2393, 92, 1458, 2130, -737, -2690
0.329250, 866, -198, 400, 1778, -134, -3702
0.329384, 866, -198, 400, 1778, -134, -3702
0.329518, 866, -198, 400, 1778, -134, -3702
0.329652, 866, -198, 400, 1778, -134, -3702
0.329786, 866, -198, 400, 1778, -134, -3702
0.329920, 866, -198, 400, 1778, -134, -3702
0.330054, 866, -198, 400, 1778, -134, -3702
0.330188, 866, -198, 400, 1778, -134, -3702
0.330322, -489, -124, 551, 1308, 495, -3881
0.330456, -489, -124, 551, 1308, 495, -3881
0.330590, -489, -124, 551, 1308, 495, -3881
0.330724, -489, -124, 551, 1308, 495, -3881
0.330858, -489, -124, 551, 1308, 495, -3881
0.330992, -489, -124, 551, 1308, 495, -3881
0.331126, -489, -124, 551, 1308, 495, -3881
0.331260, -489, -124, 551, 1308, 495, -3881
0.331394, -1776, -71, 895, 867, 1109, -3193
0.331528, -1776, -71, 895, 867, 1109, -3193
0.331662, -1776, -71, 895, 867, 1109, -3193
0.331797, -1776, -71, 895, 867, 1109, -3193
0.331928, -1776, -71, 895, 867, 1109, -3193
0.332063, -1776, -71, 895, 867, 1109, -3193
0.332198, -1776, -71, 895, 867, 1109, -3193
0.332332, -1581, 209, 1657, 598, 1452, -1896
0.332467, -1581, 209, 1657, 598, 1452, -1896
0.332603, -1581, 209, 1657, 598, 1452, -1896
0.332738, -1581, 209, 1657, 598, 1452, -1896
0.332873, -1581, 209, 1657, 598, 1452, -1896
0.333008, -1581, 209, 1657, 598, 1452, -1896
0.333143, -1581, 209, 1657, 598, 1452, -1896
0.333277, -1581, 209, 1657, 598, 1452, -1896
0.333412, -423, 569, 2452, 580, 1563, -1015
0.333546, -423, 569, 2452, 580, 1563, -1015
0.333681, -423, 569, 2452, 580, 1563, -1015
0.333815, -423, 569, 2452, 580, 1563, -1015
0.333950, -423, 569, 2452, 580, 1563, -1015
0.334085, -423, 569, 2452, 580, 1563, -1015
0.334219, -423, 569, 2452, 580, 1563, -1015
0.334354, 530, 773, 2490, 556, 1440, -927
0.334488, 530, 773, 2490, 556, 1440, -927
0.334623, 530, 773, 2490, 556, 1440, -927
0.334758, 530, 773, 2490, 556, 1440, -927
0.334892, 530, 773, 2490, 556, 1440, -927
0.335027, 530, 773, 2490, 556, 1440, -927
0.335161, 530, 773, 2490, 556, 1440, -927
0.335296, 530, 773, 2490, 556, 1440, -927
0.335431, 1266, 766, 2282, 487, 927, -1486
0.335565, 1266, 766, 2282, 487, 927, -1486
0.335701, 1266, 766, 2282, 487, 927, -1486
0.335835, 1266, 766, 2282, 487, 927, -1486
0.335979, 1266, 766, 2282, 487, 927, -1486
0.336114, 1266, 766, 2282, 487, 927, -1486
0.336249, 1266, 766, 2282, 487, 927, -1486
0.336383, 717, 539, 2226, 503, 375, -2328
0.336518, 717, 539, 2226, 503, 375, -2328
0.336653, 717, 539, 2226, 503, 375, -2328
0.336787, 717, 539, 2226, 503, 375, -2328
0.336922, 717, 539, 2226, 503, 375, -2328
0.337056, 717, 539, 2226, 503, 375, -2328
0.337191, 717, 539, 2226, 503, 375, -2328
0.337325, 717, 539, 2226, 503, 375, -2328
0.337460, -1915, 262, 1964, 656, 107, -2292
0.337595, -1915, 262, 1964, 656, 107, -2292
0.337729, -1915, 262, 1964, 656, 107, -2292
0.337864, -1915, 262, 1964, 656, 107, -2292
0.337998, -1915, 262, 1964, 656, 107, -2292
0.338133, -1915, 262, 1964, 656, 107, -2292
0.338267, -1915, 262, 1964, 656, 107, -2292
0.338402, -4506, 72, 1253, 752, -109, -468
0.338537, -4506, 72, 1253, 752, -109, -468
0.338671, -4506, 72, 1253, 752, -109, -468
0.338806, -4506, 72, 1253, 752, -109, -468
0.338940, -4506, 72, 1253, 752, -109, -468
0.339075, -4506, 72, 1253, 752, -109, -468
0.339209, -4506, 72, 1253, 752, -109, -468
0.339344, -4506, 72, 1253, 752, -109, -468
0.339479, -4662, 109, 842, 389, -520, 2563
0.339613, -4662, 109, 842, 389, -520, 2563
0.339749, -4662, 109, 842, 389, -520, 2563
0.339883, -4662, 109, 842, 389, -520, 2563
0.340018, -4662, 109, 842, 389, -520, 2563
0.340152, -4662, 109, 842, 389, -520, 2563
0.340287, -4662, 109, 842, 389, -520, 2563
0.340421, -2047, 413, 1501, -377, -1205, 5072
0.340556, -2047, 413, 1501, -377, -1205, 5072
0.340691, -2047, 413, 1501, -377, -1205, 5072
0.340825, -2047, 413, 1501, -377, -1205, 5072
0.340960, -2047, 413, 1501, -377, -1205, 5072
0.341094, -2047, 413, 1501, -377, -1205, 5072
0.341229, -2047, 413, 1501, -377, -1205, 5072
0.341363, -2047, 413, 1501, -377, -1205, 5072
0.341498, 867, 615, 2267, -1092, -1850, 5626
0.341633, 867, 615, 2267, -1092, -1850, 5626
0.341767, 867, 615, 2267, -1092, -1850, 5626
0.341902, 867, 615, 2267, -1092, -1850, 5626
0.342037, 867, 615, 2267, -1092, -1850, 5626
0.342171, 867, 615, 2267, -1092, -1850, 5626
0.342306, 867, 615, 2267, -1092, -1850, 5626
0.342440, 1279, 552, 2214, -1670, -2001, 4782
0.342575, 1279, 552, 2214, -1670, -2001, 4782
0.342710, 1279, 552, 2214, -1670, -2001, 4782
0.342844, 1279, 552, 2214, -1670, -2001, 4782
0.342979, 1279, 552, 2214, -1670, -2001, 4782
0.343113, 1279, 552, 2214, -1670, -2001, 4782
0.343248, 1279, 552, 2214, -1670, -2001, 4782
0.343383, 1279, 552, 2214, -1670, -2001, 4782
0.343517, 516, 461, 2009, -2064, -1849, 4065
0.343652, 516, 461, 2009, -2064, -1849, 4065
0.343787, 516, 461, 2009, -2064, -1849, 4065
0.343921, 516, 461, 2009, -2064, -1849, 4065
0.344056, 516, 461, 2009, -2064, -1849, 4065
0.344190, 516, 461, 2009, -2064, -1849, 4065
0.344325, 516, 461, 2009, -2064, -1849, 4065
0.344460, 1113, 489, 1987, -2109, -1770, 3618
0.344594, 1113, 489, 1987, -2109, -1770, 3618
0.344729, 1113, 489, 1987, -2109, -1770, 3618
0.344863, 1113, 489, 1987, -2109, -1770, 3618
0.344998, 1113, 489, 1987, -2109, -1770, 3618
0.345132, 1113, 489, 1987, -2109, -1770, 3618
0.345267, 1113, 489, 1987, -2109, -1770, 3618
0.345401, 1113, 489, 1987, -2109, -1770, 3618
0.345536, 2353, 532, 1958, -1974, -1738, 2594
0.345671, 2353, 532, 1958, -1974, -1738, 2594
0.345805, 2353, 532, 1958, -1974, -1738, 2594
0.345940, 2353, 532, 1958, -1974, -1738, 2594
0.346074, 2353, 532, 1958, -1974, -1738, 2594
0.346209, 2353, 532, 1958, -1974, -1738, 2594
0.346343, 2353, 532, 1958, -1974, -1738, 2594
0.346478, 2382, 475, 1833, -1867, -1467, 1085
0.346613, 2382, 475, 1833, -1867, -1467, 1085
0.346747, 2382, 475, 1833, -1867, -1467, 1085
0.346882, 2382, 475, 1833, -1867, -1467, 1085
0.347017, 2382, 475, 1833, -1867, -1467, 1085
0.347151, 2382, 475, 1833, -1867, -1467, 1085
0.347286, 2382, 475, 1833, -1867, -1467, 1085
0.347420, 2382, 475, 1833, -1867, -1467, 1085
0.347555, 1899, 357, 1978, -1767, -788, -176
0.347690, 1899, 357, 1978, -1767, -788, -176
0.347829, 1899, 357, 1978, -1767, -788, -176
0.347964, 1899, 357, 1978, -1767, -788, -176
0.348099, 1899, 357, 1978, -1767, -788, -176
0.348233, 1899, 357, 1978, -1767, -788, -176
0.348372, 1899, 357, 1978, -1767, -788, -176
0.348507, 2441, 514, 2819, -1247, 92, -1257
0.348641, 2441, 514, 2819, -1247, 92, -1257
0.348776, 2441, 514, 2819, -1247, 92, -1257
0.348911, 2441, 514, 2819, -1247, 92, -1257
0.349045, 2441, 514, 2819, -1247, 92, -1257
0.349180, 2441, 514, 2819, -1247, 92, -1257
0.349314, 2441, 514, 2819, -1247, 92, -1257
0.349449, 2441, 514, 2819, -1247, 92, -1257
0.349583, 4401, 963, 2802, -342, 877, -3009
0.349718, 4401, 963, 2802, -342, 877, -3009
0.349853, 4401, 963, 2802, -342, 877, -3009
0.349987, 4401, 963, 2802, -342, 877, -3009
0.350122, 4401, 963, 2802, -342, 877, -3009
0.350256, 4401, 963, 2802, -342, 877, -3009
0.350391, 4401, 963, 2802, -342, 877, -3009
0.350525, 5209, 1086, 1788, 78, 1651, -5906
0.350660, 5209, 1086, 1788, 78, 1651, -5906
0.350795, 5209, 1086, 1788, 78, 1651, -5906
0.350929, 5209, 1086, 1788, 78, 1651, -5906
0.351064, 5209, 1086, 1788, 78, 1651, -5906
0.351198, 5209, 1086, 1788, 78, 1651, -5906
0.351333, 5209, 1086, 1788, 78, 1651, -5906
0.351467, 5209, 1086, 1788, 78, 1651, -5906
0.351602, 2565, 455, 2170, 269, 2688, -8538
0.351737, 2565, 455, 2170, 269, 2688, -8538
0.351872, 2565, 455, 2170, 269, 2688, -8538
0.352007, 2565, 455, 2170, 269, 2688, -8538
0.352141, 2565, 455, 2170, 269, 2688, -8538
0.352276, 2565, 455, 2170, 269, 2688, -8538
0.352410, 2565, 455, 2170, 269, 2688, -8538
0.352545, 2565, 455, 2170, 269, 2688, -8538
0.352679, -2128, -519, 2776, 1131, 3871, -8947
0.352814, -2128, -519, 2776, 1131, 3871, -8947
0.352949, -2128, -519, 2776, 1131, 3871, -8947
0.353083, -2128, -519, 2776, 1131, 3871, -8947
0.353218, -2128, -519, 2776, 1131, 3871, -8947
0.353352, -2128, -519, 2776, 1131, 3871, -8947
0.353487, -2128, -519, 2776, 1131, 3871, -8947
0.353622, -6489, -672, 1560, 2032, 4514, -6434
0.353756, -6489, -672, 1560, 2032, 4514, -6434
0.353891, -6489, -672, 1560, 2032, 4514, -6434
0.354026, -6489, -672, 1560, 2032, 4514, -6434
0.354160, -6489, -672, 1560, 2032, 4514, -6434
0.354295, -6489, -672, 1560, 2032, 4514, -6434
0.354429, -6489, -672, 1560, 2032, 4514, -6434
0.354564, -6489, -672, 1560, 2032, 4514, -6434
0.354698, -6559, 55, 681, 1990, 3831, -2067
0.354833, -6559, 55, 681, 1990, 3831, -2067
0.354968, -6559, 55, 681, 1990, 3831, -2067
0.355102, -6559, 55, 681, 1990, 3831, -2067
0.355237, -6559, 55, 681, 1990, 3831, -2067
0.355371, -6559, 55, 681, 1990, 3831, -2067
0.355506, -6559, 55, 681, 1990, 3831, -2067
0.355640, -1986, 697, 1676, 1215, 2117, 1118
0.355776, -1986, 697, 1676, 1215, 2117, 1118
0.355910, -1986, 697, 1676, 1215, 2117, 1118
0.356045, -1986, 697, 1676, 1215, 2117, 1118
0.356180, -1986, 697, 1676, 1215, 2117, 1118
0.356314, -1986, 697, 1676, 1215, 2117, 1118
0.356449, -1986, 697, 1676, 1215, 2117, 1118
0.356583, -1986, 697, 1676, 1215, 2117, 1118
0.356718, 1548, 768, 2782, 362, 541, 1332
0.356853, 1548, 768, 2782, 362, 541, 1332
0.356987, 1548, 768, 2782, 362, 541, 1332
0.357122, 1548, 768, 2782, 362, 541, 1332
0.357256, 1548, 768, 2782, 362, 541, 1332
0.357391, 1548, 768, 2782, 362, 541, 1332
0.357525, 1548, 768, 2782, 362, 541, 1332
0.357660, 1531, 500, 2876, -131, -310, 53
0.357795, 1531, 500, 2876, -131, -310, 53
0.357929, 1531, 500, 2876, -131, -310, 53
0.358064, 1531, 500, 2876, -131, -310, 53
0.358199, 1531, 500, 2876, -131, -310, 53
0.358333, 1531, 500, 2876, -131, -310, 53
0.358468, 1531, 500, 2876, -131, -310, 53
0.358602, 1531, 500, 2876, -131, -310, 53
0.358737, 695, 451, 2355, -172, -704, -925
0.358871, 695, 451, 2355, -172, -704, -925
0.359006, 695, 451, 2355, -172, -704, -925
0.359141, 695, 451, 2355, -172, -704, -925
0.359275, 695, 451, 2355, -172, -704, -925
0.359410, 695, 451, 2355, -172, -704, -925
0.359544, 695, 451, 2355, -172, -704, -925
0.359679, -559, 454, 1605, -78, -1000, -1326
0.359814, -559, 454, 1605, -78, -1000, -1326
0.359948, -559, 454, 1605, -78, -1000, -1326
0.360083, -559, 454, 1605, -78, -1000, -1326
0.360217, -559, 454, 1605, -78, -1000, -1326
0.360352, -559, 454, 1605, -78, -1000, -1326
0.360486, -559, 454, 1605, -78, -1000, -1326
0.360621, -559, 454, 1605, -78, -1000, -1326
0.360763, -2667, 374, 1244, -62, -1205, -600
0.360899, -2667, 374, 1244, -62, -1205, -600
0.361034, -2667, 374, 1244, -62, -1205, -600
0.361169, -2667, 374, 1244, -62, -1205, -600
0.361303, -2667, 374, 1244, -62, -1205, -600
0.361438, -2667, 374, 1244, -62, -1205, -600
0.361572, -2667, 374, 1244, -62, -1205, -600
0.361707, -1937, 528, 1630, -35, -1326, 1205
0.361841, -1937, 528, 1630, -35, -1326, 1205
0.361976, -1937, 528, 1630, -35, -1326, 1205
0.362110, -1937, 528, 1630, -35, -1326, 1205
0.362245, -1937, 528, 1630, -35, -1326, 1205
0.362380, -1937, 528, 1630, -35, -1326, 1205
0.362514, -1937, 528, 1630, -35, -1326, 1205
0.362649, -1937, 528, 1630, -35, -1326, 1205
0.362783, 1486, 615, 2315, -15, -1306, 1869
0.362918, 1486, 615, 2315, -15, -1306, 1869
0.363052, 1486, 615, 2315, -15, -1306, 1869
0.363187, 1486, 615, 2315, -15, -1306, 1869
0.363322, 1486, 615, 2315, -15, -1306, 1869
0.363456, 1486, 615, 2315, -15, -1306, 1869
0.363591, 1486, 615, 2315, -15, -1306, 1869
0.363726, 2873, 424, 2796, 6, -884, 596
0.363861, 2873, 424, 2796, 6, -884, 596
0.363995, 2873, 424, 2796, 6, -884, 596
0.364130, 2873, 424, 2796, 6, -884, 596
0.364265, 2873, 424, 2796, 6, -884, 596
