Time, ax, ay, az, gx, gy, gz
0.000017, 2670, 492, 1762, 1058, -1657, 3437
0.000183, 2670, 492, 1762, 1058, -1657, 3437
0.000321, 2670, 492, 1762, 1058, -1657, 3437
0.000459, 2670, 492, 1762, 1058, -1657, 3437
0.000597, 2670, 492, 1762, 1058, -1657, 3437
0.000736, 3229, -27, 1982, 472, -2083, 1304
0.000876, 3229, -27, 1982, 472, -2083, 1304
0.001013, 3229, -27, 1982, 472, -2083, 1304
0.001146, 3229, -27, 1982, 472, -2083, 1304
0.001283, 3229, -27, 1982, 472, -2083, 1304
0.001420, 3229, -27, 1982, 472, -2083, 1304
0.001556, 3229, -27, 1982, 472, -2083, 1304
0.001688, 2370, 246, 2128, 405, -1897, -703
0.001825, 2370, 246, 2128, 405, -1897, -703
0.001962, 2370, 246, 2128, 405, -1897, -703
0.002099, 2370, 246, 2128, 405, -1897, -703
0.002236, 2370, 246, 2128, 405, -1897, -703
0.002373, 2370, 246, 2128, 405, -1897, -703
0.002509, 2370, 246, 2128, 405, -1897, -703
0.002647, 2370, 246, 2128, 405, -1897, -703
0.002783, 1615, 452, 2080, 799, -1253, -2087
0.002921, 1615, 452, 2080, 799, -1253, -2087
0.003057, 1615, 452, 2080, 799, -1253, -2087
0.003194, 1615, 452, 2080, 799, -1253, -2087
0.003331, 1615, 452, 2080, 799, -1253, -2087
0.003470, 1615, 452, 2080, 799, -1253, -2087
0.003607, 1615, 452, 2080, 799, -1253, -2087
0.003744, -38, 264, 2004, 1290, -169, -2747
0.003881, -38, 264, 2004, 1290, -169, -2747
0.004018, -38, 264, 2004, 1290, -169, -2747
0.004155, -38, 264, 2004, 1290, -169, -2747
0.004292, -38, 264, 2004, 1290, -169, -2747
0.004429, -38, 264, 2004, 1290, -169, -2747
0.004566, -38, 264, 2004, 1290, -169, -2747
0.004702, -2022, 184, 2078, 1697, 910, -2088
0.004840, -2022, 184, 2078, 1697, 910, -2088
0.004977, -2022, 184, 2078, 1697, 910, -2088
0.005113, -2022, 184, 2078, 1697, 910, -2088
0.005252, -2022, 184, 2078, 1697, 910, -2088
0.005389, -2022, 184, 2078, 1697, 910, -2088
0.005526, -2022, 184, 2078, 1697, 910, -2088
0.005663, -2022, 184, 2078, 1697, 910, -2088
0.005800, -2833, 327, 2006, 1933, 1347, -356
0.005937, -2833, 327, 2006, 1933, 1347, -356
0.006074, -2833, 327, 2006, 1933, 1347, -356
0.006211, -2833, 327, 2006, 1933, 1347, -356
0.006348, -2833, 327, 2006, 1933, 1347, -356
0.006481, -2833, 327, 2006, 1933, 1347, -356
0.006618, -2833, 327, 2006, 1933, 1347, -356
0.006755, -1929, 394, 1778, 1808, 1011, 1450
0.006892, -1929, 394, 1778, 1808, 1011, 1450
0.007029, -1929, 394, 1778, 1808, 1011, 1450
0.007166, -1929, 394, 1778, 1808, 1011, 1450
0.007303, -1929, 394, 1778, 1808, 1011, 1450
0.007440, -1929, 394, 1778, 1808, 1011, 1450
0.007577, -1929, 394, 1778, 1808, 1011, 1450
0.007714, -1929, 394, 1778, 1808, 1011, 1450
0.007851, 1247, 369, 1875, 1339, 33, 2085
0.007988, 1247, 369, 1875, 1339, 33, 2085
0.008125, 1247, 369, 1875, 1339, 33, 2085
0.008262, 1247, 369, 1875, 1339, 33, 2085
0.008399, 1247, 369, 1875, 1339, 33, 2085
0.008536, 1247, 369, 1875, 1339, 33, 2085
0.008673, 1247, 369, 1875, 1339, 33, 2085
0.008809, 3540, 588, 2239, 891, -938, 573
0.008946, 3540, 588, 2239, 891, -938, 573
0.009083, 3540, 588, 2239, 891, -938, 573
0.009220, 3540, 588, 2239, 891, -938, 573
0.009357, 3540, 588, 2239, 891, -938, 573
0.009494, 3540, 588, 2239, 891, -938, 573
0.009631, 3540, 588, 2239, 891, -938, 573
0.009768, 1917, 553, 2258, 785, -942, -1551
0.009905, 1917, 553, 2258, 785, -942, -1551
0.010042, 1917, 553, 2258, 785, -942, -1551
0.010178, 1917, 553, 2258, 785, -942, -1551
0.010315, 1917, 553, 2258, 785, -942, -1551
0.010452, 1917, 553, 2258, 785, -942, -1551
0.010589, 1917, 553, 2258, 785, -942, -1551
0.010726, 1917, 553, 2258, 785, -942, -1551
0.010862, -394, 291, 1884, 931, -301, -2183
0.010999, -394, 291, 1884, 931, -301, -2183
0.011136, -394, 291, 1884, 931, -301, -2183
0.011273, -394, 291, 1884, 931, -301, -2183
0.011410, -394, 291, 1884, 931, -301, -2183
0.011547, -394, 291, 1884, 931, -301, -2183
0.011684, -394, 291, 1884, 931, -301, -2183
0.011821, -1238, 238, 2007, 1260, 134, -1649
0.011958, -1238, 238, 2007, 1260, 134, -1649
0.012094, -1238, 238, 2007, 1260, 134, -1649
0.012231, -1238, 238, 2007, 1260, 134, -1649
0.012368, -1238, 238, 2007, 1260, 134, -1649
0.012505, -1238, 238, 2007, 1260, 134, -1649
0.012642, -1238, 238, 2007, 1260, 134, -1649
0.012911, -2258, 333, 2325, 1765, 414, -575
0.013060, -2258, 333, 2325, 1765, 414, -575
0.013197, -2258, 333, 2325, 1765, 414, -575
0.013334, -2258, 333, 2325, 1765, 414, -575
0.013471, -2258, 333, 2325, 1765, 414, -575
0.013607, -2258, 333, 2325, 1765, 414, -575
0.013744, -2258, 333, 2325, 1765, 414, -575
0.013881, -1138, 335, 2096, 1965, 432, 942
0.014018, -1138, 335, 2096, 1965, 432, 942
0.014154, -1138, 335, 2096, 1965, 432, 942
0.014291, -1138, 335, 2096, 1965, 432, 942
0.014428, -1138, 335, 2096, 1965, 432, 942
0.014565, -1138, 335, 2096, 1965, 432, 942
0.014702, -1138, 335, 2096, 1965, 432, 942
0.014838, 4772, 460, 1938, 1696, -258, 592
0.014975, 4772, 460, 1938, 1696, -258, 592
0.015112, 4772, 460, 1938, 1696, -258, 592
0.015249, 4772, 460, 1938, 1696, -258, 592
0.015386, 4772, 460, 1938, 1696, -258, 592
0.015523, 4772, 460, 1938, 1696, -258, 592
0.015660, 4772, 460, 1938, 1696, -258, 592
0.015796, 4772, 460, 1938, 1696, -258, 592
0.015933, 7247, 717, 1841, 1290, -570, -3378
0.016070, 7247, 717, 1841, 1290, -570, -3378
0.016207, 7247, 717, 1841, 1290, -570, -3378
0.016344, 7247, 717, 1841, 1290, -570, -3378
0.016480, 7247, 717, 1841, 1290, -570, -3378
0.016617, 7247, 717, 1841, 1290, -570, -3378
0.016754, 7247, 717, 1841, 1290, -570, -3378
0.016891, 2200, 441, 1689, 1002, 755, -7086
0.017028, 2200, 441, 1689, 1002, 755, -7086
0.017165, 2200, 441, 1689, 1002, 755, -7086
0.017301, 2200, 441, 1689, 1002, 755, -7086
0.017438, 2200, 441, 1689, 1002, 755, -7086
0.017575, 2200, 441, 1689, 1002, 755, -7086
0.017712, 2200, 441, 1689, 1002, 755, -7086
0.017844, 2200, 441, 1689, 1002, 755, -7086
0.017982, -804, 108, 1742, 1233, 2387, -7388
0.018123, -804, 108, 1742, 1233, 2387, -7388
0.018260, -804, 108, 1742, 1233, 2387, -7388
0.018396, -804, 108, 1742, 1233, 2387, -7388
0.018533, -804, 108, 1742, 1233, 2387, -7388
0.018670, -804, 108, 1742, 1233, 2387, -7388
0.018807, -804, 108, 1742, 1233, 2387, -7388
0.018944, 88, 183, 1799, 1911, 3075, -6726
0.019081, 88, 183, 1799, 1911, 3075, -6726
0.019213, 88, 183, 1799, 1911, 3075, -6726
0.019350, 88, 183, 1799, 1911, 3075, -6726
0.019487, 88, 183, 1799, 1911, 3075, -6726
0.019624, 88, 183, 1799, 1911, 3075, -6726
0.019761, 88, 183, 1799, 1911, 3075, -6726
0.019897, 190, 304, 1966, 2417, 3451, -6641
0.020035, 190, 304, 1966, 2417, 3451, -6641
0.020171, 190, 304, 1966, 2417, 3451, -6641
0.020308, 190, 304, 1966, 2417, 3451, -6641
0.020445, 190, 304, 1966, 2417, 3451, -6641
0.020582, 190, 304, 1966, 2417, 3451, -6641
0.020718, 190, 304, 1966, 2417, 3451, -6641
0.020855, 190, 304, 1966, 2417, 3451, -6641
0.020992, -195, 346, 2148, 2550, 3811, -6417
0.021129, -195, 346, 2148, 2550, 3811, -6417
0.021266, -195, 346, 2148, 2550, 3811, -6417
0.021402, -195, 346, 2148, 2550, 3811, -6417
0.021539, -195, 346, 2148, 2550, 3811, -6417
0.021676, -195, 346, 2148, 2550, 3811, -6417
0.021813, -195, 346, 2148, 2550, 3811, -6417
0.021949, -401, 343, 2186, 2580, 3898, -6070
0.022086, -401, 343, 2186, 2580, 3898, -6070
0.022223, -401, 343, 2186, 2580, 3898, -6070
0.022360, -401, 343, 2186, 2580, 3898, -6070
0.022497, -401, 343, 2186, 2580, 3898, -6070
0.022633, -401, 343, 2186, 2580, 3898, -6070
0.022770, -401, 343, 2186, 2580, 3898, -6070
0.022907, -401, 343, 2186, 2580, 3898, -6070
0.023043, -751, 382, 2291, 2728, 3728, -5704
0.023180, -751, 382, 2291, 2728, 3728, -5704
0.023317, -751, 382, 2291, 2728, 3728, -5704
0.023463, -751, 382, 2291, 2728, 3728, -5704
0.023600, -751, 382, 2291, 2728, 3728, -5704
0.023737, -751, 382, 2291, 2728, 3728, -5704
0.023874, -751, 382, 2291, 2728, 3728, -5704
0.024010, -857, 414, 2370, 2960, 3379, -5167
0.024148, -857, 414, 2370, 2960, 3379, -5167
0.024284, -857, 414, 2370, 2960, 3379, -5167
0.024421, -857, 414, 2370, 2960, 3379, -5167
0.024558, -857, 414, 2370, 2960, 3379, -5167
0.024694, -857, 414, 2370, 2960, 3379, -5167
0.024831, -857, 414, 2370, 2960, 3379, -5167
0.024968, -218, 352, 2136, 3089, 2835, -4727
0.025105, -218, 352, 2136, 3089, 2835, -4727
0.025242, -218, 352, 2136, 3089, 2835, -4727
0.025378, -218, 352, 2136, 3089, 2835, -4727
0.025619, -218, 352, 2136, 3089, 2835, -4727
0.025767, -218, 352, 2136, 3089, 2835, -4727
0.025905, -218, 352, 2136, 3089, 2835, -4727
0.026042, 607, 318, 1785, 2971, 2219, -4840
0.026179, 607, 318, 1785, 2971, 2219, -4840
0.026316, 607, 318, 1785, 2971, 2219, -4840
0.026453, 607, 318, 1785, 2971, 2219, -4840
0.026589, 607, 318, 1785, 2971, 2219, -4840
0.026726, 607, 318, 1785, 2971, 2219, -4840
0.026863, 607, 318, 1785, 2971, 2219, -4840
0.027000, 646, 346, 1772, 2730, 1870, -5365
0.027137, 646, 346, 1772, 2730, 1870, -5365
0.027274, 646, 346, 1772, 2730, 1870, -5365
0.027411, 646, 346, 1772, 2730, 1870, -5365
0.027548, 646, 346, 1772, 2730, 1870, -5365
0.027685, 646, 346, 1772, 2730, 1870, -5365
0.027822, 646, 346, 1772, 2730, 1870, -5365
0.027959, 646, 346, 1772, 2730, 1870, -5365
0.028095, -47, 309, 2039, 2650, 1934, -5683
0.028232, -47, 309, 2039, 2650, 1934, -5683
0.028369, -47, 309, 2039, 2650, 1934, -5683
0.028506, -47, 309, 2039, 2650, 1934, -5683
0.028643, -47, 309, 2039, 2650, 1934, -5683
0.028780, -47, 309, 2039, 2650, 1934, -5683
0.028917, -47, 309, 2039, 2650, 1934, -5683
0.029054, -969, 221, 2383, 2867, 2214, -5445
0.029191, -969, 221, 2383, 2867, 2214, -5445
0.029328, -969, 221, 2383, 2867, 2214, -5445
0.029465, -969, 221, 2383, 2867, 2214, -5445
0.029602, -969, 221, 2383, 2867, 2214, -5445
0.029739, -969, 221, 2383, 2867, 2214, -5445
0.029876, -969, 221, 2383, 2867, 2214, -5445
0.030012, -969, 221, 2383, 2867, 2214, -5445
0.030149, -3721, 113, 2938, 3431, 2598, -4308
0.030286, -3721, 113, 2938, 3431, 2598, -4308
0.030423, -3721, 113, 2938, 3431, 2598, -4308
0.030560, -3721, 113, 2938, 3431, 2598, -4308
0.030697, -3721, 113, 2938, 3431, 2598, -4308
0.030834, -3721, 113, 2938, 3431, 2598, -4308
0.030971, -3721, 113, 2938, 3431, 2598, -4308
0.031108, -9725, 189, 3217, 4223, 2962, -638
0.031245, -9725, 189, 3217, 4223, 2962, -638
0.031382, -9725, 189, 3217, 4223, 2962, -638
0.031519, -9725, 189, 3217, 4223, 2962, -638
0.031656, -9725, 189, 3217, 4223, 2962, -638
0.031793, -9725, 189, 3217, 4223, 2962, -638
0.031930, -9725, 189, 3217, 4223, 2962, -638
0.032067, -12220, 162, 2856, 4839, 2264, 6559
0.032204, -12220, 162, 2856, 4839, 2264, 6559
0.032341, -12220, 162, 2856, 4839, 2264, 6559
0.032478, -12220, 162, 2856, 4839, 2264, 6559
0.032615, -12220, 162, 2856, 4839, 2264, 6559
0.032751, -12220, 162, 2856, 4839, 2264, 6559
0.032888, -12220, 162, 2856, 4839, 2264, 6559
0.033025, -12220, 162, 2856, 4839, 2264, 6559
0.033162, -5576, -545, -128, 3920, -854, 13020
0.033299, -5576, -545, -128, 3920, -854, 13020
0.033436, -5576, -545, -128, 3920, -854, 13020
0.033573, -5576, -545, -128, 3920, -854, 13020
0.033710, -5576, -545, -128, 3920, -854, 13020
0.033847, -5576, -545, -128, 3920, -854, 13020
0.033984, -5576, -545, -128, 3920, -854, 13020
0.034121, 1127, -354, -1063, 719, -5204, 14082
0.034258, 1127, -354, -1063, 719, -5204, 14082
0.034395, 1127, -354, -1063, 719, -5204, 14082
0.034532, 1127, -354, -1063, 719, -5204, 14082
0.034669, 1127, -354, -1063, 719, -5204, 14082
0.034806, 1127, -354, -1063, 719, -5204, 14082
0.034943, 1127, -354, -1063, 719, -5204, 14082
0.035079, 1127, -354, -1063, 719, -5204, 14082
0.035216, 884, 1522, 4091, -1250, -7858, 12361
0.035353, 884, 1522, 4091, -1250, -7858, 12361
0.035491, 884, 1522, 4091, -1250, -7858, 12361
0.035628, 884, 1522, 4091, -1250, -7858, 12361
0.035764, 884, 1522, 4091, -1250, -7858, 12361
0.035901, 884, 1522, 4091, -1250, -7858, 12361
0.036038, 884, 1522, 4091, -1250, -7858, 12361
0.036175, 2811, 1378, 4169, -685, -8233, 11125
0.036312, 2811, 1378, 4169, -685, -8233, 11125
0.036449, 2811, 1378, 4169, -685, -8233, 11125
0.036586, 2811, 1378, 4169, -685, -8233, 11125
0.036723, 2811, 1378, 4169, -685, -8233, 11125
0.036859, 2811, 1378, 4169, -685, -8233, 11125
0.036996, 2811, 1378, 4169, -685, -8233, 11125
0.037133, 8929, -286, 83, -984, -7576, 7669
0.037270, 8929, -286, 83, -984, -7576, 7669
0.037407, 8929, -286, 83, -984, -7576, 7669
0.037544, 8929, -286, 83, -984, -7576, 7669
0.037681, 8929, -286, 83, -984, -7576, 7669
0.037818, 8929, -286, 83, -984, -7576, 7669
0.038045, 8929, -286, 83, -984, -7576, 7669
0.038194, 7180, 297, 361, -1841, -6112, 1802
0.038332, 7180, 297, 361, -1841, -6112, 1802
0.038469, 7180, 297, 361, -1841, -6112, 1802
0.038606, 7180, 297, 361, -1841, -6112, 1802
0.038743, 7180, 297, 361, -1841, -6112, 1802
0.038880, 7180, 297, 361, -1841, -6112, 1802
0.039017, 7180, 297, 361, -1841, -6112, 1802
0.039154, -684, 816, 1433, -1824, -3360, -842
0.039291, -684, 816, 1433, -1824, -3360, -842
0.039428, -684, 816, 1433, -1824, -3360, -842
0.039565, -684, 816, 1433, -1824, -3360, -842
0.039702, -684, 816, 1433, -1824, -3360, -842
0.039839, -684, 816, 1433, -1824, -3360, -842
0.039976, -684, 816, 1433, -1824, -3360, -842
0.040113, -684, 816, 1433, -1824, -3360, -842
0.040250, -3344, 207, 2205, -1209, -435, 967
0.040387, -3344, 207, 2205, -1209, -435, 967
0.040524, -3344, 207, 2205, -1209, -435, 967
0.040661, -3344, 207, 2205, -1209, -435, 967
0.040798, -3344, 207, 2205, -1209, -435, 967
0.040934, -3344, 207, 2205, -1209, -435, 967
0.041071, -3344, 207, 2205, -1209, -435, 967
0.041208, 848, -20, 3125, -29, 903, 2790
0.041346, 848, -20, 3125, -29, 903, 2790
0.041482, 848, -20, 3125, -29, 903, 2790
0.041619, 848, -20, 3125, -29, 903, 2790
0.041756, 848, -20, 3125, -29, 903, 2790
0.041893, 848, -20, 3125, -29, 903, 2790
0.042030, 848, -20, 3125, -29, 903, 2790
0.042167, 848, -20, 3125, -29, 903, 2790
0.042304, 5485, 224, 3098, 878, 1174, 1451
0.042441, 5485, 224, 3098, 878, 1174, 1451
0.042578, 5485, 224, 3098, 878, 1174, 1451
0.042715, 5485, 224, 3098, 878, 1174, 1451
0.042852, 5485, 224, 3098, 878, 1174, 1451
0.042989, 5485, 224, 3098, 878, 1174, 1451
0.043126, 5485, 224, 3098, 878, 1174, 1451
0.043262, 4779, 727, 2512, 943, 1853, -1890
0.043400, 4779, 727, 2512, 943, 1853, -1890
0.043537, 4779, 727, 2512, 943, 1853, -1890
0.043674, 4779, 727, 2512, 943, 1853, -1890
0.043811, 4779, 727, 2512, 943, 1853, -1890
0.043948, 4779, 727, 2512, 943, 1853, -1890
0.044085, 4779, 727, 2512, 943, 1853, -1890
0.044221, 1591, 583, 1711, 708, 2934, -4122
0.044359, 1591, 583, 1711, 708, 2934, -4122
0.044495, 1591, 583, 1711, 708, 2934, -4122
0.044632, 1591, 583, 1711, 708, 2934, -4122
0.044769, 1591, 583, 1711, 708, 2934, -4122
0.044906, 1591, 583, 1711, 708, 2934, -4122
0.045043, 1591, 583, 1711, 708, 2934, -4122
0.045180, 1591, 583, 1711, 708, 2934, -4122
0.045317, -398, 132, 1459, 841, 3591, -4642
0.045454, -398, 132, 1459, 841, 3591, -4642
0.045591, -398, 132, 1459, 841, 3591, -4642
0.045728, -398, 132, 1459, 841, 3591, -4642
0.045864, -398, 132, 1459, 841, 3591, -4642
0.046001, -398, 132, 1459, 841, 3591, -4642
0.046138, -398, 132, 1459, 841, 3591, -4642
0.046275, -2299, 48, 1665, 1225, 3684, -3958
0.046412, -2299, 48, 1665, 1225, 3684, -3958
0.046549, -2299, 48, 1665, 1225, 3684, -3958
0.046686, -2299, 48, 1665, 1225, 3684, -3958
0.046823, -2299, 48, 1665, 1225, 3684, -3958
0.046960, -2299, 48, 1665, 1225, 3684, -3958
0.047097, -2299, 48, 1665, 1225, 3684, -3958
0.047233, -2299, 48, 1665, 1225, 3684, -3958
0.047370, -3423, 221, 1302, 1291, 3299, -2063
0.047508, -3423, 221, 1302, 1291, 3299, -2063
0.047645, -3423, 221, 1302, 1291, 3299, -2063
0.047782, -3423, 221, 1302, 1291, 3299, -2063
0.047918, -3423, 221, 1302, 1291, 3299, -2063
0.048055, -3423, 221, 1302, 1291, 3299, -2063
0.048192, -3423, 221, 1302, 1291, 3299, -2063
0.048329, -2655, 318, 1063, 773, 2205, 10
0.048466, -2655, 318, 1063, 773, 2205, 10
0.048603, -2655, 318, 1063, 773, 2205, 10
0.048740, -2655, 318, 1063, 773, 2205, 10
0.048877, -2655, 318, 1063, 773, 2205, 10
0.049014, -2655, 318, 1063, 773, 2205, 10
0.049151, -2655, 318, 1063, 773, 2205, 10
0.049288, -899, 111, 2159, 220, 832, 1211
0.049425, -899, 111, 2159, 220, 832, 1211
0.049562, -899, 111, 2159, 220, 832, 1211
0.049698, -899, 111, 2159, 220, 832, 1211
0.049835, -899, 111, 2159, 220, 832, 1211
0.049972, -899, 111, 2159, 220, 832, 1211
0.050109, -899, 111, 2159, 220, 832, 1211
0.050246, -899, 111, 2159, 220, 832, 1211
0.050383, 1973, 297, 2685, 152, -224, 1107
0.050520, 1973, 297, 2685, 152, -224, 1107
0.050657, 1973, 297, 2685, 152, -224, 1107
0.050794, 1973, 297, 2685, 152, -224, 1107
0.051021, 1973, 297, 2685, 152, -224, 1107
0.051169, 1973, 297, 2685, 152, -224, 1107
0.051306, 3142, 717, 1546, -10, -751, -665
0.051444, 3142, 717, 1546, -10, -751, -665
0.051581, 3142, 717, 1546, -10, -751, -665
0.051718, 3142, 717, 1546, -10, -751, -665
0.051855, 3142, 717, 1546, -10, -751, -665
0.051992, 3142, 717, 1546, -10, -751, -665
0.052128, 3142, 717, 1546, -10, -751, -665
0.052265, 3142, 717, 1546, -10, -751, -665
0.052402, -761, 650, 168, -633, -579, -2127
0.052539, -761, 650, 168, -633, -579, -2127
0.052676, -761, 650, 168, -633, -579, -2127
0.052813, -761, 650, 168, -633, -579, -2127
0.052950, -761, 650, 168, -633, -579, -2127
0.053087, -761, 650, 168, -633, -579, -2127
0.053224, -761, 650, 168, -633, -579, -2127
0.053361, -4390, 494, -1507, -1959, -316, -625
0.053498, -4390, 494, -1507, -1959, -316, -625
0.053636, -4390, 494, -1507, -1959, -316, -625
0.053773, -4390, 494, -1507, -1959, -316, -625
0.053910, -4390, 494, -1507, -1959, -316, -625
0.054047, -4390, 494, -1507, -1959, -316, -625
0.054184, -4390, 494, -1507, -1959, -316, -625
0.054321, -4390, 494, -1507, -1959, -316, -625
0.054458, -2425, -338, 1579, -3242, -683, 2130
0.054596, -2425, -338, 1579, -3242, -683, 2130
0.054733, -2425, -338, 1579, -3242, -683, 2130
0.054870, -2425, -338, 1579, -3242, -683, 2130
0.055007, -2425, -338, 1579, -3242, -683, 2130
0.055144, -2425, -338, 1579, -3242, -683, 2130
0.055281, -2425, -338, 1579, -3242, -683, 2130
0.055418, 1283, -667, 7041, -1818, -1111, 3038
0.055556, 1283, -667, 7041, -1818, -1111, 3038
0.055692, 1283, -667, 7041, -1818, -1111, 3038
0.055829, 1283, -667, 7041, -1818, -1111, 3038
0.055965, 1283, -667, 7041, -1818, -1111, 3038
0.056101, 1283, -667, 7041, -1818, -1111, 3038
0.056237, 1283, -667, 7041, -1818, -1111, 3038
0.056374, 3549, 823, 4996, 889, -935, 1810
0.056510, 3549, 823, 4996, 889, -935, 1810
0.056647, 3549, 823, 4996, 889, -935, 1810
0.056783, 3549, 823, 4996, 889, -935, 1810
0.056919, 3549, 823, 4996, 889, -935, 1810
0.057055, 3549, 823, 4996, 889, -935, 1810
0.057192, 3549, 823, 4996, 889, -935, 1810
0.057328, 3549, 823, 4996, 889, -935, 1810
0.057464, 5179, 1358, 1612, 1349, -590, -1036
0.057600, 5179, 1358, 1612, 1349, -590, -1036
0.057737, 5179, 1358, 1612, 1349, -590, -1036
0.057873, 5179, 1358, 1612, 1349, -590, -1036
0.058009, 5179, 1358, 1612, 1349, -590, -1036
0.058145, 5179, 1358, 1612, 1349, -590, -1036
0.058282, 5179, 1358, 1612, 1349, -590, -1036
0.058418, 4606, 719, 1716, 831, -193, -4557
0.058554, 4606, 719, 1716, 831, -193, -4557
0.058691, 4606, 719, 1716, 831, -193, -4557
0.058827, 4606, 719, 1716, 831, -193, -4557
0.058963, 4606, 719, 1716, 831, -193, -4557
0.059099, 4606, 719, 1716, 831, -193, -4557
0.059236, 4606, 719, 1716, 831, -193, -4557
0.059372, 4606, 719, 1716, 831, -193, -4557
0.059511, 2035, 455, 1800, 912, 964, -6960
0.059650, 2035, 455, 1800, 912, 964, -6960
0.059788, 2035, 455, 1800, 912, 964, -6960
0.059925, 2035, 455, 1800, 912, 964, -6960
0.060062, 2035, 455, 1800, 912, 964, -6960
0.060198, 2035, 455, 1800, 912, 964, -6960
0.060335, 2035, 455, 1800, 912, 964, -6960
0.060472, 192, 257, 1791, 1228, 2658, -7571
0.060610, 192, 257, 1791, 1228, 2658, -7571
0.060747, 192, 257, 1791, 1228, 2658, -7571
0.060884, 192, 257, 1791, 1228, 2658, -7571
0.061021, 192, 257, 1791, 1228, 2658, -7571
0.061158, 192, 257, 1791, 1228, 2658, -7571
0.061295, 192, 257, 1791, 1228, 2658, -7571
0.061432, 192, 257, 1791, 1228, 2658, -7571
0.061568, -250, 169, 1812, 1644, 3936, -7222
0.061706, -250, 169, 1812, 1644, 3936, -7222
0.061843, -250, 169, 1812, 1644, 3936, -7222
0.061980, -250, 169, 1812, 1644, 3936, -7222
0.062117, -250, 169, 1812, 1644, 3936, -7222
0.062254, -250, 169, 1812, 1644, 3936, -7222
0.062390, -250, 169, 1812, 1644, 3936, -7222
0.062527, -375, 250, 1946, 1942, 4667, -6752
0.062665, -375, 250, 1946, 1942, 4667, -6752
0.062802, -375, 250, 1946, 1942, 4667, -6752
0.062939, -375, 250, 1946, 1942, 4667, -6752
0.063076, -375, 250, 1946, 1942, 4667, -6752
0.063212, -375, 250, 1946, 1942, 4667, -6752
0.063349, -375, 250, 1946, 1942, 4667, -6752
0.063587, -926, 277, 2099, 1977, 5045, -6199
0.063735, -926, 277, 2099, 1977, 5045, -6199
0.063872, -926, 277, 2099, 1977, 5045, -6199
0.064009, -926, 277, 2099, 1977, 5045, -6199
0.064147, -926, 277, 2099, 1977, 5045, -6199
0.064284, -926, 277, 2099, 1977, 5045, -6199
0.064421, -926, 277, 2099, 1977, 5045, -6199
0.064558, -1810, 217, 2108, 1905, 4937, -5345
0.064695, -1810, 217, 2108, 1905, 4937, -5345
0.064832, -1810, 217, 2108, 1905, 4937, -5345
0.064969, -1810, 217, 2108, 1905, 4937, -5345
0.065106, -1810, 217, 2108, 1905, 4937, -5345
0.065243, -1810, 217, 2108, 1905, 4937, -5345
0.065380, -1810, 217, 2108, 1905, 4937, -5345
0.065517, -3267, 231, 2269, 1941, 4258, -3931
0.065654, -3267, 231, 2269, 1941, 4258, -3931
0.065791, -3267, 231, 2269, 1941, 4258, -3931
0.065929, -3267, 231, 2269, 1941, 4258, -3931
0.066066, -3267, 231, 2269, 1941, 4258, -3931
0.066203, -3267, 231, 2269, 1941, 4258, -3931
0.066340, -3267, 231, 2269, 1941, 4258, -3931
0.066477, -3267, 231, 2269, 1941, 4258, -3931
0.066614, -4775, 399, 2586, 2073, 3160, -1640
0.066751, -4775, 399, 2586, 2073, 3160, -1640
0.066888, -4775, 399, 2586, 2073, 3160, -1640
0.067025, -4775, 399, 2586, 2073, 3160, -1640
0.067162, -4775, 399, 2586, 2073, 3160, -1640
0.067299, -4775, 399, 2586, 2073, 3160, -1640
0.067436, -4775, 399, 2586, 2073, 3160, -1640
0.067574, -5743, 881, 3136, 2275, 1834, 1513
0.067711, -5743, 881, 3136, 2275, 1834, 1513
0.067848, -5743, 881, 3136, 2275, 1834, 1513
0.067985, -5743, 881, 3136, 2275, 1834, 1513
0.068122, -5743, 881, 3136, 2275, 1834, 1513
0.068259, -5743, 881, 3136, 2275, 1834, 1513
0.068396, -5743, 881, 3136, 2275, 1834, 1513
0.068533, -5743, 881, 3136, 2275, 1834, 1513
0.068670, -2445, 143, 2905, 2408, 5, 4440
0.068808, -2445, 143, 2905, 2408, 5, 4440
0.068945, -2445, 143, 2905, 2408, 5, 4440
0.069082, -2445, 143, 2905, 2408, 5, 4440
0.069219, -2445, 143, 2905, 2408, 5, 4440
0.069356, -2445, 143, 2905, 2408, 5, 4440
0.069493, -2445, 143, 2905, 2408, 5, 4440
0.069630, 3831, -857, 847, 1653, -2379, 4147
0.069767, 3831, -857, 847, 1653, -2379, 4147
0.069904, 3831, -857, 847, 1653, -2379, 4147
0.070041, 3831, -857, 847, 1653, -2379, 4147
0.070178, 3831, -857, 847, 1653, -2379, 4147
0.070310, 3831, -857, 847, 1653, -2379, 4147
0.070448, 3831, -857, 847, 1653, -2379, 4147
0.070585, 4106, 653, 170, 21, -3863, 762
0.070722, 4106, 653, 170, 21, -3863, 762
0.070859, 4106, 653, 170, 21, -3863, 762
0.070996, 4106, 653, 170, 21, -3863, 762
0.071133, 4106, 653, 170, 21, -3863, 762
0.071270, 4106, 653, 170, 21, -3863, 762
0.071407, 4106, 653, 170, 21, -3863, 762
0.071544, 4106, 653, 170, 21, -3863, 762
0.071681, 2254, 1474, 1982, -842, -3551, -1661
0.071819, 2254, 1474, 1982, -842, -3551, -1661
0.071956, 2254, 1474, 1982, -842, -3551, -1661
0.072093, 2254, 1474, 1982, -842, -3551, -1661
0.072230, 2254, 1474, 1982, -842, -3551, -1661
0.072367, 2254, 1474, 1982, -842, -3551, -1661
0.072504, 2254, 1474, 1982, -842, -3551, -1661
0.072641, 3499, 579, 2769, -290, -2138, -3177
0.072778, 3499, 579, 2769, -290, -2138, -3177
0.072915, 3499, 579, 2769, -290, -2138, -3177
0.073052, 3499, 579, 2769, -290, -2138, -3177
0.073189, 3499, 579, 2769, -290, -2138, -3177
0.073327, 3499, 579, 2769, -290, -2138, -3177
0.073464, 3499, 579, 2769, -290, -2138, -3177
0.073601, 3499, 579, 2769, -290, -2138, -3177
0.073738, 2716, 376, 2143, 676, -181, -5119
0.073875, 2716, 376, 2143, 676, -181, -5119
0.074012, 2716, 376, 2143, 676, -181, -5119
0.074149, 2716, 376, 2143, 676, -181, -5119
0.074286, 2716, 376, 2143, 676, -181, -5119
0.074423, 2716, 376, 2143, 676, -181, -5119
0.074560, 2716, 376, 2143, 676, -181, -5119
0.074697, -543, 387, 1653, 1228, 1731, -5724
0.074835, -543, 387, 1653, 1228, 1731, -5724
0.074970, -543, 387, 1653, 1228, 1731, -5724
0.075109, -543, 387, 1653, 1228, 1731, -5724
0.075248, -543, 387, 1653, 1228, 1731, -5724
0.075386, -543, 387, 1653, 1228, 1731, -5724
0.075524, -543, 387, 1653, 1228, 1731, -5724
0.075661, -3171, 407, 1736, 1433, 2989, -4213
0.075798, -3171, 407, 1736, 1433, 2989, -4213
0.075935, -3171, 407, 1736, 1433, 2989, -4213
0.076173, -3171, 407, 1736, 1433, 2989, -4213
0.076324, -3171, 407, 1736, 1433, 2989, -4213
0.076463, -3171, 407, 1736, 1433, 2989, -4213
0.076600, -3171, 407, 1736, 1433, 2989, -4213
0.076733, -4827, 570, 2217, 1601, 3367, -1484
0.076874, -4827, 570, 2217, 1601, 3367, -1484
0.077011, -4827, 570, 2217, 1601, 3367, -1484
0.077148, -4827, 570, 2217, 1601, 3367, -1484
0.077285, -4827, 570, 2217, 1601, 3367, -1484
0.077422, -4827, 570, 2217, 1601, 3367, -1484
0.077554, -4827, 570, 2217, 1601, 3367, -1484
0.077691, -6447, 271, 2381, 1581, 2852, 2100
0.077828, -6447, 271, 2381, 1581, 2852, 2100
0.077965, -6447, 271, 2381, 1581, 2852, 2100
0.078102, -6447, 271, 2381, 1581, 2852, 2100
0.078239, -6447, 271, 2381, 1581, 2852, 2100
0.078376, -6447, 271, 2381, 1581, 2852, 2100
0.078513, -6447, 271, 2381, 1581, 2852, 2100
0.078650, -6447, 271, 2381, 1581, 2852, 2100
0.078787, -4643, -728, 3733, 1409, 1158, 5819
0.078924, -4643, -728, 3733, 1409, 1158, 5819
0.079061, -4643, -728, 3733, 1409, 1158, 5819
0.079198, -4643, -728, 3733, 1409, 1158, 5819
0.079335, -4643, -728, 3733, 1409, 1158, 5819
0.079473, -4643, -728, 3733, 1409, 1158, 5819
0.079610, -4643, -728, 3733, 1409, 1158, 5819
0.079747, -2483, 115, 5910, 2308, -1120, 7815
0.079885, -2483, 115, 5910, 2308, -1120, 7815
0.080022, -2483, 115, 5910, 2308, -1120, 7815
0.080159, -2483, 115, 5910, 2308, -1120, 7815
0.080296, -2483, 115, 5910, 2308, -1120, 7815
0.080433, -2483, 115, 5910, 2308, -1120, 7815
0.080570, -2483, 115, 5910, 2308, -1120, 7815
0.080707, -3545, 2280, 3896, 3667, -2652, 9129
0.080844, -3545, 2280, 3896, 3667, -2652, 9129
0.080981, -3545, 2280, 3896, 3667, -2652, 9129
0.081118, -3545, 2280, 3896, 3667, -2652, 9129
0.081255, -3545, 2280, 3896, 3667, -2652, 9129
0.081392, -3545, 2280, 3896, 3667, -2652, 9129
0.081529, -3545, 2280, 3896, 3667, -2652, 9129
0.081666, -3545, 2280, 3896, 3667, -2652, 9129
0.081803, -1007, 2016, -539, 2634, -4204, 10343
0.081941, -1007, 2016, -539, 2634, -4204, 10343
0.082078, -1007, 2016, -539, 2634, -4204, 10343
0.082215, -1007, 2016, -539, 2634, -4204, 10343
0.082352, -1007, 2016, -539, 2634, -4204, 10343
0.082489, -1007, 2016, -539, 2634, -4204, 10343
0.082626, -1007, 2016, -539, 2634, -4204, 10343
0.082763, 1725, 662, -1255, -177, -6229, 9478
0.082900, 1725, 662, -1255, -177, -6229, 9478
0.083037, 1725, 662, -1255, -177, -6229, 9478
0.083174, 1725, 662, -1255, -177, -6229, 9478
0.083311, 1725, 662, -1255, -177, -6229, 9478
0.083448, 1725, 662, -1255, -177, -6229, 9478
0.083593, 1725, 662, -1255, -177, -6229, 9478
0.083730, 1725, 662, -1255, -177, -6229, 9478
0.083867, 1155, -186, 190, -2309, -7285, 8092
0.084004, 1155, -186, 190, -2309, -7285, 8092
0.084141, 1155, -186, 190, -2309, -7285, 8092
0.084273, 1155, -186, 190, -2309, -7285, 8092
0.084412, 1155, -186, 190, -2309, -7285, 8092
0.084551, 1155, -186, 190, -2309, -7285, 8092
0.084689, 1155, -186, 190, -2309, -7285, 8092
0.084827, 1018, -269, 1564, -3289, -6968, 7523
0.084968, 1018, -269, 1564, -3289, -6968, 7523
0.085105, 1018, -269, 1564, -3289, -6968, 7523
0.085243, 1018, -269, 1564, -3289, -6968, 7523
0.085382, 1018, -269, 1564, -3289, -6968, 7523
0.085520, 1018, -269, 1564, -3289, -6968, 7523
0.085664, 1018, -269, 1564, -3289, -6968, 7523
0.085808, 4309, -530, 3361, -2751, -6014, 6479
0.085941, 4309, -530, 3361, -2751, -6014, 6479
0.086079, 4309, -530, 3361, -2751, -6014, 6479
0.086216, 4309, -530, 3361, -2751, -6014, 6479
0.086353, 4309, -530, 3361, -2751, -6014, 6479
0.086490, 4309, -530, 3361, -2751, -6014, 6479
0.086627, 4309, -530, 3361, -2751, -6014, 6479
0.086764, 4309, -530, 3361, -2751, -6014, 6479
0.086901, 9034, -669, 3380, -1118, -4663, 3021
0.087038, 9034, -669, 3380, -1118, -4663, 3021
0.087175, 9034, -669, 3380, -1118, -4663, 3021
0.087312, 9034, -669, 3380, -1118, -4663, 3021
0.087449, 9034, -669, 3380, -1118, -4663, 3021
0.087594, 9034, -669, 3380, -1118, -4663, 3021
0.087731, 9034, -669, 3380, -1118, -4663, 3021
0.087868, 6715, 547, 1582, -165, -2372, -2246
0.088005, 6715, 547, 1582, -165, -2372, -2246
0.088142, 6715, 547, 1582, -165, -2372, -2246
0.088279, 6715, 547, 1582, -165, -2372, -2246
0.088539, 6715, 547, 1582, -165, -2372, -2246
0.088687, 6715, 547, 1582, -165, -2372, -2246
0.088825, 435, 651, 733, -183, 408, -4793
0.088963, 435, 651, 733, -183, 408, -4793
0.089100, 435, 651, 733, -183, 408, -4793
0.089237, 435, 651, 733, -183, 408, -4793
0.089374, 435, 651, 733, -183, 408, -4793
0.089511, 435, 651, 733, -183, 408, -4793
0.089648, 435, 651, 733, -183, 408, -4793
0.089785, 435, 651, 733, -183, 408, -4793
0.089922, -1927, 75, 1160, -14, 2303, -3884
0.090059, -1927, 75, 1160, -14, 2303, -3884
0.090196, -1927, 75, 1160, -14, 2303, -3884
0.090333, -1927, 75, 1160, -14, 2303, -3884
0.090470, -1927, 75, 1160, -14, 2303, -3884
0.090607, -1927, 75, 1160, -14, 2303, -3884
0.090744, -1927, 75, 1160, -14, 2303, -3884
0.090879, -2337, 324, 1799, 461, 3192, -2156
0.091017, -2337, 324, 1799, 461, 3192, -2156
0.091155, -2337, 324, 1799, 461, 3192, -2156
0.091292, -2337, 324, 1799, 461, 3192, -2156
0.091429, -2337, 324, 1799, 461, 3192, -2156
0.091567, -2337, 324, 1799, 461, 3192, -2156
0.091704, -2337, 324, 1799, 461, 3192, -2156
0.091841, -2337, 324, 1799, 461, 3192, -2156
0.091978, -3005, 501, 2187, 626, 3457, -84
0.092115, -3005, 501, 2187, 626, 3457, -84
0.092252, -3005, 501, 2187, 626, 3457, -84
0.092389, -3005, 501, 2187, 626, 3457, -84
0.092526, -3005, 501, 2187, 626, 3457, -84
0.092663, -3005, 501, 2187, 626, 3457, -84
0.092800, -3005, 501, 2187, 626, 3457, -84
0.092937, -2157, 642, 1921, 364, 2743, 1946
0.093074, -2157, 642, 1921, 364, 2743, 1946
0.093211, -2157, 642, 1921, 364, 2743, 1946
0.093348, -2157, 642, 1921, 364, 2743, 1946
0.093485, -2157, 642, 1921, 364, 2743, 1946
0.093622, -2157, 642, 1921, 364, 2743, 1946
0.093759, -2157, 642, 1921, 364, 2743, 1946
0.093896, -1323, 637, 2076, -143, 1279, 2962
0.094033, -1323, 637, 2076, -143, 1279, 2962
0.094170, -1323, 637, 2076, -143, 1279, 2962
0.094307, -1323, 637, 2076, -143, 1279, 2962
0.094444, -1323, 637, 2076, -143, 1279, 2962
0.094581, -1323, 637, 2076, -143, 1279, 2962
0.094718, -1323, 637, 2076, -143, 1279, 2962
0.094855, -1323, 637, 2076, -143, 1279, 2962
0.094992, -2152, 326, 2551, -443, -164, 3662
0.095129, -2152, 326, 2551, -443, -164, 3662
0.095266, -2152, 326, 2551, -443, -164, 3662
0.095403, -2152, 326, 2551, -443, -164, 3662
0.095541, -2152, 326, 2551, -443, -164, 3662
0.095678, -2152, 326, 2551, -443, -164, 3662
0.095815, -2152, 326, 2551, -443, -164, 3662
0.095952, -2961, 330, 1936, -571, -1570, 4971
0.096089, -2961, 330, 1936, -571, -1570, 4971
0.096226, -2961, 330, 1936, -571, -1570, 4971
0.096363, -2961, 330, 1936, -571, -1570, 4971
0.096500, -2961, 330, 1936, -571, -1570, 4971
0.096637, -2961, 330, 1936, -571, -1570, 4971
0.096774, -2961, 330, 1936, -571, -1570, 4971
0.096911, -2961, 330, 1936, -571, -1570, 4971
0.097048, -2306, 349, 2095, -778, -3093, 6605
0.097186, -2306, 349, 2095, -778, -3093, 6605
0.097323, -2306, 349, 2095, -778, -3093, 6605
0.097460, -2306, 349, 2095, -778, -3093, 6605
0.097597, -2306, 349, 2095, -778, -3093, 6605
0.097734, -2306, 349, 2095, -778, -3093, 6605
0.097871, -2306, 349, 2095, -778, -3093, 6605
0.098008, 1857, 110, 3051, -640, -4589, 7153
0.098145, 1857, 110, 3051, -640, -4589, 7153
0.098282, 1857, 110, 3051, -640, -4589, 7153
0.098415, 1857, 110, 3051, -640, -4589, 7153
0.098548, 1857, 110, 3051, -640, -4589, 7153
0.098685, 1857, 110, 3051, -640, -4589, 7153
0.098822, 1857, 110, 3051, -640, -4589, 7153
0.098959, 5702, 618, 2775, -265, -5306, 4872
0.099097, 5702, 618, 2775, -265, -5306, 4872
0.099234, 5702, 618, 2775, -265, -5306, 4872
0.099371, 5702, 618, 2775, -265, -5306, 4872
0.099508, 5702, 618, 2775, -265, -5306, 4872
0.099645, 5702, 618, 2775, -265, -5306, 4872
0.099782, 5702, 618, 2775, -265, -5306, 4872
0.099919, 5702, 618, 2775, -265, -5306, 4872
0.100056, 5000, 899, 1767, -244, -4569, 1173
0.100193, 5000, 899, 1767, -244, -4569, 1173
0.100330, 5000, 899, 1767, -244, -4569, 1173
0.100467, 5000, 899, 1767, -244, -4569, 1173
0.100605, 5000, 899, 1767, -244, -4569, 1173
0.100742, 5000, 899, 1767, -244, -4569, 1173
0.100879, 5000, 899, 1767, -244, -4569, 1173
0.101112, 3500, 115, 1341, -365, -3085, -1555
0.101260, 3500, 115, 1341, -365, -3085, -1555
0.101397, 3500, 115, 1341, -365, -3085, -1555
0.101534, 3500, 115, 1341, -365, -3085, -1555
0.101672, 3500, 115, 1341, -365, -3085, -1555
0.101809, 3500, 115, 1341, -365, -3085, -1555
0.101946, 3500, 115, 1341, -365, -3085, -1555
0.102083, 942, 12, 1499, -47, -1370, -3097
0.102220, 942, 12, 1499, -47, -1370, -3097
0.102357, 942, 12, 1499, -47, -1370, -3097
0.102494, 942, 12, 1499, -47, -1370, -3097
0.102631, 942, 12, 1499, -47, -1370, -3097
0.102768, 942, 12, 1499, -47, -1370, -3097
0.102905, 942, 12, 1499, -47, -1370, -3097
0.103042, -2639, 204, 2139, 566, 560, -2512
0.103179, -2639, 204, 2139, 566, 560, -2512
0.103316, -2639, 204, 2139, 566, 560, -2512
0.103459, -2639, 204, 2139, 566, 560, -2512
0.103594, -2639, 204, 2139, 566, 560, -2512
0.103729, -2639, 204, 2139, 566, 560, -2512
0.103863, -2639, 204, 2139, 566, 560, -2512
0.103998, -2639, 204, 2139, 566, 560, -2512
0.104132, -2187, 137, 3820, 1562, 1763, -223
0.104267, -2187, 137, 3820, 1562, 1763, -223
0.104402, -2187, 137, 3820, 1562, 1763, -223
0.104536, -2187, 137, 3820, 1562, 1763, -223
0.104671, -2187, 137, 3820, 1562, 1763, -223
0.104806, -2187, 137, 3820, 1562, 1763, -223
0.104940, -2187, 137, 3820, 1562, 1763, -223
0.105075, -392, 838, 5059, 3171, 1925, 936
0.105210, -392, 838, 5059, 3171, 1925, 936
0.105344, -392, 838, 5059, 3171, 1925, 936
0.105479, -392, 838, 5059, 3171, 1925, 936
0.105614, -392, 838, 5059, 3171, 1925, 936
0.105749, -392, 838, 5059, 3171, 1925, 936
0.105884, -392, 838, 5059, 3171, 1925, 936
0.106018, -392, 838, 5059, 3171, 1925, 936
0.106153, -2206, 1258, 4629, 4660, 1992, 1436
0.106288, -2206, 1258, 4629, 4660, 1992, 1436
0.106423, -2206, 1258, 4629, 4660, 1992, 1436
0.106558, -2206, 1258, 4629, 4660, 1992, 1436
0.106693, -2206, 1258, 4629, 4660, 1992, 1436
0.106827, -2206, 1258, 4629, 4660, 1992, 1436
0.106962, -2206, 1258, 4629, 4660, 1992, 1436
0.107097, -1799, 173, 2064, 5029, 1464, 2926
0.107232, -1799, 173, 2064, 5029, 1464, 2926
0.107366, -1799, 173, 2064, 5029, 1464, 2926
0.107501, -1799, 173, 2064, 5029, 1464, 2926
0.107636, -1799, 173, 2064, 5029, 1464, 2926
0.107771, -1799, 173, 2064, 5029, 1464, 2926
0.107905, -1799, 173, 2064, 5029, 1464, 2926
0.108040, -1799, 173, 2064, 5029, 1464, 2926
0.108175, 3007, -674, -1724, 3327, -552, 2736
0.108310, 3007, -674, -1724, 3327, -552, 2736
0.108444, 3007, -674, -1724, 3327, -552, 2736
0.108579, 3007, -674, -1724, 3327, -552, 2736
0.108714, 3007, -674, -1724, 3327, -552, 2736
0.108849, 3007, -674, -1724, 3327, -552, 2736
0.108984, 3007, -674, -1724, 3327, -552, 2736
0.109118, 3062, 92, -1585, 476, -2386, -37
0.109253, 3062, 92, -1585, 476, -2386, -37
0.109388, 3062, 92, -1585, 476, -2386, -37
0.109523, 3062, 92, -1585, 476, -2386, -37
0.109653, 3062, 92, -1585, 476, -2386, -37
0.109788, 3062, 92, -1585, 476, -2386, -37
0.109923, 3062, 92, -1585, 476, -2386, -37
0.110057, 3062, 92, -1585, 476, -2386, -37
0.110192, -2042, 854, 1879, -851, -2386, -1186
0.110327, -2042, 854, 1879, -851, -2386, -1186
0.110461, -2042, 854, 1879, -851, -2386, -1186
0.110596, -2042, 854, 1879, -851, -2386, -1186
0.110730, -2042, 854, 1879, -851, -2386, -1186
0.110865, -2042, 854, 1879, -851, -2386, -1186
0.110999, -2042, 854, 1879, -851, -2386, -1186
0.111134, -4403, 865, 2901, -224, -1271, 935
0.111268, -4403, 865, 2901, -224, -1271, 935
0.111403, -4403, 865, 2901, -224, -1271, 935
0.111538, -4403, 865, 2901, -224, -1271, 935
0.111672, -4403, 865, 2901, -224, -1271, 935
0.111807, -4403, 865, 2901, -224, -1271, 935
0.111941, -4403, 865, 2901, -224, -1271, 935
0.112076, -4403, 865, 2901, -224, -1271, 935
0.112205, -1489, 614, 1347, 389, -863, 3452
0.112340, -1489, 614, 1347, 389, -863, 3452
0.112475, -1489, 614, 1347, 389, -863, 3452
0.112610, -1489, 614, 1347, 389, -863, 3452
0.112745, -1489, 614, 1347, 389, -863, 3452
0.112879, -1489, 614, 1347, 389, -863, 3452
0.113014, -1489, 614, 1347, 389, -863, 3452
0.113149, 2756, 166, 295, -439, -1885, 3487
0.113284, 2756, 166, 295, -439, -1885, 3487
0.113418, 2756, 166, 295, -439, -1885, 3487
0.113573, 2756, 166, 295, -439, -1885, 3487
0.113714, 2756, 166, 295, -439, -1885, 3487
0.113851, 2756, 166, 295, -439, -1885, 3487
0.113986, 2756, 166, 295, -439, -1885, 3487
0.114121, 2756, 166, 295, -439, -1885, 3487
0.114256, 2631, 70, 1449, -1736, -2885, 1546
0.114391, 2631, 70, 1449, -1736, -2885, 1546
0.114525, 2631, 70, 1449, -1736, -2885, 1546
0.114660, 2631, 70, 1449, -1736, -2885, 1546
0.114795, 2631, 70, 1449, -1736, -2885, 1546
0.114929, 2631, 70, 1449, -1736, -2885, 1546
0.115064, 2631, 70, 1449, -1736, -2885, 1546
0.115199, -197, 294, 2528, -1906, -2626, 602
0.115334, -197, 294, 2528, -1906, -2626, 602
0.115469, -197, 294, 2528, -1906, -2626, 602
0.115604, -197, 294, 2528, -1906, -2626, 602
0.115739, -197, 294, 2528, -1906, -2626, 602
0.115874, -197, 294, 2528, -1906, -2626, 602
0.116009, -197, 294, 2528, -1906, -2626, 602
0.116143, -197, 294, 2528, -1906, -2626, 602
0.116278, 55, 182, 1970, -1369, -1789, 1035
0.116413, 55, 182, 1970, -1369, -1789, 1035
0.116548, 55, 182, 1970, -1369, -1789, 1035
0.116682, 55, 182, 1970, -1369, -1789, 1035
0.116817, 55, 182, 1970, -1369, -1789, 1035
0.116952, 55, 182, 1970, -1369, -1789, 1035
0.117087, 55, 182, 1970, -1369, -1789, 1035
0.117221, 2329, 157, 1602, -1055, -1261, 738
0.117356, 2329, 157, 1602, -1055, -1261, 738
0.117491, 2329, 157, 1602, -1055, -1261, 738
0.117626, 2329, 157, 1602, -1055, -1261, 738
0.117760, 2329, 157, 1602, -1055, -1261, 738
0.117895, 2329, 157, 1602, -1055, -1261, 738
0.118030, 2329, 157, 1602, -1055, -1261, 738
0.118165, 2329, 157, 1602, -1055, -1261, 738
0.118299, 2639, 406, 2010, -1036, -839, -627
0.118434, 2639, 406, 2010, -1036, -839, -627
0.118569, 2639, 406, 2010, -1036, -839, -627
0.118704, 2639, 406, 2010, -1036, -839, -627
0.118838, 2639, 406, 2010, -1036, -839, -627
0.118973, 2639, 406, 2010, -1036, -839, -627
0.119108, 2639, 406, 2010, -1036, -839, -627
0.119243, 1984, 301, 2685, -834, -206, -1963
0.119377, 1984, 301, 2685, -834, -206, -1963
0.119513, 1984, 301, 2685, -834, -206, -1963
0.119648, 1984, 301, 2685, -834, -206, -1963
0.119782, 1984, 301, 2685, -834, -206, -1963
0.119917, 1984, 301, 2685, -834, -206, -1963
0.120052, 1984, 301, 2685, -834, -206, -1963
0.120186, 1984, 301, 2685, -834, -206, -1963
0.120321, 1533, 177, 2696, -166, 461, -3084
0.120456, 1533, 177, 2696, -166, 461, -3084
0.120591, 1533, 177, 2696, -166, 461, -3084
0.120725, 1533, 177, 2696, -166, 461, -3084
0.120860, 1533, 177, 2696, -166, 461, -3084
0.120995, 1533, 177, 2696, -166, 461, -3084
0.121129, 1533, 177, 2696, -166, 461, -3084
0.121264, -176, 268, 2256, 516, 1126, -3767
0.121399, -176, 268, 2256, 516, 1126, -3767
0.121534, -176, 268, 2256, 516, 1126, -3767
0.121669, -176, 268, 2256, 516, 1126, -3767
0.121803, -176, 268, 2256, 516, 1126, -3767
0.121938, -176, 268, 2256, 516, 1126, -3767
0.122073, -176, 268, 2256, 516, 1126, -3767
0.122207, -176, 268, 2256, 516, 1126, -3767
0.122342, -3001, 330, 2358, 954, 1641, -3022
0.122477, -3001, 330, 2358, 954, 1641, -3022
0.122612, -3001, 330, 2358, 954, 1641, -3022
0.122746, -3001, 330, 2358, 954, 1641, -3022
0.122881, -3001, 330, 2358, 954, 1641, -3022
0.123016, -3001, 330, 2358, 954, 1641, -3022
0.123150, -3001, 330, 2358, 954, 1641, -3022
0.123285, -4891, 337, 2689, 1357, 1633, -477
0.123420, -4891, 337, 2689, 1357, 1633, -477
0.123555, -4891, 337, 2689, 1357, 1633, -477
0.123690, -4891, 337, 2689, 1357, 1633, -477
0.123825, -4891, 337, 2689, 1357, 1633, -477
0.123959, -4891, 337, 2689, 1357, 1633, -477
0.124094, -4891, 337, 2689, 1357, 1633, -477
0.124229, -4891, 337, 2689, 1357, 1633, -477
0.124363, -2510, 382, 2501, 1601, 717, 2354
0.124498, -2510, 382, 2501, 1601, 717, 2354
0.124633, -2510, 382, 2501, 1601, 717, 2354
0.124768, -2510, 382, 2501, 1601, 717, 2354
0.124902, -2510, 382, 2501, 1601, 717, 2354
0.125037, -2510, 382, 2501, 1601, 717, 2354
0.125172, -2510, 382, 2501, 1601, 717, 2354
0.125306, 2095, 671, 1981, 1298, -858, 2771
0.125441, 2095, 671, 1981, 1298, -858, 2771
0.125576, 2095, 671, 1981, 1298, -858, 2771
0.125711, 2095, 671, 1981, 1298, -858, 2771
0.125845, 2095, 671, 1981, 1298, -858, 2771
0.125989, 2095, 671, 1981, 1298, -858, 2771
0.126130, 2095, 671, 1981, 1298, -858, 2771
0.126267, 2095, 671, 1981, 1298, -858, 2771
0.126402, 2997, 751, 1967, 589, -1905, 844
0.126537, 2997, 751, 1967, 589, -1905, 844
0.126672, 2997, 751, 1967, 589, -1905, 844
0.126807, 2997, 751, 1967, 589, -1905, 844
0.126941, 2997, 751, 1967, 589, -1905, 844
0.127076, 2997, 751, 1967, 589, -1905, 844
0.127210, 2997, 751, 1967, 589, -1905, 844
0.127345, 1311, 314, 1806, 67, -1980, -881
0.127480, 1311, 314, 1806, 67, -1980, -881
0.127614, 1311, 314, 1806, 67, -1980, -881
0.127748, 1311, 314, 1806, 67, -1980, -881
0.127882, 1311, 314, 1806, 67, -1980, -881
0.128016, 1311, 314, 1806, 67, -1980, -881
0.128150, 1311, 314, 1806, 67, -1980, -881
0.128284, 1311, 314, 1806, 67, -1980, -881
0.128418, -918, -14, 953, -121, -1586, -1298
0.128553, -918, -14, 953, -121, -1586, -1298
0.128687, -918, -14, 953, -121, -1586, -1298
0.128821, -918, -14, 953, -121, -1586, -1298
0.128955, -918, -14, 953, -121, -1586, -1298
0.129089, -918, -14, 953, -121, -1586, -1298
0.129223, -918, -14, 953, -121, -1586, -1298
0.129357, -3406, -13, -30, -530, -1270, -11
0.129491, -3406, -13, -30, -530, -1270, -11
0.129625, -3406, -13, -30, -530, -1270, -11
0.129759, -3406, -13, -30, -530, -1270, -11
0.129893, -3406, -13, -30, -530, -1270, -11
0.130027, -3406, -13, -30, -530, -1270, -11
0.130161, -3406, -13, -30, -530, -1270, -11
0.130295, -3406, -13, -30, -530, -1270, -11
0.130429, -884, 4, 1127, -1225, -1658, 2100
0.130564, -884, 4, 1127, -1225, -1658, 2100
0.130698, -884, 4, 1127, -1225, -1658, 2100
0.130832, -884, 4, 1127, -1225, -1658, 2100
0.130966, -884, 4, 1127, -1225, -1658, 2100
0.131100, -884, 4, 1127, -1225, -1658, 2100
0.131234, -884, 4, 1127, -1225, -1658, 2100
0.131368, -884, 4, 1127, -1225, -1658, 2100
0.131503, 6048, 498, 3865, -984, -2347, 1411
0.131638, 6048, 498, 3865, -984, -2347, 1411
0.131773, 6048, 498, 3865, -984, -2347, 1411
0.131907, 6048, 498, 3865, -984, -2347, 1411
0.132042, 6048, 498, 3865, -984, -2347, 1411
0.132177, 6048, 498, 3865, -984, -2347, 1411
0.132311, 6048, 498, 3865, -984, -2347, 1411
0.132446, 7752, 1151, 3425, 31, -1793, -3051
0.132581, 7752, 1151, 3425, 31, -1793, -3051
0.132715, 7752, 1151, 3425, 31, -1793, -3051
0.132850, 7752, 1151, 3425, 31, -1793, -3051
0.132985, 7752, 1151, 3425, 31, -1793, -3051
0.133119, 7752, 1151, 3425, 31, -1793, -3051
0.133254, 7752, 1151, 3425, 31, -1793, -3051
0.133389, 7752, 1151, 3425, 31, -1793, -3051
0.133523, 3205, 725, 1500, 338, 122, -7081
0.133658, 3205, 725, 1500, 338, 122, -7081
0.133793, 3205, 725, 1500, 338, 122, -7081
0.133928, 3205, 725, 1500, 338, 122, -7081
0.134062, 3205, 725, 1500, 338, 122, -7081
0.134197, 3205, 725, 1500, 338, 122, -7081
0.134332, 3205, 725, 1500, 338, 122, -7081
0.134466, -125, 34, 1373, 465, 1815, -7983
0.134601, -125, 34, 1373, 465, 1815, -7983
0.134736, -125, 34, 1373, 465, 1815, -7983
0.134871, -125, 34, 1373, 465, 1815, -7983
0.135005, -125, 34, 1373, 465, 1815, -7983
0.135140, -125, 34, 1373, 465, 1815, -7983
0.135275, -125, 34, 1373, 465, 1815, -7983
0.135409, -125, 34, 1373, 465, 1815, -7983
0.135544, -396, 103, 1748, 1106, 2652, -7393
0.135679, -396, 103, 1748, 1106, 2652, -7393
0.135813, -396, 103, 1748, 1106, 2652, -7393
0.135947, -396, 103, 1748, 1106, 2652, -7393
0.136081, -396, 103, 1748, 1106, 2652, -7393
0.136215, -396, 103, 1748, 1106, 2652, -7393
0.136350, -396, 103, 1748, 1106, 2652, -7393
0.136484, -871, 250, 1922, 1612, 3183, -6758
0.136619, -871, 250, 1922, 1612, 3183, -6758
0.136753, -871, 250, 1922, 1612, 3183, -6758
0.136888, -871, 250, 1922, 1612, 3183, -6758
0.137022, -871, 250, 1922, 1612, 3183, -6758
0.137156, -871, 250, 1922, 1612, 3183, -6758
0.137291, -871, 250, 1922, 1612, 3183, -6758
0.137425, -871, 250, 1922, 1612, 3183, -6758
0.137560, -2629, 64, 1818, 1694, 3545, -5559
0.137694, -2629, 64, 1818, 1694, 3545, -5559
0.137829, -2629, 64, 1818, 1694, 3545, -5559
0.137963, -2629, 64, 1818, 1694, 3545, -5559
0.138098, -2629, 64, 1818, 1694, 3545, -5559
0.138232, -2629, 64, 1818, 1694, 3545, -5559
0.138367, -2629, 64, 1818, 1694, 3545, -5559
0.138512, -5453, -29, 1555, 1437, 3395, -3170
0.138647, -5453, -29, 1555, 1437, 3395, -3170
0.138782, -5453, -29, 1555, 1437, 3395, -3170
0.138917, -5453, -29, 1555, 1437, 3395, -3170
0.139051, -5453, -29, 1555, 1437, 3395, -3170
0.139185, -5453, -29, 1555, 1437, 3395, -3170
0.139320, -5453, -29, 1555, 1437, 3395, -3170
0.139454, -5453, -29, 1555, 1437, 3395, -3170
0.139589, -10081, 633, 1928, 1025, 2515, 1192
0.139724, -10081, 633, 1928, 1025, 2515, 1192
0.139858, -10081, 633, 1928, 1025, 2515, 1192
0.139993, -10081, 633, 1928, 1025, 2515, 1192
0.140128, -10081, 633, 1928, 1025, 2515, 1192
0.140262, -10081, 633, 1928, 1025, 2515, 1192
0.140397, -10081, 633, 1928, 1025, 2515, 1192
0.140532, -10558, 568, 3296, 919, 525, 7926
0.140666, -10558, 568, 3296, 919, 525, 7926
0.140801, -10558, 568, 3296, 919, 525, 7926
0.140936, -10558, 568, 3296, 919, 525, 7926
0.141070, -10558, 568, 3296, 919, 525, 7926
0.141205, -10558, 568, 3296, 919, 525, 7926
0.141340, -10558, 568, 3296, 919, 525, 7926
0.141474, -10558, 568, 3296, 919, 525, 7926
0.141609, -1256, -696, 2395, 620, -3181, 12657
0.141744, -1256, -696, 2395, 620, -3181, 12657
0.141878, -1256, -696, 2395, 620, -3181, 12657
0.142013, -1256, -696, 2395, 620, -3181, 12657
0.142148, -1256, -696, 2395, 620, -3181, 12657
0.142282, -1256, -696, 2395, 620, -3181, 12657
0.142417, -1256, -696, 2395, 620, -3181, 12657
0.142552, 6405, -23, 429, -938, -7130, 10739
0.142686, 6405, -23, 429, -938, -7130, 10739
0.142821, 6405, -23, 429, -938, -7130, 10739
0.142956, 6405, -23, 429, -938, -7130, 10739
0.143090, 6405, -23, 429, -938, -7130, 10739
0.143225, 6405, -23, 429, -938, -7130, 10739
0.143360, 6405, -23, 429, -938, -7130, 10739
0.143495, 6405, -23, 429, -938, -7130, 10739
0.143629, 3990, 1408, 2040, -2499, -8679, 6180
0.143764, 3990, 1408, 2040, -2499, -8679, 6180
0.143899, 3990, 1408, 2040, -2499, -8679, 6180
0.144034, 3990, 1408, 2040, -2499, -8679, 6180
0.144168, 3990, 1408, 2040, -2499, -8679, 6180
0.144303, 3990, 1408, 2040, -2499, -8679, 6180
0.144438, 3990, 1408, 2040, -2499, -8679, 6180
0.144572, -455, 1235, 2678, -2490, -7774, 4451
0.144707, -455, 1235, 2678, -2490, -7774, 4451
0.144842, -455, 1235, 2678, -2490, -7774, 4451
0.144977, -455, 1235, 2678, -2490, -7774, 4451
0.145111, -455, 1235, 2678, -2490, -7774, 4451
0.145246, -455, 1235, 2678, -2490, -7774, 4451
0.145380, -455, 1235, 2678, -2490, -7774, 4451
0.145515, -455, 1235, 2678, -2490, -7774, 4451
0.145650, -320, 638, 1452, -1946, -6261, 4944
0.145785, -320, 638, 1452, -1946, -6261, 4944
0.145919, -320, 638, 1452, -1946, -6261, 4944
0.146054, -320, 638, 1452, -1946, -6261, 4944
0.146188, -320, 638, 1452, -1946, -6261, 4944
0.146323, -320, 638, 1452, -1946, -6261, 4944
0.146458, -320, 638, 1452, -1946, -6261, 4944
0.146592, 3754, -13, 2872, -1329, -5437, 4627
0.146727, 3754, -13, 2872, -1329, -5437, 4627
0.146862, 3754, -13, 2872, -1329, -5437, 4627
0.146997, 3754, -13, 2872, -1329, -5437, 4627
0.147131, 3754, -13, 2872, -1329, -5437, 4627
0.147266, 3754, -13, 2872, -1329, -5437, 4627
0.147401, 3754, -13, 2872, -1329, -5437, 4627
0.147536, 3754, -13, 2872, -1329, -5437, 4627
0.147670, 6170, -53, 3958, -91, -4612, 1953
0.147805, 6170, -53, 3958, -91, -4612, 1953
0.147940, 6170, -53, 3958, -91, -4612, 1953
0.148075, 6170, -53, 3958, -91, -4612, 1953
0.148209, 6170, -53, 3958, -91, -4612, 1953
0.148344, 6170, -53, 3958, -91, -4612, 1953
0.148479, 6170, -53, 3958, -91, -4612, 1953
0.148613, 3595, 446, 2387, 816, -2633, -1263
0.148748, 3595, 446, 2387, 816, -2633, -1263
0.148883, 3595, 446, 2387, 816, -2633, -1263
0.149018, 3595, 446, 2387, 816, -2633, -1263
0.149152, 3595, 446, 2387, 816, -2633, -1263
0.149287, 3595, 446, 2387, 816, -2633, -1263
0.149421, 3595, 446, 2387, 816, -2633, -1263
0.149557, 3595, 446, 2387, 816, -2633, -1263
0.149692, -26, 331, 1525, 1037, -226, -2440
0.149826, -26, 331, 1525, 1037, -226, -2440
0.149961, -26, 331, 1525, 1037, -226, -2440
0.150096, -26, 331, 1525, 1037, -226, -2440
0.150230, -26, 331, 1525, 1037, -226, -2440
0.150365, -26, 331, 1525, 1037, -226, -2440
0.150500, -26, 331, 1525, 1037, -226, -2440
0.150639, -26, 331, 1525, 1037, -226, -2440
0.150774, -1502, 3, 1563, 1325, 1392, -1681
0.150909, -1502, 3, 1563, 1325, 1392, -1681
0.151043, -1502, 3, 1563, 1325, 1392, -1681
0.151178, -1502, 3, 1563, 1325, 1392, -1681
0.151313, -1502, 3, 1563, 1325, 1392, -1681
0.151447, -1502, 3, 1563, 1325, 1392, -1681
0.151587, -1502, 3, 1563, 1325, 1392, -1681
0.151722, -1483, 219, 934, 1223, 2032, -353
0.151857, -1483, 219, 934, 1223, 2032, -353
0.151991, -1483, 219, 934, 1223, 2032, -353
0.152126, -1483, 219, 934, 1223, 2032, -353
0.152261, -1483, 219, 934, 1223, 2032, -353
0.152396, -1483, 219, 934, 1223, 2032, -353
0.152530, -1483, 219, 934, 1223, 2032, -353
0.152665, -1483, 219, 934, 1223, 2032, -353
0.152800, -1040, 626, 1403, 566, 1866, 775
0.152934, -1040, 626, 1403, 566, 1866, 775
0.153069, -1040, 626, 1403, 566, 1866, 775
0.153204, -1040, 626, 1403, 566, 1866, 775
0.153338, -1040, 626, 1403, 566, 1866, 775
0.153473, -1040, 626, 1403, 566, 1866, 775
0.153608, -1040, 626, 1403, 566, 1866, 775
0.153742, 230, 680, 2616, 341, 1135, 1282
0.153877, 230, 680, 2616, 341, 1135, 1282
0.154012, 230, 680, 2616, 341, 1135, 1282
0.154146, 230, 680, 2616, 341, 1135, 1282
0.154281, 230, 680, 2616, 341, 1135, 1282
0.154416, 230, 680, 2616, 341, 1135, 1282
0.154550, 230, 680, 2616, 341, 1135, 1282
0.154685, 230, 680, 2616, 341, 1135, 1282
0.154820, 2834, 657, 2598, 494, 242, 501
0.154954, 2834, 657, 2598, 494, 242, 501
0.155089, 2834, 657, 2598, 494, 242, 501
0.155224, 2834, 657, 2598, 494, 242, 501
0.155358, 2834, 657, 2598, 494, 242, 501
0.155493, 2834, 657, 2598, 494, 242, 501
0.155628, 2834, 657, 2598, 494, 242, 501
0.155763, 4562, 709, 2155, 500, -459, -1894
0.155898, 4562, 709, 2155, 500, -459, -1894
0.156032, 4562, 709, 2155, 500, -459, -1894
0.156167, 4562, 709, 2155, 500, -459, -1894
0.156301, 4562, 709, 2155, 500, -459, -1894
0.156436, 4562, 709, 2155, 500, -459, -1894
0.156571, 4562, 709, 2155, 500, -459, -1894
0.156705, 4562, 709, 2155, 500, -459, -1894
0.156840, 3517, 527, 1838, 547, -599, -4775
0.156975, 3517, 527, 1838, 547, -599, -4775
0.157109, 3517, 527, 1838, 547, -599, -4775
0.157244, 3517, 527, 1838, 547, -599, -4775
0.157379, 3517, 527, 1838, 547, -599, -4775
0.157513, 3517, 527, 1838, 547, -599, -4775
0.157648, 3517, 527, 1838, 547, -599, -4775
0.157782, 1238, 241, 1532, 781, 8, -6479
0.157917, 1238, 241, 1532, 781, 8, -6479
0.158051, 1238, 241, 1532, 781, 8, -6479
0.158186, 1238, 241, 1532, 781, 8, -6479
0.158321, 1238, 241, 1532, 781, 8, -6479
0.158455, 1238, 241, 1532, 781, 8, -6479
0.158590, 1238, 241, 1532, 781, 8, -6479
0.158724, 1238, 241, 1532, 781, 8, -6479
0.158859, 25, 195, 1688, 1195, 996, -6690
0.158993, 25, 195, 1688, 1195, 996, -6690
0.159128, 25, 195, 1688, 1195, 996, -6690
0.159262, 25, 195, 1688, 1195, 996, -6690
0.159397, 25, 195, 1688, 1195, 996, -6690
0.159532, 25, 195, 1688, 1195, 996, -6690
0.159667, 25, 195, 1688, 1195, 996, -6690
0.159801, 15, 269, 1900, 1671, 1898, -6303
0.159936, 15, 269, 1900, 1671, 1898, -6303
0.160071, 15, 269, 1900, 1671, 1898, -6303
0.160205, 15, 269, 1900, 1671, 1898, -6303
0.160340, 15, 269, 1900, 1671, 1898, -6303
0.160474, 15, 269, 1900, 1671, 1898, -6303
0.160609, 15, 269, 1900, 1671, 1898, -6303
0.160743, 15, 269, 1900, 1671, 1898, -6303
0.160878, 140, 285, 1924, 1943, 2551, -5963
0.161012, 140, 285, 1924, 1943, 2551, -5963
0.161147, 140, 285, 1924, 1943, 2551, -5963
0.161281, 140, 285, 1924, 1943, 2551, -5963
0.161416, 140, 285, 1924, 1943, 2551, -5963
0.161551, 140, 285, 1924, 1943, 2551, -5963
0.161685, 140, 285, 1924, 1943, 2551, -5963
0.161820, 95, 306, 1967, 1986, 2878, -5730
0.161955, 95, 306, 1967, 1986, 2878, -5730
0.162089, 95, 306, 1967, 1986, 2878, -5730
0.162224, 95, 306, 1967, 1986, 2878, -5730
0.162358, 95, 306, 1967, 1986, 2878, -5730
0.162493, 95, 306, 1967, 1986, 2878, -5730
0.162627, 95, 306, 1967, 1986, 2878, -5730
0.162762, 95, 306, 1967, 1986, 2878, -5730
0.162897, 48, 343, 1987, 1967, 2868, -5575
0.163031, 48, 343, 1987, 1967, 2868, -5575
0.163166, 48, 343, 1987, 1967, 2868, -5575
0.163300, 48, 343, 1987, 1967, 2868, -5575
0.163459, 48, 343, 1987, 1967, 2868, -5575
0.163594, 48, 343, 1987, 1967, 2868, -5575
0.163729, 48, 343, 1987, 1967, 2868, -5575
0.163863, -6, 333, 1962, 1959, 2641, -5486
0.163998, -6, 333, 1962, 1959, 2641, -5486
0.164133, -6, 333, 1962, 1959, 2641, -5486
0.164268, -6, 333, 1962, 1959, 2641, -5486
0.164402, -6, 333, 1962, 1959, 2641, -5486
0.164537, -6, 333, 1962, 1959, 2641, -5486
0.164672, -6, 333, 1962, 1959, 2641, -5486
0.164807, -6, 333, 1962, 1959, 2641, -5486
0.164941, -356, 176, 1945, 1938, 2318, -5359
0.165076, -356, 176, 1945, 1938, 2318, -5359
0.165211, -356, 176, 1945, 1938, 2318, -5359
0.165345, -356, 176, 1945, 1938, 2318, -5359
0.165480, -356, 176, 1945, 1938, 2318, -5359
0.165615, -356, 176, 1945, 1938, 2318, -5359
0.165750, -356, 176, 1945, 1938, 2318, -5359
0.165884, -1538, -187, 1928, 1920, 1988, -4886
0.166019, -1538, -187, 1928, 1920, 1988, -4886
0.166154, -1538, -187, 1928, 1920, 1988, -4886
0.166288, -1538, -187, 1928, 1920, 1988, -4886
0.166423, -1538, -187, 1928, 1920, 1988, -4886
0.166558, -1538, -187, 1928, 1920, 1988, -4886
0.166693, -1538, -187, 1928, 1920, 1988, -4886
0.166827, -1538, -187, 1928, 1920, 1988, -4886
0.166962, -4743, -510, 1987, 1930, 1729, -3348
0.167097, -4743, -510, 1987, 1930, 1729, -3348
0.167232, -4743, -510, 1987, 1930, 1729, -3348
0.167366, -4743, -510, 1987, 1930, 1729, -3348
0.167501, -4743, -510, 1987, 1930, 1729, -3348
0.167636, -4743, -510, 1987, 1930, 1729, -3348
0.167771, -4743, -510, 1987, 1930, 1729, -3348
0.167905, -11802, 651, 1643, 1973, 1491, 982
0.168040, -11802, 651, 1643, 1973, 1491, 982
0.168175, -11802, 651, 1643, 1973, 1491, 982
0.168310, -11802, 651, 1643, 1973, 1491, 982
0.168444, -11802, 651, 1643, 1973, 1491, 982
0.168579, -11802, 651, 1643, 1973, 1491, 982
0.168714, -11802, 651, 1643, 1973, 1491, 982
0.168848, -11802, 651, 1643, 1973, 1491, 982
0.168983, -15304, 3070, -616, 930, 332, 9779
0.169118, -15304, 3070, -616, 930, 332, 9779
0.169253, -15304, 3070, -616, 930, 332, 9779
0.169387, -15304, 3070, -616, 930, 332, 9779
0.169522, -15304, 3070, -616, 930, 332, 9779
0.169657, -15304, 3070, -616, 930, 332, 9779
0.169792, -15304, 3070, -616, 930, 332, 9779
0.169926, -463, 523, 1151, -1554, -3637, 16450
0.170062, -463, 523, 1151, -1554, -3637, 16450
0.170196, -463, 523, 1151, -1554, -3637, 16450
0.170331, -463, 523, 1151, -1554, -3637, 16450
0.170466, -463, 523, 1151, -1554, -3637, 16450
0.170600, -463, 523, 1151, -1554, -3637, 16450
0.170735, -463, 523, 1151, -1554, -3637, 16450
0.170870, -463, 523, 1151, -1554, -3637, 16450
0.171004, 13919, -2134, 5354, -2572, -8168, 11289
0.171139, 13919, -2134, 5354, -2572, -8168, 11289
0.171274, 13919, -2134, 5354, -2572, -8168, 11289
0.171409, 13919, -2134, 5354, -2572, -8168, 11289
0.171544, 13919, -2134, 5354, -2572, -8168, 11289
0.171678, 13919, -2134, 5354, -2572, -8168, 11289
0.171813, 13919, -2134, 5354, -2572, -8168, 11289
0.171948, 7613, 1367, 3166, -2257, -8381, 1760
0.172083, 7613, 1367, 3166, -2257, -8381, 1760
0.172218, 7613, 1367, 3166, -2257, -8381, 1760
0.172353, 7613, 1367, 3166, -2257, -8381, 1760
0.172487, 7613, 1367, 3166, -2257, -8381, 1760
0.172622, 7613, 1367, 3166, -2257, -8381, 1760
0.172757, 7613, 1367, 3166, -2257, -8381, 1760
0.172891, 7613, 1367, 3166, -2257, -8381, 1760
0.173026, 2075, 1462, 1784, -2311, -5671, -1722
0.173161, 2075, 1462, 1784, -2311, -5671, -1722
0.173296, 2075, 1462, 1784, -2311, -5671, -1722
0.173430, 2075, 1462, 1784, -2311, -5671, -1722
0.173565, 2075, 1462, 1784, -2311, -5671, -1722
0.173700, 2075, 1462, 1784, -2311, -5671, -1722
0.173834, 2075, 1462, 1784, -2311, -5671, -1722
0.173969, 1808, -894, 2595, -1009, -3109, -2810
0.174104, 1808, -894, 2595, -1009, -3109, -2810
0.174239, 1808, -894, 2595, -1009, -3109, -2810
0.174373, 1808, -894, 2595, -1009, -3109, -2810
0.174508, 1808, -894, 2595, -1009, -3109, -2810
0.174643, 1808, -894, 2595, -1009, -3109, -2810
0.174777, 1808, -894, 2595, -1009, -3109, -2810
0.174912, 1808, -894, 2595, -1009, -3109, -2810
0.175047, -4292, -329, 2399, 872, -412, -2626
0.175182, -4292, -329, 2399, 872, -412, -2626
0.175321, -4292, -329, 2399, 872, -412, -2626
0.175456, -4292, -329, 2399, 872, -412, -2626
0.175591, -4292, -329, 2399, 872, -412, -2626
0.175726, -4292, -329, 2399, 872, -412, -2626
0.175861, -4292, -329, 2399, 872, -412, -2626
0.175995, -13173, 2317, 2498, 1951, 1891, 2792
0.176130, -13173, 2317, 2498, 1951, 1891, 2792
0.176265, -13173, 2317, 2498, 1951, 1891, 2792
0.176400, -13173, 2317, 2498, 1951, 1891, 2792
0.176534, -13173, 2317, 2498, 1951, 1891, 2792
0.176669, -13173, 2317, 2498, 1951, 1891, 2792
0.176804, -13173, 2317, 2498, 1951, 1891, 2792
0.176938, -13173, 2317, 2498, 1951, 1891, 2792
0.177073, -12307, 2615, 457, 1559, 1871, 12217
0.177208, -12307, 2615, 457, 1559, 1871, 12217
0.177343, -12307, 2615, 457, 1559, 1871, 12217
0.177477, -12307, 2615, 457, 1559, 1871, 12217
0.177612, -12307, 2615, 457, 1559, 1871, 12217
0.177747, -12307, 2615, 457, 1559, 1871, 12217
0.177881, -12307, 2615, 457, 1559, 1871, 12217
0.178016, 2728, -1701, 1486, -635, -1377, 16976
0.178151, 2728, -1701, 1486, -635, -1377, 16976
0.178286, 2728, -1701, 1486, -635, -1377, 16976
0.178420, 2728, -1701, 1486, -635, -1377, 16976
0.178555, 2728, -1701, 1486, -635, -1377, 16976
0.178690, 2728, -1701, 1486, -635, -1377, 16976
0.178824, 2728, -1701, 1486, -635, -1377, 16976
0.178959, 2728, -1701, 1486, -635, -1377, 16976
0.179094, 11739, -1981, 4279, -1936, -5239, 12204
0.179229, 11739, -1981, 4279, -1936, -5239, 12204
0.179364, 11739, -1981, 4279, -1936, -5239, 12204
0.179499, 11739, -1981, 4279, -1936, -5239, 12204
0.179634, 11739, -1981, 4279, -1936, -5239, 12204
0.179768, 11739, -1981, 4279, -1936, -5239, 12204
0.179903, 11739, -1981, 4279, -1936, -5239, 12204
0.180038, 7558, 1218, 1937, -2375, -6392, 4876
0.180172, 7558, 1218, 1937, -2375, -6392, 4876
0.180307, 7558, 1218, 1937, -2375, -6392, 4876
0.180442, 7558, 1218, 1937, -2375, -6392, 4876
0.180577, 7558, 1218, 1937, -2375, -6392, 4876
0.180711, 7558, 1218, 1937, -2375, -6392, 4876
0.180846, 7558, 1218, 1937, -2375, -6392, 4876
0.180981, 7558, 1218, 1937, -2375, -6392, 4876
0.181115, 2167, 1251, 248, -3105, -5199, 850
0.181250, 2167, 1251, 248, -3105, -5199, 850
0.181385, 2167, 1251, 248, -3105, -5199, 850
0.181520, 2167, 1251, 248, -3105, -5199, 850
0.181655, 2167, 1251, 248, -3105, -5199, 850
0.181789, 2167, 1251, 248, -3105, -5199, 850
0.181924, 2167, 1251, 248, -3105, -5199, 850
0.182059, 2167, 1251, 248, -3105, -5199, 850
0.182193, -613, 177, 582, -2951, -3561, -117
0.182328, -613, 177, 582, -2951, -3561, -117
0.182463, -613, 177, 582, -2951, -3561, -117
0.182598, -613, 177, 582, -2951, -3561, -117
0.182733, -613, 177, 582, -2951, -3561, -117
0.182867, -613, 177, 582, -2951, -3561, -117
0.183002, -613, 177, 582, -2951, -3561, -117
0.183137, -2275, 324, 810, -2450, -2323, 929
0.183272, -2275, 324, 810, -2450, -2323, 929
0.183406, -2275, 324, 810, -2450, -2323, 929
0.183542, -2275, 324, 810, -2450, -2323, 929
0.183676, -2275, 324, 810, -2450, -2323, 929
0.183811, -2275, 324, 810, -2450, -2323, 929
0.183946, -2275, 324, 810, -2450, -2323, 929
0.184080, -2275, 324, 810, -2450, -2323, 929
0.184215, -2730, 455, 2547, -2127, -1766, 3079
0.184350, -2730, 455, 2547, -2127, -1766, 3079
0.184485, -2730, 455, 2547, -2127, -1766, 3079
0.184620, -2730, 455, 2547, -2127, -1766, 3079
0.184754, -2730, 455, 2547, -2127, -1766, 3079
0.184889, -2730, 455, 2547, -2127, -1766, 3079
0.185024, -2730, 455, 2547, -2127, -1766, 3079
0.185158, -1763, 295, 3842, -1315, -1737, 5007
0.185293, -1763, 295, 3842, -1315, -1737, 5007
0.185428, -1763, 295, 3842, -1315, -1737, 5007
0.185563, -1763, 295, 3842, -1315, -1737, 5007
0.185697, -1763, 295, 3842, -1315, -1737, 5007
0.185832, -1763, 295, 3842, -1315, -1737, 5007
0.185967, -1763, 295, 3842, -1315, -1737, 5007
0.186102, -1763, 295, 3842, -1315, -1737, 5007
0.186236, -446, 541, 3338, -491, -1720, 5926
0.186371, -446, 541, 3338, -491, -1720, 5926
0.186506, -446, 541, 3338, -491, -1720, 5926
0.186641, -446, 541, 3338, -491, -1720, 5926
0.186775, -446, 541, 3338, -491, -1720, 5926
0.186910, -446, 541, 3338, -491, -1720, 5926
0.187045, -446, 541, 3338, -491, -1720, 5926
0.187183, 2099, 403, 2410, -484, -1872, 5873
0.187320, 2099, 403, 2410, -484, -1872, 5873
0.187455, 2099, 403, 2410, -484, -1872, 5873
0.187590, 2099, 403, 2410, -484, -1872, 5873
0.187724, 2099, 403, 2410, -484, -1872, 5873
0.187859, 2099, 403, 2410, -484, -1872, 5873
0.187994, 2099, 403, 2410, -484, -1872, 5873
0.188129, 2099, 403, 2410, -484, -1872, 5873
0.188263, 5749, 178, 1858, -991, -2400, 3846
0.188398, 5749, 178, 1858, -991, -2400, 3846
0.188533, 5749, 178, 1858, -991, -2400, 3846
0.188668, 5749, 178, 1858, -991, -2400, 3846
0.188802, 5749, 178, 1858, -991, -2400, 3846
0.188937, 5749, 178, 1858, -991, -2400, 3846
0.189072, 5749, 178, 1858, -991, -2400, 3846
0.189206, 5365, 620, 1773, -1330, -2329, 43
0.189341, 5365, 620, 1773, -1330, -2329, 43
0.189476, 5365, 620, 1773, -1330, -2329, 43
0.189611, 5365, 620, 1773, -1330, -2329, 43
0.189746, 5365, 620, 1773, -1330, -2329, 43
0.189880, 5365, 620, 1773, -1330, -2329, 43
0.190015, 5365, 620, 1773, -1330, -2329, 43
0.190150, 5365, 620, 1773, -1330, -2329, 43
0.190284, 982, 698, 2009, -1142, -1021, -2418
0.190419, 982, 698, 2009, -1142, -1021, -2418
0.190554, 982, 698, 2009, -1142, -1021, -2418
0.190689, 982, 698, 2009, -1142, -1021, -2418
0.190823, 982, 698, 2009, -1142, -1021, -2418
0.190958, 982, 698, 2009, -1142, -1021, -2418
0.191093, 982, 698, 2009, -1142, -1021, -2418
0.191228, -1787, 482, 2337, -355, 442, -2138
0.191362, -1787, 482, 2337, -355, 442, -2138
0.191498, -1787, 482, 2337, -355, 442, -2138
0.191632, -1787, 482, 2337, -355, 442, -2138
0.191767, -1787, 482, 2337, -355, 442, -2138
0.191902, -1787, 482, 2337, -355, 442, -2138
0.192036, -1787, 482, 2337, -355, 442, -2138
0.192171, -1787, 482, 2337, -355, 442, -2138
0.192306, -2947, 676, 3016, 821, 1069, -517
0.192441, -2947, 676, 3016, 821, 1069, -517
0.192575, -2947, 676, 3016, 821, 1069, -517
0.192710, -2947, 676, 3016, 821, 1069, -517
0.192845, -2947, 676, 3016, 821, 1069, -517
0.192979, -2947, 676, 3016, 821, 1069, -517
0.193114, -2947, 676, 3016, 821, 1069, -517
0.193249, -3415, 930, 2812, 1805, 903, 1670
0.193384, -3415, 930, 2812, 1805, 903, 1670
0.193518, -3415, 930, 2812, 1805, 903, 1670
0.193653, -3415, 930, 2812, 1805, 903, 1670
0.193788, -3415, 930, 2812, 1805, 903, 1670
0.193922, -3415, 930, 2812, 1805, 903, 1670
0.194057, -3415, 930, 2812, 1805, 903, 1670
0.194192, -3415, 930, 2812, 1805, 903, 1670
0.194327, -455, 480, 866, 1473, -80, 3442
0.194461, -455, 480, 866, 1473, -80, 3442
0.194596, -455, 480, 866, 1473, -80, 3442
0.194731, -455, 480, 866, 1473, -80, 3442
0.194866, -455, 480, 866, 1473, -80, 3442
0.195000, -455, 480, 866, 1473, -80, 3442
0.195135, -455, 480, 866, 1473, -80, 3442
0.195270, 4016, -183, 189, -283, -1624, 2687
0.195405, 4016, -183, 189, -283, -1624, 2687
0.195540, 4016, -183, 189, -283, -1624, 2687
0.195674, 4016, -183, 189, -283, -1624, 2687
0.195809, 4016, -183, 189, -283, -1624, 2687
0.195944, 4016, -183, 189, -283, -1624, 2687
0.196079, 4016, -183, 189, -283, -1624, 2687
0.196213, 4016, -183, 189, -283, -1624, 2687
0.196348, 5492, 62, 2362, -1458, -2527, -523
0.196483, 5492, 62, 2362, -1458, -2527, -523
0.196618, 5492, 62, 2362, -1458, -2527, -523
0.196753, 5492, 62, 2362, -1458, -2527, -523
0.196887, 5492, 62, 2362, -1458, -2527, -523
0.197022, 5492, 62, 2362, -1458, -2527, -523
0.197157, 5492, 62, 2362, -1458, -2527, -523
0.197291, 4135, 350, 3187, -981, -1817, -3786
0.197426, 4135, 350, 3187, -981, -1817, -3786
0.197561, 4135, 350, 3187, -981, -1817, -3786
0.197696, 4135, 350, 3187, -981, -1817, -3786
0.197831, 4135, 350, 3187, -981, -1817, -3786
0.197965, 4135, 350, 3187, -981, -1817, -3786
0.198100, 4135, 350, 3187, -981, -1817, -3786
0.198235, 4135, 350, 3187, -981, -1817, -3786
0.198369, 2071, 113, 1668, -168, -135, -5787
0.198504, 2071, 113, 1668, -168, -135, -5787
0.198639, 2071, 113, 1668, -168, -135, -5787
0.198774, 2071, 113, 1668, -168, -135, -5787
0.198908, 2071, 113, 1668, -168, -135, -5787
0.199043, 2071, 113, 1668, -168, -135, -5787
0.199178, 2071, 113, 1668, -168, -135, -5787
0.199312, 510, -62, 1163, 293, 1165, -6522
0.199447, 510, -62, 1163, 293, 1165, -6522
0.199590, 510, -62, 1163, 293, 1165, -6522
0.199725, 510, -62, 1163, 293, 1165, -6522
0.199860, 510, -62, 1163, 293, 1165, -6522
0.199995, 510, -62, 1163, 293, 1165, -6522
0.200129, 510, -62, 1163, 293, 1165, -6522
0.200264, 510, -62, 1163, 293, 1165, -6522
0.200399, -721, -26, 1689, 752, 1893, -6224
0.200534, -721, -26, 1689, 752, 1893, -6224
0.200668, -721, -26, 1689, 752, 1893, -6224
0.200803, -721, -26, 1689, 752, 1893, -6224
0.200938, -721, -26, 1689, 752, 1893, -6224
0.201072, -721, -26, 1689, 752, 1893, -6224
0.201207, -721, -26, 1689, 752, 1893, -6224
0.201342, -2245, 51, 1864, 1109, 2504, -5058
0.201477, -2245, 51, 1864, 1109, 2504, -5058
0.201611, -2245, 51, 1864, 1109, 2504, -5058
0.201746, -2245, 51, 1864, 1109, 2504, -5058
0.201881, -2245, 51, 1864, 1109, 2504, -5058
0.202015, -2245, 51, 1864, 1109, 2504, -5058
0.202150, -2245, 51, 1864, 1109, 2504, -5058
0.202285, -2245, 51, 1864, 1109, 2504, -5058
0.202419, -4333, 121, 1735, 1162, 2833, -2899
0.202554, -4333, 121, 1735, 1162, 2833, -2899
0.202689, -4333, 121, 1735, 1162, 2833, -2899
0.202823, -4333, 121, 1735, 1162, 2833, -2899
0.202958, -4333, 121, 1735, 1162, 2833, -2899
0.203093, -4333, 121, 1735, 1162, 2833, -2899
0.203227, -4333, 121, 1735, 1162, 2833, -2899
0.203362, -5397, 258, 2219, 1045, 2459, 375
0.203497, -5397, 258, 2219, 1045, 2459, 375
0.203632, -5397, 258, 2219, 1045, 2459, 375
0.203767, -5397, 258, 2219, 1045, 2459, 375
0.203901, -5397, 258, 2219, 1045, 2459, 375
0.204036, -5397, 258, 2219, 1045, 2459, 375
0.204171, -5397, 258, 2219, 1045, 2459, 375
0.204305, -5397, 258, 2219, 1045, 2459, 375
0.204440, -3644, 183, 3451, 1179, 1214, 3674
0.204575, -3644, 183, 3451, 1179, 1214, 3674
0.204710, -3644, 183, 3451, 1179, 1214, 3674
0.204844, -3644, 183, 3451, 1179, 1214, 3674
0.204979, -3644, 183, 3451, 1179, 1214, 3674
0.205113, -3644, 183, 3451, 1179, 1214, 3674
0.205248, -3644, 183, 3451, 1179, 1214, 3674
0.205383, -569, 109, 3272, 1499, -633, 5291
0.205518, -569, 109, 3272, 1499, -633, 5291
0.205652, -569, 109, 3272, 1499, -633, 5291
0.205787, -569, 109, 3272, 1499, -633, 5291
0.205922, -569, 109, 3272, 1499, -633, 5291
0.206056, -569, 109, 3272, 1499, -633, 5291
0.206191, -569, 109, 3272, 1499, -633, 5291
0.206326, -569, 109, 3272, 1499, -633, 5291
0.206460, 2770, 385, 1014, 925, -2685, 4564
0.206595, 2770, 385, 1014, 925, -2685, 4564
0.206730, 2770, 385, 1014, 925, -2685, 4564
0.206865, 2770, 385, 1014, 925, -2685, 4564
0.206999, 2770, 385, 1014, 925, -2685, 4564
0.207134, 2770, 385, 1014, 925, -2685, 4564
0.207269, 2770, 385, 1014, 925, -2685, 4564
0.207403, 3081, 542, 411, -535, -4122, 2075
0.207539, 3081, 542, 411, -535, -4122, 2075
0.207674, 3081, 542, 411, -535, -4122, 2075
0.207808, 3081, 542, 411, -535, -4122, 2075
0.207943, 3081, 542, 411, -535, -4122, 2075
0.208078, 3081, 542, 411, -535, -4122, 2075
0.208212, 3081, 542, 411, -535, -4122, 2075
0.208347, 3081, 542, 411, -535, -4122, 2075
0.208482, -1630, 339, 1880, -1167, -3967, 760
0.208617, -1630, 339, 1880, -1167, -3967, 760
0.208751, -1630, 339, 1880, -1167, -3967, 760
0.208886, -1630, 339, 1880, -1167, -3967, 760
0.209021, -1630, 339, 1880, -1167, -3967, 760
0.209155, -1630, 339, 1880, -1167, -3967, 760
0.209290, -1630, 339, 1880, -1167, -3967, 760
0.209425, -1630, 339, 1880, -1167, -3967, 760
0.209559, -5154, 280, 1902, -804, -2950, 2787
0.209694, -5154, 280, 1902, -804, -2950, 2787
0.209829, -5154, 280, 1902, -804, -2950, 2787
0.209964, -5154, 280, 1902, -804, -2950, 2787
0.210098, -5154, 280, 1902, -804, -2950, 2787
0.210233, -5154, 280, 1902, -804, -2950, 2787
0.210368, -5154, 280, 1902, -804, -2950, 2787
0.210502, -5041, 865, 1138, -723, -2597, 6324
0.210637, -5041, 865, 1138, -723, -2597, 6324
0.210771, -5041, 865, 1138, -723, -2597, 6324
0.210906, -5041, 865, 1138, -723, -2597, 6324
0.211041, -5041, 865, 1138, -723, -2597, 6324
0.211175, -5041, 865, 1138, -723, -2597, 6324
0.211310, -5041, 865, 1138, -723, -2597, 6324
0.211444, -5041, 865, 1138, -723, -2597, 6324
0.211579, -3240, 1313, 784, -1500, -3255, 9337
0.211714, -3240, 1313, 784, -1500, -3255, 9337
0.211854, -3240, 1313, 784, -1500, -3255, 9337
0.211990, -3240, 1313, 784, -1500, -3255, 9337
0.212124, -3240, 1313, 784, -1500, -3255, 9337
0.212259, -3240, 1313, 784, -1500, -3255, 9337
0.212393, -3240, 1313, 784, -1500, -3255, 9337
0.212528, 69, 1200, 1291, -2923, -4358, 10820
0.212662, 69, 1200, 1291, -2923, -4358, 10820
0.212797, 69, 1200, 1291, -2923, -4358, 10820
0.212931, 69, 1200, 1291, -2923, -4358, 10820
0.213066, 69, 1200, 1291, -2923, -4358, 10820
0.213200, 69, 1200, 1291, -2923, -4358, 10820
0.213335, 69, 1200, 1291, -2923, -4358, 10820
0.213469, 69, 1200, 1291, -2923, -4358, 10820
0.213604, 3445, 890, 2211, -4055, -5186, 10075
0.213739, 3445, 890, 2211, -4055, -5186, 10075
0.213873, 3445, 890, 2211, -4055, -5186, 10075
0.214008, 3445, 890, 2211, -4055, -5186, 10075
0.214142, 3445, 890, 2211, -4055, -5186, 10075
0.214277, 3445, 890, 2211, -4055, -5186, 10075
0.214412, 3445, 890, 2211, -4055, -5186, 10075
0.214546, 7384, -355, 3044, -4375, -5412, 7087
0.214681, 7384, -355, 3044, -4375, -5412, 7087
0.214816, 7384, -355, 3044, -4375, -5412, 7087
0.214951, 7384, -355, 3044, -4375, -5412, 7087
0.215085, 7384, -355, 3044, -4375, -5412, 7087
0.215220, 7384, -355, 3044, -4375, -5412, 7087
0.215354, 7384, -355, 3044, -4375, -5412, 7087
0.215489, 7384, -355, 3044, -4375, -5412, 7087
0.215624, 9423, -889, 4337, -3379, -4736, 1907
0.215759, 9423, -889, 4337, -3379, -4736, 1907
0.215893, 9423, -889, 4337, -3379, -4736, 1907
0.216028, 9423, -889, 4337, -3379, -4736, 1907
0.216163, 9423, -889, 4337, -3379, -4736, 1907
0.216297, 9423, -889, 4337, -3379, -4736, 1907
0.216432, 9423, -889, 4337, -3379, -4736, 1907
0.216567, 4883, 154, 3892, -1209, -2629, -3111
0.216702, 4883, 154, 3892, -1209, -2629, -3111
0.216836, 4883, 154, 3892, -1209, -2629, -3111
0.216971, 4883, 154, 3892, -1209, -2629, -3111
0.217105, 4883, 154, 3892, -1209, -2629, -3111
0.217240, 4883, 154, 3892, -1209, -2629, -3111
0.217375, 4883, 154, 3892, -1209, -2629, -3111
0.217509, 4883, 154, 3892, -1209, -2629, -3111
0.217644, -1378, 381, 2999, 873, 237, -4540
0.217779, -1378, 381, 2999, 873, 237, -4540
0.217914, -1378, 381, 2999, 873, 237, -4540
0.218048, -1378, 381, 2999, 873, 237, -4540
0.218183, -1378, 381, 2999, 873, 237, -4540
0.218318, -1378, 381, 2999, 873, 237, -4540
0.218452, -1378, 381, 2999, 873, 237, -4540
0.218587, -4027, 505, 4336, 3042, 2283, -2641
0.218722, -4027, 505, 4336, 3042, 2283, -2641
0.218856, -4027, 505, 4336, 3042, 2283, -2641
0.218991, -4027, 505, 4336, 3042, 2283, -2641
0.219126, -4027, 505, 4336, 3042, 2283, -2641
0.219260, -4027, 505, 4336, 3042, 2283, -2641
0.219395, -4027, 505, 4336, 3042, 2283, -2641
0.219530, -4027, 505, 4336, 3042, 2283, -2641
0.219665, -3051, 1258, 5125, 5535, 3038, 156
0.219799, -3051, 1258, 5125, 5535, 3038, 156
0.219934, -3051, 1258, 5125, 5535, 3038, 156
0.220069, -3051, 1258, 5125, 5535, 3038, 156
0.220203, -3051, 1258, 5125, 5535, 3038, 156
0.220338, -3051, 1258, 5125, 5535, 3038, 156
0.220472, -3051, 1258, 5125, 5535, 3038, 156
0.220607, 1548, 892, 2232, 6480, 2530, 1453
0.220742, 1548, 892, 2232, 6480, 2530, 1453
0.220876, 1548, 892, 2232, 6480, 2530, 1453
0.221011, 1548, 892, 2232, 6480, 2530, 1453
0.221146, 1548, 892, 2232, 6480, 2530, 1453
0.221280, 1548, 892, 2232, 6480, 2530, 1453
0.221415, 1548, 892, 2232, 6480, 2530, 1453
0.221550, 1548, 892, 2232, 6480, 2530, 1453
0.221684, 6471, -239, -2153, 4253, 855, -820
0.221819, 6471, -239, -2153, 4253, 855, -820
0.221954, 6471, -239, -2153, 4253, 855, -820
0.222088, 6471, -239, -2153, 4253, 855, -820
0.222223, 6471, -239, -2153, 4253, 855, -820
0.222358, 6471, -239, -2153, 4253, 855, -820
0.222493, 6471, -239, -2153, 4253, 855, -820
0.222627, 5625, -389, -2119, 715, -396, -5334
0.222762, 5625, -389, -2119, 715, -396, -5334
0.222897, 5625, -389, -2119, 715, -396, -5334
0.223032, 5625, -389, -2119, 715, -396, -5334
0.223166, 5625, -389, -2119, 715, -396, -5334
0.223301, 5625, -389, -2119, 715, -396, -5334
0.223436, 5625, -389, -2119, 715, -396, -5334
0.223571, 5625, -389, -2119, 715, -396, -5334
0.223705, 852, 169, 1352, -721, 142, -7920
0.223840, 852, 169, 1352, -721, 142, -7920
0.223979, 852, 169, 1352, -721, 142, -7920
0.224114, 852, 169, 1352, -721, 142, -7920
0.224248, 852, 169, 1352, -721, 142, -7920
0.224383, 852, 169, 1352, -721, 142, -7920
0.224518, 852, 169, 1352, -721, 142, -7920
0.224652, -710, 263, 2371, 140, 1631, -7693
0.224787, -710, 263, 2371, 140, 1631, -7693
0.224922, -710, 263, 2371, 140, 1631, -7693
0.225057, -710, 263, 2371, 140, 1631, -7693
0.225191, -710, 263, 2371, 140, 1631, -7693
0.225326, -710, 263, 2371, 140, 1631, -7693
0.225461, -710, 263, 2371, 140, 1631, -7693
0.225595, -710, 263, 2371, 140, 1631, -7693
0.225730, -42, 135, 1718, 1250, 2638, -6999
0.225865, -42, 135, 1718, 1250, 2638, -6999
0.225999, -42, 135, 1718, 1250, 2638, -6999
0.226134, -42, 135, 1718, 1250, 2638, -6999
0.226269, -42, 135, 1718, 1250, 2638, -6999
0.226403, -42, 135, 1718, 1250, 2638, -6999
0.226538, -42, 135, 1718, 1250, 2638, -6999
0.226673, -28, 239, 1811, 1782, 2680, -6567
0.226807, -28, 239, 1811, 1782, 2680, -6567
0.226942, -28, 239, 1811, 1782, 2680, -6567
0.227077, -28, 239, 1811, 1782, 2680, -6567
0.227211, -28, 239, 1811, 1782, 2680, -6567
0.227346, -28, 239, 1811, 1782, 2680, -6567
0.227481, -28, 239, 1811, 1782, 2680, -6567
0.227615, -28, 239, 1811, 1782, 2680, -6567
0.227750, 71, 392, 1988, 1920, 2239, -6189
0.227885, 71, 392, 1988, 1920, 2239, -6189
0.228019, 71, 392, 1988, 1920, 2239, -6189
0.228154, 71, 392, 1988, 1920, 2239, -6189
0.228289, 71, 392, 1988, 1920, 2239, -6189
0.228423, 71, 392, 1988, 1920, 2239, -6189
0.228558, 71, 392, 1988, 1920, 2239, -6189
0.228693, -26, 404, 2053, 1919, 1986, -6037
0.228827, -26, 404, 2053, 1919, 1986, -6037
0.228962, -26, 404, 2053, 1919, 1986, -6037
0.229096, -26, 404, 2053, 1919, 1986, -6037
0.229231, -26, 404, 2053, 1919, 1986, -6037
0.229366, -26, 404, 2053, 1919, 1986, -6037
0.229500, -26, 404, 2053, 1919, 1986, -6037
0.229635, -26, 404, 2053, 1919, 1986, -6037
0.229770, -562, 305, 2146, 1994, 2023, -5782
0.229904, -562, 305, 2146, 1994, 2023, -5782
0.230039, -562, 305, 2146, 1994, 2023, -5782
0.230174, -562, 305, 2146, 1994, 2023, -5782
0.230308, -562, 305, 2146, 1994, 2023, -5782
0.230443, -562, 305, 2146, 1994, 2023, -5782
0.230577, -562, 305, 2146, 1994, 2023, -5782
0.230712, -562, 305, 2146, 1994, 2023, -5782
0.230846, -1396, 167, 2272, 2144, 2165, -5042
0.230981, -1396, 167, 2272, 2144, 2165, -5042
0.231116, -1396, 167, 2272, 2144, 2165, -5042
0.231251, -1396, 167, 2272, 2144, 2165, -5042
0.231385, -1396, 167, 2272, 2144, 2165, -5042
0.231520, -1396, 167, 2272, 2144, 2165, -5042
0.231655, -1396, 167, 2272, 2144, 2165, -5042
0.231790, -3064, -46, 2425, 2310, 2302, -3604
0.231925, -3064, -46, 2425, 2310, 2302, -3604
0.232059, -3064, -46, 2425, 2310, 2302, -3604
0.232194, -3064, -46, 2425, 2310, 2302, -3604
0.232328, -3064, -46, 2425, 2310, 2302, -3604
0.232463, -3064, -46, 2425, 2310, 2302, -3604
0.232598, -3064, -46, 2425, 2310, 2302, -3604
0.232732, -3064, -46, 2425, 2310, 2302, -3604
0.232867, -5830, -9, 2503, 2539, 2192, -953
0.233002, -5830, -9, 2503, 2539, 2192, -953
0.233137, -5830, -9, 2503, 2539, 2192, -953
0.233271, -5830, -9, 2503, 2539, 2192, -953
0.233406, -5830, -9, 2503, 2539, 2192, -953
0.233541, -5830, -9, 2503, 2539, 2192, -953
0.233675, -5830, -9, 2503, 2539, 2192, -953
0.233810, -7075, 303, 1764, 2555, 1302, 3206
0.233945, -7075, 303, 1764, 2555, 1302, 3206
0.234079, -7075, 303, 1764, 2555, 1302, 3206
0.234214, -7075, 303, 1764, 2555, 1302, 3206
0.234349, -7075, 303, 1764, 2555, 1302, 3206
0.234483, -7075, 303, 1764, 2555, 1302, 3206
0.234618, -7075, 303, 1764, 2555, 1302, 3206
0.234753, -7075, 303, 1764, 2555, 1302, 3206
0.234887, -3392, 817, -149, 1418, -893, 7020
0.235022, -3392, 817, -149, 1418, -893, 7020
0.235157, -3392, 817, -149, 1418, -893, 7020
0.235292, -3392, 817, -149, 1418, -893, 7020
0.235429, -3392, 817, -149, 1418, -893, 7020
0.235575, -3392, 817, -149, 1418, -893, 7020
0.235713, -3392, 817, -149, 1418, -893, 7020
0.235849, 2814, 783, 193, -894, -3839, 7435
0.235985, 2814, 783, 193, -894, -3839, 7435
0.236120, 2814, 783, 193, -894, -3839, 7435
0.236260, 2814, 783, 193, -894, -3839, 7435
0.236415, 2814, 783, 193, -894, -3839, 7435
0.236555, 2814, 783, 193, -894, -3839, 7435
0.236693, 2814, 783, 193, -894, -3839, 7435
0.236831, 3487, -79, 4195, -1901, -5545, 4730
0.236968, 3487, -79, 4195, -1901, -5545, 4730
0.237103, 3487, -79, 4195, -1901, -5545, 4730
0.237240, 3487, -79, 4195, -1901, -5545, 4730
0.237377, 3487, -79, 4195, -1901, -5545, 4730
0.237513, 3487, -79, 4195, -1901, -5545, 4730
0.237649, 3487, -79, 4195, -1901, -5545, 4730
0.237784, 3487, -79, 4195, -1901, -5545, 4730
0.237921, -2540, -67, 5614, -246, -4868, 3469
0.238060, -2540, -67, 5614, -246, -4868, 3469
0.238191, -2540, -67, 5614, -246, -4868, 3469
0.238326, -2540, -67, 5614, -246, -4868, 3469
0.238461, -2540, -67, 5614, -246, -4868, 3469
0.238596, -2540, -67, 5614, -246, -4868, 3469
0.238731, -2540, -67, 5614, -246, -4868, 3469
0.238866, -5425, 751, 2581, 1477, -3624, 6058
0.239001, -5425, 751, 2581, 1477, -3624, 6058
0.239136, -5425, 751, 2581, 1477, -3624, 6058
0.239271, -5425, 751, 2581, 1477, -3624, 6058
0.239407, -5425, 751, 2581, 1477, -3624, 6058
0.239542, -5425, 751, 2581, 1477, -3624, 6058
0.239677, -5425, 751, 2581, 1477, -3624, 6058
0.239812, -5425, 751, 2581, 1477, -3624, 6058
0.239947, -1657, 1076, 553, 1395, -4025, 8929
0.240083, -1657, 1076, 553, 1395, -4025, 8929
0.240218, -1657, 1076, 553, 1395, -4025, 8929
0.240353, -1657, 1076, 553, 1395, -4025, 8929
0.240489, -1657, 1076, 553, 1395, -4025, 8929
0.240624, -1657, 1076, 553, 1395, -4025, 8929
0.240760, -1657, 1076, 553, 1395, -4025, 8929
0.240894, 1351, 1250, 278, 135, -5235, 9123
0.241029, 1351, 1250, 278, 135, -5235, 9123
0.241164, 1351, 1250, 278, 135, -5235, 9123
0.241300, 1351, 1250, 278, 135, -5235, 9123
0.241435, 1351, 1250, 278, 135, -5235, 9123
0.241569, 1351, 1250, 278, 135, -5235, 9123
0.241704, 1351, 1250, 278, 135, -5235, 9123
0.241839, 1351, 1250, 278, 135, -5235, 9123
0.241973, 576, 1254, 431, -1692, -5369, 8388
0.242108, 576, 1254, 431, -1692, -5369, 8388
0.242243, 576, 1254, 431, -1692, -5369, 8388
0.242378, 576, 1254, 431, -1692, -5369, 8388
0.242513, 576, 1254, 431, -1692, -5369, 8388
0.242648, 576, 1254, 431, -1692, -5369, 8388
0.242783, 576, 1254, 431, -1692, -5369, 8388
0.242921, 1218, 330, 2246, -2866, -4594, 8273
0.243057, 1218, 330, 2246, -2866, -4594, 8273
0.243194, 1218, 330, 2246, -2866, -4594, 8273
0.243331, 1218, 330, 2246, -2866, -4594, 8273
0.243469, 1218, 330, 2246, -2866, -4594, 8273
0.243604, 1218, 330, 2246, -2866, -4594, 8273
0.243739, 1218, 330, 2246, -2866, -4594, 8273
0.243874, 1218, 330, 2246, -2866, -4594, 8273
0.244010, 6550, -432, 4204, -2081, -3825, 6766
0.244146, 6550, -432, 4204, -2081, -3825, 6766
0.244281, 6550, -432, 4204, -2081, -3825, 6766
0.244416, 6550, -432, 4204, -2081, -3825, 6766
0.244553, 6550, -432, 4204, -2081, -3825, 6766
0.244689, 6550, -432, 4204, -2081, -3825, 6766
0.244823, 6550, -432, 4204, -2081, -3825, 6766
0.244958, 11282, 83, 2969, -648, -2925, 1551
0.245087, 11282, 83, 2969, -648, -2925, 1551
0.245217, 11282, 83, 2969, -648, -2925, 1551
0.245352, 11282, 83, 2969, -648, -2925, 1551
0.245487, 11282, 83, 2969, -648, -2925, 1551
0.245621, 11282, 83, 2969, -648, -2925, 1551
0.245756, 11282, 83, 2969, -648, -2925, 1551
0.245890, 11282, 83, 2969, -648, -2925, 1551
0.246025, 7458, 654, 674, -372, -1109, -4970
0.246159, 7458, 654, 674, -372, -1109, -4970
0.246294, 7458, 654, 674, -372, -1109, -4970
0.246428, 7458, 654, 674, -372, -1109, -4970
0.246563, 7458, 654, 674, -372, -1109, -4970
0.246697, 7458, 654, 674, -372, -1109, -4970
0.246832, 7458, 654, 674, -372, -1109, -4970
0.246966, 285, 197, 1101, -193, 1394, -7770
0.247101, 285, 197, 1101, -193, 1394, -7770
0.247235, 285, 197, 1101, -193, 1394, -7770
0.247370, 285, 197, 1101, -193, 1394, -7770
0.247505, 285, 197, 1101, -193, 1394, -7770
0.247639, 285, 197, 1101, -193, 1394, -7770
0.247774, 285, 197, 1101, -193, 1394, -7770
0.247908, 285, 197, 1101, -193, 1394, -7770
0.248043, -981, -57, 2014, 881, 3333, -7031
0.248177, -981, -57, 2014, 881, 3333, -7031
0.248312, -981, -57, 2014, 881, 3333, -7031
0.248446, -981, -57, 2014, 881, 3333, -7031
0.248600, -981, -57, 2014, 881, 3333, -7031
0.248737, -981, -57, 2014, 881, 3333, -7031
0.248872, -981, -57, 2014, 881, 3333, -7031
0.249006, -162, 307, 2003, 1856, 4430, -6177
0.249141, -162, 307, 2003, 1856, 4430, -6177
0.249275, -162, 307, 2003, 1856, 4430, -6177
0.249410, -162, 307, 2003, 1856, 4430, -6177
0.249544, -162, 307, 2003, 1856, 4430, -6177
0.249679, -162, 307, 2003, 1856, 4430, -6177
0.249813, -162, 307, 2003, 1856, 4430, -6177
0.249947, -162, 307, 2003, 1856, 4430, -6177
0.250082, -557, 423, 2172, 2170, 4882, -5620
0.250216, -557, 423, 2172, 2170, 4882, -5620
0.250351, -557, 423, 2172, 2170, 4882, -5620
0.250485, -557, 423, 2172, 2170, 4882, -5620
0.250620, -557, 423, 2172, 2170, 4882, -5620
0.250750, -557, 423, 2172, 2170, 4882, -5620
0.250886, -557, 423, 2172, 2170, 4882, -5620
0.251022, -777, 428, 2319, 2174, 4735, -4966
0.251157, -777, 428, 2319, 2174, 4735, -4966
0.251291, -777, 428, 2319, 2174, 4735, -4966
0.251426, -777, 428, 2319, 2174, 4735, -4966
0.251561, -777, 428, 2319, 2174, 4735, -4966
0.251695, -777, 428, 2319, 2174, 4735, -4966
0.251830, -777, 428, 2319, 2174, 4735, -4966
0.251964, -777, 428, 2319, 2174, 4735, -4966
0.252099, -1885, 557, 2694, 2239, 4292, -4226
0.252229, -1885, 557, 2694, 2239, 4292, -4226
0.252365, -1885, 557, 2694, 2239, 4292, -4226
0.252499, -1885, 557, 2694, 2239, 4292, -4226
0.252634, -1885, 557, 2694, 2239, 4292, -4226
0.252768, -1885, 557, 2694, 2239, 4292, -4226
0.252903, -1885, 557, 2694, 2239, 4292, -4226
0.253037, -4494, 958, 3363, 2669, 3549, -2542
0.253172, -4494, 958, 3363, 2669, 3549, -2542
0.253306, -4494, 958, 3363, 2669, 3549, -2542
0.253441, -4494, 958, 3363, 2669, 3549, -2542
0.253575, -4494, 958, 3363, 2669, 3549, -2542
0.253710, -4494, 958, 3363, 2669, 3549, -2542
0.253844, -4494, 958, 3363, 2669, 3549, -2542
0.253979, -4494, 958, 3363, 2669, 3549, -2542
0.254113, -6395, 1318, 3918, 3607, 2327, 870
0.254248, -6395, 1318, 3918, 3607, 2327, 870
0.254382, -6395, 1318, 3918, 3607, 2327, 870
0.254517, -6395, 1318, 3918, 3607, 2327, 870
0.254651, -6395, 1318, 3918, 3607, 2327, 870
0.254786, -6395, 1318, 3918, 3607, 2327, 870
0.254920, -6395, 1318, 3918, 3607, 2327, 870
0.255055, -2195, 151, 2267, 4117, 252, 4326
0.255190, -2195, 151, 2267, 4117, 252, 4326
0.255324, -2195, 151, 2267, 4117, 252, 4326
0.255459, -2195, 151, 2267, 4117, 252, 4326
0.255593, -2195, 151, 2267, 4117, 252, 4326
0.255728, -2195, 151, 2267, 4117, 252, 4326
0.255862, -2195, 151, 2267, 4117, 252, 4326
0.255997, -2195, 151, 2267, 4117, 252, 4326
0.256131, 4021, -843, -440, 2860, -2473, 4058
0.256266, 4021, -843, -440, 2860, -2473, 4058
0.256400, 4021, -843, -440, 2860, -2473, 4058
0.256535, 4021, -843, -440, 2860, -2473, 4058
0.256669, 4021, -843, -440, 2860, -2473, 4058
0.256804, 4021, -843, -440, 2860, -2473, 4058
0.256938, 4021, -843, -440, 2860, -2473, 4058
0.257073, 2361, 106, 173, 910, -4181, 1162
0.257208, 2361, 106, 173, 910, -4181, 1162
0.257342, 2361, 106, 173, 910, -4181, 1162
0.257477, 2361, 106, 173, 910, -4181, 1162
0.257611, 2361, 106, 173, 910, -4181, 1162
0.257745, 2361, 106, 173, 910, -4181, 1162
0.257880, 2361, 106, 173, 910, -4181, 1162
0.258014, 2361, 106, 173, 910, -4181, 1162
0.258149, -1203, -29, 1772, 222, -3937, 407
0.258284, -1203, -29, 1772, 222, -3937, 407
0.258418, -1203, -29, 1772, 222, -3937, 407
0.258553, -1203, -29, 1772, 222, -3937, 407
0.258687, -1203, -29, 1772, 222, -3937, 407
0.258822, -1203, -29, 1772, 222, -3937, 407
0.258956, -1203, -29, 1772, 222, -3937, 407
0.259085, -1203, -29, 1772, 222, -3937, 407
0.259222, -561, -414, 1572, 433, -2845, 1210
0.259357, -561, -414, 1572, 433, -2845, 1210
0.259492, -561, -414, 1572, 433, -2845, 1210
0.259627, -561, -414, 1572, 433, -2845, 1210
0.259761, -561, -414, 1572, 433, -2845, 1210
0.259895, -561, -414, 1572, 433, -2845, 1210
0.260030, -561, -414, 1572, 433, -2845, 1210
0.260164, -1922, 648, 1213, 485, -1922, 1758
0.260299, -1922, 648, 1213, 485, -1922, 1758
0.260429, -1922, 648, 1213, 485, -1922, 1758
0.260563, -1922, 648, 1213, 485, -1922, 1758
0.260698, -1922, 648, 1213, 485, -1922, 1758
0.260832, -1922, 648, 1213, 485, -1922, 1758
0.260983, -1922, 648, 1213, 485, -1922, 1758
0.261119, -1922, 648, 1213, 485, -1922, 1758
0.261254, -3998, 937, 566, -86, -1412, 3715
0.261388, -3998, 937, 566, -86, -1412, 3715
0.261523, -3998, 937, 566, -86, -1412, 3715
0.261657, -3998, 937, 566, -86, -1412, 3715
0.261791, -3998, 937, 566, -86, -1412, 3715
0.261926, -3998, 937, 566, -86, -1412, 3715
0.262060, -3998, 937, 566, -86, -1412, 3715
0.262195, -2317, 1070, -1329, -1906, -1754, 6200
0.262329, -2317, 1070, -1329, -1906, -1754, 6200
0.262464, -2317, 1070, -1329, -1906, -1754, 6200
0.262598, -2317, 1070, -1329, -1906, -1754, 6200
0.262733, -2317, 1070, -1329, -1906, -1754, 6200
0.262867, -2317, 1070, -1329, -1906, -1754, 6200
0.263002, -2317, 1070, -1329, -1906, -1754, 6200
0.263136, -2317, 1070, -1329, -1906, -1754, 6200
0.263271, -1714, 1202, -150, -4578, -2628, 7397
0.263406, -1714, 1202, -150, -4578, -2628, 7397
0.263540, -1714, 1202, -150, -4578, -2628, 7397
0.263675, -1714, 1202, -150, -4578, -2628, 7397
0.263809, -1714, 1202, -150, -4578, -2628, 7397
0.263944, -1714, 1202, -150, -4578, -2628, 7397
0.264079, -1714, 1202, -150, -4578, -2628, 7397
0.264213, -1796, 180, 5929, -4970, -3129, 8669
0.264348, -1796, 180, 5929, -4970, -3129, 8669
0.264483, -1796, 180, 5929, -4970, -3129, 8669
0.264617, -1796, 180, 5929, -4970, -3129, 8669
0.264752, -1796, 180, 5929, -4970, -3129, 8669
0.264886, -1796, 180, 5929, -4970, -3129, 8669
0.265021, -1796, 180, 5929, -4970, -3129, 8669
0.265156, -1796, 180, 5929, -4970, -3129, 8669
0.265290, 2269, -247, 7177, -2172, -3219, 9336
0.265425, 2269, -247, 7177, -2172, -3219, 9336
0.265560, 2269, -247, 7177, -2172, -3219, 9336
0.265694, 2269, -247, 7177, -2172, -3219, 9336
0.265829, 2269, -247, 7177, -2172, -3219, 9336
0.265964, 2269, -247, 7177, -2172, -3219, 9336
0.266098, 2269, -247, 7177, -2172, -3219, 9336
0.266233, 5824, 301, 1961, -663, -3276, 6945
0.266368, 5824, 301, 1961, -663, -3276, 6945
0.266502, 5824, 301, 1961, -663, -3276, 6945
0.266637, 5824, 301, 1961, -663, -3276, 6945
0.266772, 5824, 301, 1961, -663, -3276, 6945
0.266906, 5824, 301, 1961, -663, -3276, 6945
0.267041, 5824, 301, 1961, -663, -3276, 6945
0.267175, 5824, 301, 1961, -663, -3276, 6945
0.267310, 3742, 495, 493, -1520, -3296, 3264
0.267445, 3742, 495, 493, -1520, -3296, 3264
0.267580, 3742, 495, 493, -1520, -3296, 3264
0.267715, 3742, 495, 493, -1520, -3296, 3264
0.267850, 3742, 495, 493, -1520, -3296, 3264
0.267984, 3742, 495, 493, -1520, -3296, 3264
0.268119, 3742, 495, 493, -1520, -3296, 3264
0.268254, -102, 229, 2106, -1596, -2775, 1676
0.268388, -102, 229, 2106, -1596, -2775, 1676
0.268523, -102, 229, 2106, -1596, -2775, 1676
0.268658, -102, 229, 2106, -1596, -2775, 1676
0.268792, -102, 229, 2106, -1596, -2775, 1676
0.268927, -102, 229, 2106, -1596, -2775, 1676
0.269061, -102, 229, 2106, -1596, -2775, 1676
0.269196, -102, 229, 2106, -1596, -2775, 1676
0.269331, -758, 117, 1289, -1135, -1583, 2166
0.269465, -758, 117, 1289, -1135, -1583, 2166
0.269600, -758, 117, 1289, -1135, -1583, 2166
0.269735, -758, 117, 1289, -1135, -1583, 2166
0.269869, -758, 117, 1289, -1135, -1583, 2166
0.270004, -758, 117, 1289, -1135, -1583, 2166
0.270138, -758, 117, 1289, -1135, -1583, 2166
0.270273, 1600, 248, 660, -1466, -792, 2388
0.270408, 1600, 248, 660, -1466, -792, 2388
0.270543, 1600, 248, 660, -1466, -792, 2388
0.270677, 1600, 248, 660, -1466, -792, 2388
0.270812, 1600, 248, 660, -1466, -792, 2388
0.270946, 1600, 248, 660, -1466, -792, 2388
0.271081, 1600, 248, 660, -1466, -792, 2388
0.271216, 1600, 248, 660, -1466, -792, 2388
0.271350, 2861, 366, 2211, -1716, -628, 1078
0.271486, 2861, 366, 2211, -1716, -628, 1078
0.271620, 2861, 366, 2211, -1716, -628, 1078
0.271754, 2861, 366, 2211, -1716, -628, 1078
0.271888, 2861, 366, 2211, -1716, -628, 1078
0.272021, 2861, 366, 2211, -1716, -628, 1078
0.272155, 2861, 366, 2211, -1716, -628, 1078
0.272289, -190, 961, 3155, -1283, 89, -88
0.272423, -190, 961, 3155, -1283, 89, -88
0.272558, -190, 961, 3155, -1283, 89, -88
0.272692, -190, 961, 3155, -1283, 89, -88
0.272827, -190, 961, 3155, -1283, 89, -88
0.272966, -190, 961, 3155, -1283, 89, -88
0.273101, -190, 961, 3155, -1283, 89, -88
0.273236, -190, 961, 3155, -1283, 89, -88
0.273370, -3060, 1284, 1528, -1022, 1026, 994
0.273505, -3060, 1284, 1528, -1022, 1026, 994
0.273639, -3060, 1284, 1528, -1022, 1026, 994
0.273774, -3060, 1284, 1528, -1022, 1026, 994
0.273908, -3060, 1284, 1528, -1022, 1026, 994
0.274043, -3060, 1284, 1528, -1022, 1026, 994
0.274177, -3060, 1284, 1528, -1022, 1026, 994
0.274312, -671, 368, 360, -1713, 603, 2750
0.274446, -671, 368, 360, -1713, 603, 2750
0.274581, -671, 368, 360, -1713, 603, 2750
0.274710, -671, 368, 360, -1713, 603, 2750
0.274846, -671, 368, 360, -1713, 603, 2750
0.274982, -671, 368, 360, -1713, 603, 2750
0.275119, -671, 368, 360, -1713, 603, 2750
0.275253, -671, 368, 360, -1713, 603, 2750
0.275388, 3185, -240, 3163, -2087, -864, 2430
0.275523, 3185, -240, 3163, -2087, -864, 2430
0.275658, 3185, -240, 3163, -2087, -864, 2430
0.275793, 3185, -240, 3163, -2087, -864, 2430
0.275927, 3185, -240, 3163, -2087, -864, 2430
0.276062, 3185, -240, 3163, -2087, -864, 2430
0.276197, 3185, -240, 3163, -2087, -864, 2430
0.276332, 5193, 226, 4980, -841, -1570, 122
0.276467, 5193, 226, 4980, -841, -1570, 122
0.276602, 5193, 226, 4980, -841, -1570, 122
0.276737, 5193, 226, 4980, -841, -1570, 122
0.276871, 5193, 226, 4980, -841, -1570, 122
0.277006, 5193, 226, 4980, -841, -1570, 122
0.277140, 5193, 226, 4980, -841, -1570, 122
0.277275, 5193, 226, 4980, -841, -1570, 122
0.277410, 5567, 515, 2294, 350, -949, -3284
0.277544, 5567, 515, 2294, 350, -949, -3284
0.277679, 5567, 515, 2294, 350, -949, -3284
0.277814, 5567, 515, 2294, 350, -949, -3284
0.277948, 5567, 515, 2294, 350, -949, -3284
0.278083, 5567, 515, 2294, 350, -949, -3284
0.278218, 5567, 515, 2294, 350, -949, -3284
0.278352, 5567, 515, 2294, 350, -949, -3284
0.278487, 2931, 270, 792, 432, 292, -6408
0.278621, 2931, 270, 792, 432, 292, -6408
0.278756, 2931, 270, 792, 432, 292, -6408
0.278891, 2931, 270, 792, 432, 292, -6408
0.279025, 2931, 270, 792, 432, 292, -6408
0.279160, 2931, 270, 792, 432, 292, -6408
0.279294, 2931, 270, 792, 432, 292, -6408
0.279429, -49, 95, 1723, 712, 1507, -7354
0.279564, -49, 95, 1723, 712, 1507, -7354
0.279699, -49, 95, 1723, 712, 1507, -7354
0.279833, -49, 95, 1723, 712, 1507, -7354
0.279968, -49, 95, 1723, 712, 1507, -7354
0.280103, -49, 95, 1723, 712, 1507, -7354
0.280237, -49, 95, 1723, 712, 1507, -7354
0.280372, -49, 95, 1723, 712, 1507, -7354
0.280506, -385, 206, 2077, 1404, 2550, -6794
0.280641, -385, 206, 2077, 1404, 2550, -6794
0.280776, -385, 206, 2077, 1404, 2550, -6794
0.280910, -385, 206, 2077, 1404, 2550, -6794
0.281045, -385, 206, 2077, 1404, 2550, -6794
0.281180, -385, 206, 2077, 1404, 2550, -6794
0.281314, -385, 206, 2077, 1404, 2550, -6794
0.281449, -325, 272, 2010, 1839, 3391, -6272
0.281584, -325, 272, 2010, 1839, 3391, -6272
0.281718, -325, 272, 2010, 1839, 3391, -6272
0.281853, -325, 272, 2010, 1839, 3391, -6272
0.281987, -325, 272, 2010, 1839, 3391, -6272
0.282122, -325, 272, 2010, 1839, 3391, -6272
0.282257, -325, 272, 2010, 1839, 3391, -6272
0.282391, -325, 272, 2010, 1839, 3391, -6272
0.282526, -1162, 217, 2072, 1973, 3867, -5657
0.282661, -1162, 217, 2072, 1973, 3867, -5657
0.282795, -1162, 217, 2072, 1973, 3867, -5657
0.282930, -1162, 217, 2072, 1973, 3867, -5657
0.283064, -1162, 217, 2072, 1973, 3867, -5657
0.283199, -1162, 217, 2072, 1973, 3867, -5657
0.283333, -1162, 217, 2072, 1973, 3867, -5657
0.283468, -2898, 251, 2088, 1892, 3894, -4415
0.283603, -2898, 251, 2088, 1892, 3894, -4415
0.283737, -2898, 251, 2088, 1892, 3894, -4415
0.283872, -2898, 251, 2088, 1892, 3894, -4415
0.284007, -2898, 251, 2088, 1892, 3894, -4415
0.284141, -2898, 251, 2088, 1892, 3894, -4415
0.284276, -2898, 251, 2088, 1892, 3894, -4415
0.284410, -2898, 251, 2088, 1892, 3894, -4415
0.284545, -6529, 614, 1861, 1625, 3438, -1836
0.284680, -6529, 614, 1861, 1625, 3438, -1836
0.284814, -6529, 614, 1861, 1625, 3438, -1836
0.284949, -6529, 614, 1861, 1625, 3438, -1836
0.285083, -6529, 614, 1861, 1625, 3438, -1836
0.285218, -6529, 614, 1861, 1625, 3438, -1836
0.285360, -6529, 614, 1861, 1625, 3438, -1836
0.285496, -9771, 1397, 1379, 1102, 2220, 3133
0.285631, -9771, 1397, 1379, 1102, 2220, 3133
0.285765, -9771, 1397, 1379, 1102, 2220, 3133
0.285900, -9771, 1397, 1379, 1102, 2220, 3133
0.286034, -9771, 1397, 1379, 1102, 2220, 3133
0.286169, -9771, 1397, 1379, 1102, 2220, 3133
0.286304, -9771, 1397, 1379, 1102, 2220, 3133
0.286438, -9771, 1397, 1379, 1102, 2220, 3133
0.286573, -6543, 1212, 1012, -13, -267, 8965
0.286708, -6543, 1212, 1012, -13, -267, 8965
0.286842, -6543, 1212, 1012, -13, -267, 8965
0.286977, -6543, 1212, 1012, -13, -267, 8965
0.287111, -6543, 1212, 1012, -13, -267, 8965
0.287246, -6543, 1212, 1012, -13, -267, 8965
0.287381, -6543, 1212, 1012, -13, -267, 8965
0.287516, 1339, 156, 1509, -1657, -3682, 11243
0.287650, 1339, 156, 1509, -1657, -3682, 11243
0.287785, 1339, 156, 1509, -1657, -3682, 11243
0.287920, 1339, 156, 1509, -1657, -3682, 11243
0.288054, 1339, 156, 1509, -1657, -3682, 11243
0.288189, 1339, 156, 1509, -1657, -3682, 11243
0.288324, 1339, 156, 1509, -1657, -3682, 11243
0.288458, 1339, 156, 1509, -1657, -3682, 11243
0.288593, 6202, -299, 2756, -2859, -6387, 8730
0.288728, 6202, -299, 2756, -2859, -6387, 8730
0.288862, 6202, -299, 2756, -2859, -6387, 8730
0.288997, 6202, -299, 2756, -2859, -6387, 8730
0.289132, 6202, -299, 2756, -2859, -6387, 8730
0.289266, 6202, -299, 2756, -2859, -6387, 8730
0.289401, 6202, -299, 2756, -2859, -6387, 8730
0.289535, 5256, -430, 3187, -2874, -6931, 4546
0.289670, 5256, -430, 3187, -2874, -6931, 4546
0.289805, 5256, -430, 3187, -2874, -6931, 4546
0.289939, 5256, -430, 3187, -2874, -6931, 4546
0.290074, 5256, -430, 3187, -2874, -6931, 4546
0.290209, 5256, -430, 3187, -2874, -6931, 4546
0.290343, 5256, -430, 3187, -2874, -6931, 4546
0.290478, 5256, -430, 3187, -2874, -6931, 4546
0.290612, 315, -94, 2662, -1924, -5464, 2134
0.290747, 315, -94, 2662, -1924, -5464, 2134
0.290882, 315, -94, 2662, -1924, -5464, 2134
0.291016, 315, -94, 2662, -1924, -5464, 2134
0.291151, 315, -94, 2662, -1924, -5464, 2134
0.291285, 315, -94, 2662, -1924, -5464, 2134
0.291420, 315, -94, 2662, -1924, -5464, 2134
0.291555, -2122, 359, 2170, -688, -3666, 2683
0.291690, -2122, 359, 2170, -688, -3666, 2683
0.291825, -2122, 359, 2170, -688, -3666, 2683
0.291959, -2122, 359, 2170, -688, -3666, 2683
0.292094, -2122, 359, 2170, -688, -3666, 2683
0.292228, -2122, 359, 2170, -688, -3666, 2683
0.292363, -2122, 359, 2170, -688, -3666, 2683
0.292498, -2122, 359, 2170, -688, -3666, 2683
0.292632, -852, 630, 1988, 103, -2634, 4064
0.292767, -852, 630, 1988, 103, -2634, 4064
0.292902, -852, 630, 1988, 103, -2634, 4064
0.293036, -852, 630, 1988, 103, -2634, 4064
0.293171, -852, 630, 1988, 103, -2634, 4064
0.293305, -852, 630, 1988, 103, -2634, 4064
0.293440, -852, 630, 1988, 103, -2634, 4064
0.293575, -85, 930, 2392, 288, -1994, 4666
0.293709, -85, 930, 2392, 288, -1994, 4666
0.293844, -85, 930, 2392, 288, -1994, 4666
0.293979, -85, 930, 2392, 288, -1994, 4666
0.294113, -85, 930, 2392, 288, -1994, 4666
0.294248, -85, 930, 2392, 288, -1994, 4666
0.294383, -85, 930, 2392, 288, -1994, 4666
0.294518, -85, 930, 2392, 288, -1994, 4666
0.294653, 1039, 782, 2664, 208, -1433, 4779
0.294787, 1039, 782, 2664, 208, -1433, 4779
0.294922, 1039, 782, 2664, 208, -1433, 4779
0.295057, 1039, 782, 2664, 208, -1433, 4779
0.295191, 1039, 782, 2664, 208, -1433, 4779
0.295326, 1039, 782, 2664, 208, -1433, 4779
0.295461, 1039, 782, 2664, 208, -1433, 4779
0.295595, 2283, 753, 2121, 7, -969, 4009
0.295730, 2283, 753, 2121, 7, -969, 4009
0.295865, 2283, 753, 2121, 7, -969, 4009
0.295999, 2283, 753, 2121, 7, -969, 4009
0.296134, 2283, 753, 2121, 7, -969, 4009
0.296269, 2283, 753, 2121, 7, -969, 4009
0.296403, 2283, 753, 2121, 7, -969, 4009
0.296538, 2283, 753, 2121, 7, -969, 4009
0.296673, 2050, 616, 1578, -369, -583, 2678
0.296807, 2050, 616, 1578, -369, -583, 2678
0.296942, 2050, 616, 1578, -369, -583, 2678
0.297077, 2050, 616, 1578, -369, -583, 2678
0.297211, 2050, 616, 1578, -369, -583, 2678
0.297346, 2050, 616, 1578, -369, -583, 2678
0.297481, 2050, 616, 1578, -369, -583, 2678
0.297620, 3195, -162, 1669, -705, -495, 1387
0.297755, 3195, -162, 1669, -705, -495, 1387
0.297890, 3195, -162, 1669, -705, -495, 1387
0.298025, 3195, -162, 1669, -705, -495, 1387
0.298159, 3195, -162, 1669, -705, -495, 1387
0.298294, 3195, -162, 1669, -705, -495, 1387
0.298428, 3195, -162, 1669, -705, -495, 1387
0.298563, 3195, -162, 1669, -705, -495, 1387
0.298698, 4803, -196, 1960, -600, -586, -882
0.298833, 4803, -196, 1960, -600, -586, -882
0.298967, 4803, -196, 1960, -600, -586, -882
0.299102, 4803, -196, 1960, -600, -586, -882
0.299237, 4803, -196, 1960, -600, -586, -882
0.299371, 4803, -196, 1960, -600, -586, -882
0.299506, 4803, -196, 1960, -600, -586, -882
0.299641, 4803, -196, 1960, -600, -586, -882
0.299776, 2709, 337, 2036, -92, -83, -3538
0.299911, 2709, 337, 2036, -92, -83, -3538
0.300045, 2709, 337, 2036, -92, -83, -3538
0.300180, 2709, 337, 2036, -92, -83, -3538
0.300314, 2709, 337, 2036, -92, -83, -3538
0.300449, 2709, 337, 2036, -92, -83, -3538
0.300584, 2709, 337, 2036, -92, -83, -3538
0.300718, -571, 317, 1966, 535, 971, -4361
0.300853, -571, 317, 1966, 535, 971, -4361
0.300988, -571, 317, 1966, 535, 971, -4361
0.301123, -571, 317, 1966, 535, 971, -4361
0.301257, -571, 317, 1966, 535, 971, -4361
0.301392, -571, 317, 1966, 535, 971, -4361
0.301526, -571, 317, 1966, 535, 971, -4361
0.301661, -571, 317, 1966, 535, 971, -4361
0.301796, -1925, 293, 1887, 1138, 1677, -3406
0.301930, -1925, 293, 1887, 1138, 1677, -3406
0.302065, -1925, 293, 1887, 1138, 1677, -3406
0.302200, -1925, 293, 1887, 1138, 1677, -3406
0.302334, -1925, 293, 1887, 1138, 1677, -3406
0.302469, -1925, 293, 1887, 1138, 1677, -3406
0.302604, -1925, 293, 1887, 1138, 1677, -3406
0.302738, -2582, 538, 1908, 1508, 1774, -1805
0.302873, -2582, 538, 1908, 1508, 1774, -1805
0.303008, -2582, 538, 1908, 1508, 1774, -1805
0.303142, -2582, 538, 1908, 1508, 1774, -1805
0.303277, -2582, 538, 1908, 1508, 1774, -1805
0.303411, -2582, 538, 1908, 1508, 1774, -1805
0.303546, -2582, 538, 1908, 1508, 1774, -1805
0.303680, -2582, 538, 1908, 1508, 1774, -1805
0.303814, -3144, 843, 1905, 1428, 1447, 188
0.303948, -3144, 843, 1905, 1428, 1447, 188
0.304082, -3144, 843, 1905, 1428, 1447, 188
0.304216, -3144, 843, 1905, 1428, 1447, 188
0.304350, -3144, 843, 1905, 1428, 1447, 188
0.304484, -3144, 843, 1905, 1428, 1447, 188
0.304618, -3144, 843, 1905, 1428, 1447, 188
0.304752, -3705, 1207, 1519, 869, 795, 2461
0.304886, -3705, 1207, 1519, 869, 795, 2461
0.305020, -3705, 1207, 1519, 869, 795, 2461
0.305154, -3705, 1207, 1519, 869, 795, 2461
0.305288, -3705, 1207, 1519, 869, 795, 2461
0.305421, -3705, 1207, 1519, 869, 795, 2461
0.305555, -3705, 1207, 1519, 869, 795, 2461
0.305689, -3705, 1207, 1519, 869, 795, 2461
0.305823, -2075, 409, 1879, 11, -299, 4695
0.305957, -2075, 409, 1879, 11, -299, 4695
0.306091, -2075, 409, 1879, 11, -299, 4695
0.306225, -2075, 409, 1879, 11, -299, 4695
0.306359, -2075, 409, 1879, 11, -299, 4695
0.306493, -2075, 409, 1879, 11, -299, 4695
0.306627, -2075, 409, 1879, 11, -299, 4695
0.306761, 2455, -683, 3037, -396, -1954, 5117
0.306895, 2455, -683, 3037, -396, -1954, 5117
0.307029, 2455, -683, 3037, -396, -1954, 5117
0.307163, 2455, -683, 3037, -396, -1954, 5117
0.307297, 2455, -683, 3037, -396, -1954, 5117
0.307431, 2455, -683, 3037, -396, -1954, 5117
0.307567, 2455, -683, 3037, -396, -1954, 5117
0.307698, 2455, -683, 3037, -396, -1954, 5117
0.307832, 2884, -4, 2800, -133, -3181, 3039
0.307967, 2884, -4, 2800, -133, -3181, 3039
0.308102, 2884, -4, 2800, -133, -3181, 3039
0.308237, 2884, -4, 2800, -133, -3181, 3039
0.308371, 2884, -4, 2800, -133, -3181, 3039
0.308506, 2884, -4, 2800, -133, -3181, 3039
0.308641, 2884, -4, 2800, -133, -3181, 3039
0.308776, -2326, 372, 2197, 173, -2974, 2111
0.308910, -2326, 372, 2197, 173, -2974, 2111
0.309045, -2326, 372, 2197, 173, -2974, 2111
0.309180, -2326, 372, 2197, 173, -2974, 2111
0.309315, -2326, 372, 2197, 173, -2974, 2111
0.309449, -2326, 372, 2197, 173, -2974, 2111
0.309584, -2326, 372, 2197, 173, -2974, 2111
0.309718, -2326, 372, 2197, 173, -2974, 2111
0.309853, -5226, 33, 2064, 631, -2368, 4546
0.309997, -5226, 33, 2064, 631, -2368, 4546
0.310132, -5226, 33, 2064, 631, -2368, 4546
0.310267, -5226, 33, 2064, 631, -2368, 4546
0.310402, -5226, 33, 2064, 631, -2368, 4546
0.310536, -5226, 33, 2064, 631, -2368, 4546
0.310671, -5226, 33, 2064, 631, -2368, 4546
0.310805, -1785, 636, 1290, 893, -2824, 7458
0.310940, -1785, 636, 1290, 893, -2824, 7458
0.311075, -1785, 636, 1290, 893, -2824, 7458
0.311209, -1785, 636, 1290, 893, -2824, 7458
0.311344, -1785, 636, 1290, 893, -2824, 7458
0.311479, -1785, 636, 1290, 893, -2824, 7458
0.311613, -1785, 636, 1290, 893, -2824, 7458
0.311747, -1785, 636, 1290, 893, -2824, 7458
0.311881, 3784, 979, 1159, 155, -4025, 7357
0.312015, 3784, 979, 1159, 155, -4025, 7357
0.312149, 3784, 979, 1159, 155, -4025, 7357
0.312283, 3784, 979, 1159, 155, -4025, 7357
0.312417, 3784, 979, 1159, 155, -4025, 7357
0.312551, 3784, 979, 1159, 155, -4025, 7357
0.312685, 3784, 979, 1159, 155, -4025, 7357
0.312819, 3784, 979, 1159, 155, -4025, 7357
0.312953, 5254, 550, 2017, -887, -4454, 4408
0.313087, 5254, 550, 2017, -887, -4454, 4408
0.313220, 5254, 550, 2017, -887, -4454, 4408
0.313354, 5254, 550, 2017, -887, -4454, 4408
0.313488, 5254, 550, 2017, -887, -4454, 4408
0.313622, 5254, 550, 2017, -887, -4454, 4408
0.313756, 5254, 550, 2017, -887, -4454, 4408
0.313890, 3445, 260, 2313, -1270, -3461, 1512
0.314024, 3445, 260, 2313, -1270, -3461, 1512
0.314158, 3445, 260, 2313, -1270, -3461, 1512
0.314292, 3445, 260, 2313, -1270, -3461, 1512
0.314426, 3445, 260, 2313, -1270, -3461, 1512
0.314560, 3445, 260, 2313, -1270, -3461, 1512
0.314693, 3445, 260, 2313, -1270, -3461, 1512
0.314827, 3445, 260, 2313, -1270, -3461, 1512
0.314961, 2988, 74, 2077, -1002, -1941, -307
0.315095, 2988, 74, 2077, -1002, -1941, -307
0.315229, 2988, 74, 2077, -1002, -1941, -307
0.315363, 2988, 74, 2077, -1002, -1941, -307
0.315497, 2988, 74, 2077, -1002, -1941, -307
0.315631, 2988, 74, 2077, -1002, -1941, -307
0.315765, 2988, 74, 2077, -1002, -1941, -307
0.315899, 3434, 31, 1930, -422, -639, -2053
0.316033, 3434, 31, 1930, -422, -639, -2053
0.316167, 3434, 31, 1930, -422, -639, -2053
0.316301, 3434, 31, 1930, -422, -639, -2053
0.316435, 3434, 31, 1930, -422, -639, -2053
0.316569, 3434, 31, 1930, -422, -639, -2053
0.316703, 3434, 31, 1930, -422, -639, -2053
0.316837, 3434, 31, 1930, -422, -639, -2053
0.316971, 2896, 145, 1816, 124, 558, -3835
0.317105, 2896, 145, 1816, 124, 558, -3835
0.317239, 2896, 145, 1816, 124, 558, -3835
0.317372, 2896, 145, 1816, 124, 558, -3835
0.317506, 2896, 145, 1816, 124, 558, -3835
0.317640, 2896, 145, 1816, 124, 558, -3835
0.317774, 2896, 145, 1816, 124, 558, -3835
0.317908, 1040, 220, 1841, 523, 1842, -4973
0.318042, 1040, 220, 1841, 523, 1842, -4973
0.318176, 1040, 220, 1841, 523, 1842, -4973
0.318310, 1040, 220, 1841, 523, 1842, -4973
0.318444, 1040, 220, 1841, 523, 1842, -4973
0.318578, 1040, 220, 1841, 523, 1842, -4973
0.318712, 1040, 220, 1841, 523, 1842, -4973
0.318846, 1040, 220, 1841, 523, 1842, -4973
0.318980, -729, 270, 2077, 940, 2978, -4865
0.319114, -729, 270, 2077, 940, 2978, -4865
0.319248, -729, 270, 2077, 940, 2978, -4865
0.319381, -729, 270, 2077, 940, 2978, -4865
0.319517, -729, 270, 2077, 940, 2978, -4865
0.319652, -729, 270, 2077, 940, 2978, -4865
0.319786, -729, 270, 2077, 940, 2978, -4865
0.319921, -629, 303, 2194, 1348, 3437, -4022
0.320056, -629, 303, 2194, 1348, 3437, -4022
0.320190, -629, 303, 2194, 1348, 3437, -4022
0.320325, -629, 303, 2194, 1348, 3437, -4022
0.320459, -629, 303, 2194, 1348, 3437, -4022
0.320593, -629, 303, 2194, 1348, 3437, -4022
0.320728, -629, 303, 2194, 1348, 3437, -4022
0.320862, -629, 303, 2194, 1348, 3437, -4022
0.320997, -792, 377, 2077, 1533, 3209, -3419
0.321132, -792, 377, 2077, 1533, 3209, -3419
0.321266, -792, 377, 2077, 1533, 3209, -3419
0.321401, -792, 377, 2077, 1533, 3209, -3419
0.321535, -792, 377, 2077, 1533, 3209, -3419
0.321670, -792, 377, 2077, 1533, 3209, -3419
0.321804, -792, 377, 2077, 1533, 3209, -3419
0.321939, -792, 377, 2077, 1533, 3209, -3419
0.322073, -2761, 411, 1804, 1433, 2683, -2416
0.322208, -2761, 411, 1804, 1433, 2683, -2416
0.322349, -2761, 411, 1804, 1433, 2683, -2416
0.322484, -2761, 411, 1804, 1433, 2683, -2416
0.322618, -2761, 411, 1804, 1433, 2683, -2416
0.322753, -2761, 411, 1804, 1433, 2683, -2416
0.322887, -2761, 411, 1804, 1433, 2683, -2416
0.323021, -3953, 440, 989, 962, 1785, -249
0.323156, -3953, 440, 989, 962, 1785, -249
0.323291, -3953, 440, 989, 962, 1785, -249
0.323426, -3953, 440, 989, 962, 1785, -249
0.323561, -3953, 440, 989, 962, 1785, -249
0.323696, -3953, 440, 989, 962, 1785, -249
0.323830, -3953, 440, 989, 962, 1785, -249
0.323965, -3953, 440, 989, 962, 1785, -249
0.324099, -2937, 476, 64, -188, 232, 2144
0.324234, -2937, 476, 64, -188, 232, 2144
0.324369, -2937, 476, 64, -188, 232, 2144
0.324503, -2937, 476, 64, -188, 232, 2144
0.324638, -2937, 476, 64, -188, 232, 2144
0.324773, -2937, 476, 64, -188, 232, 2144
0.324907, -2937, 476, 64, -188, 232, 2144
0.325042, -1132, 536, 570, -1712, -1709, 3542
0.325176, -1132, 536, 570, -1712, -1709, 3542
0.325311, -1132, 536, 570, -1712, -1709, 3542
0.325446, -1132, 536, 570, -1712, -1709, 3542
0.325580, -1132, 536, 570, -1712, -1709, 3542
0.325715, -1132, 536, 570, -1712, -1709, 3542
0.325850, -1132, 536, 570, -1712, -1709, 3542
0.325984, -1132, 536, 570, -1712, -1709, 3542
0.326119, 124, 437, 2082, -2586, -3248, 3930
0.326254, 124, 437, 2082, -2586, -3248, 3930
0.326388, 124, 437, 2082, -2586, -3248, 3930
0.326523, 124, 437, 2082, -2586, -3248, 3930
0.326658, 124, 437, 2082, -2586, -3248, 3930
0.326792, 124, 437, 2082, -2586, -3248, 3930
0.326927, 124, 437, 2082, -2586, -3248, 3930
0.327062, 2284, -36, 2809, -2567, -4009, 3540
0.327196, 2284, -36, 2809, -2567, -4009, 3540
0.327331, 2284, -36, 2809, -2567, -4009, 3540
0.327466, 2284, -36, 2809, -2567, -4009, 3540
0.327601, 2284, -36, 2809, -2567, -4009, 3540
0.327735, 2284, -36, 2809, -2567, -4009, 3540
0.327870, 2284, -36, 2809, -2567, -4009, 3540
0.328004, 2284, -36, 2809, -2567, -4009, 3540
0.328139, 5524, -79, 3028, -2011, -4189, 1454
0.328274, 5524, -79, 3028, -2011, -4189, 1454
0.328408, 5524, -79, 3028, -2011, -4189, 1454
0.328543, 5524, -79, 3028, -2011, -4189, 1454
0.328678, 5524, -79, 3028, -2011, -4189, 1454
0.328812, 5524, -79, 3028, -2011, -4189, 1454
0.328947, 5524, -79, 3028, -2011, -4189, 1454
0.329081, 5093, 434, 2965, -1035, -3466, -2081
0.329216, 5093, 434, 2965, -1035, -3466, -2081
0.329351, 5093, 434, 2965, -1035, -3466, -2081
0.329485, 5093, 434, 2965, -1035, -3466, -2081
0.329620, 5093, 434, 2965, -1035, -3466, -2081
0.329755, 5093, 434, 2965, -1035, -3466, -2081
0.329889, 5093, 434, 2965, -1035, -3466, -2081
0.330024, 5093, 434, 2965, -1035, -3466, -2081
0.330159, 768, 475, 1985, -132, -1633, -4263
0.330293, 768, 475, 1985, -132, -1633, -4263
0.330428, 768, 475, 1985, -132, -1633, -4263
0.330563, 768, 475, 1985, -132, -1633, -4263
0.330697, 768, 475, 1985, -132, -1633, -4263
0.330832, 768, 475, 1985, -132, -1633, -4263
0.330966, 768, 475, 1985, -132, -1633, -4263
0.331101, -3546, 178, 1006, 197, 408, -3426
0.331236, -3546, 178, 1006, 197, 408, -3426
0.331370, -3546, 178, 1006, 197, 408, -3426
0.331506, -3546, 178, 1006, 197, 408, -3426
0.331640, -3546, 178, 1006, 197, 408, -3426
0.331775, -3546, 178, 1006, 197, 408, -3426
0.331909, -3546, 178, 1006, 197, 408, -3426
0.332044, -3546, 178, 1006, 197, 408, -3426
0.332178, -5460, 176, 1139, 114, 1602, -197
0.332313, -5460, 176, 1139, 114, 1602, -197
0.332448, -5460, 176, 1139, 114, 1602, -197
0.332582, -5460, 176, 1139, 114, 1602, -197
0.332717, -5460, 176, 1139, 114, 1602, -197
0.332852, -5460, 176, 1139, 114, 1602, -197
0.332986, -5460, 176, 1139, 114, 1602, -197
0.333121, -3515, 478, 1627, -263, 1479, 3384
0.333256, -3515, 478, 1627, -263, 1479, 3384
0.333390, -3515, 478, 1627, -263, 1479, 3384
0.333525, -3515, 478, 1627, -263, 1479, 3384
0.333659, -3515, 478, 1627, -263, 1479, 3384
0.333794, -3515, 478, 1627, -263, 1479, 3384
0.333929, -3515, 478, 1627, -263, 1479, 3384
0.334063, -3515, 478, 1627, -263, 1479, 3384
0.334198, -395, 813, 1418, -1181, 425, 5100
0.334333, -395, 813, 1418, -1181, 425, 5100
0.334467, -395, 813, 1418, -1181, 425, 5100
0.334602, -395, 813, 1418, -1181, 425, 5100
0.334741, -395, 813, 1418, -1181, 425, 5100
0.334876, -395, 813, 1418, -1181, 425, 5100
0.335011, -395, 813, 1418, -1181, 425, 5100
0.335145, 1783, 847, 1159, -2547, -824, 4774
0.335280, 1783, 847, 1159, -2547, -824, 4774
0.335415, 1783, 847, 1159, -2547, -824, 4774
0.335550, 1783, 847, 1159, -2547, -824, 4774
0.335685, 1783, 847, 1159, -2547, -824, 4774
0.335819, 1783, 847, 1159, -2547, -824, 4774
0.335954, 1783, 847, 1159, -2547, -824, 4774
0.336088, 1783, 847, 1159, -2547, -824, 4774
0.336223, 2158, 739, 1261, -3799, -1870, 3267
0.336358, 2158, 739, 1261, -3799, -1870, 3267
0.336492, 2158, 739, 1261, -3799, -1870, 3267
0.336627, 2158, 739, 1261, -3799, -1870, 3267
0.336762, 2158, 739, 1261, -3799, -1870, 3267
0.336896, 2158, 739, 1261, -3799, -1870, 3267
0.337031, 2158, 739, 1261, -3799, -1870, 3267
0.337166, -405, 564, 2223, -4317, -2338, 2237
0.337300, -405, 564, 2223, -4317, -2338, 2237
0.337435, -405, 564, 2223, -4317, -2338, 2237
0.337570, -405, 564, 2223, -4317, -2338, 2237
0.337704, -405, 564, 2223, -4317, -2338, 2237
0.337839, -405, 564, 2223, -4317, -2338, 2237
0.337973, -405, 564, 2223, -4317, -2338, 2237
0.338108, -405, 564, 2223, -4317, -2338, 2237
0.338243, -706, 169, 3947, -3479, -2480, 2806
0.338377, -706, 169, 3947, -3479, -2480, 2806
0.338512, -706, 169, 3947, -3479, -2480, 2806
0.338647, -706, 169, 3947, -3479, -2480, 2806
0.338781, -706, 169, 3947, -3479, -2480, 2806
0.338916, -706, 169, 3947, -3479, -2480, 2806
0.339050, -706, 169, 3947, -3479, -2480, 2806
0.339185, 3124, 21, 3942, -1801, -2808, 2617
0.339320, 3124, 21, 3942, -1801, -2808, 2617
0.339455, 3124, 21, 3942, -1801, -2808, 2617
0.339589, 3124, 21, 3942, -1801, -2808, 2617
0.339724, 3124, 21, 3942, -1801, -2808, 2617
0.339859, 3124, 21, 3942, -1801, -2808, 2617
0.339993, 3124, 21, 3942, -1801, -2808, 2617
0.340128, 3124, 21, 3942, -1801, -2808, 2617
0.340263, 3513, 342, 2382, -849, -2738, 337
0.340398, 3513, 342, 2382, -849, -2738, 337
0.340532, 3513, 342, 2382, -849, -2738, 337
0.340667, 3513, 342, 2382, -849, -2738, 337
0.340801, 3513, 342, 2382, -849, -2738, 337
0.340936, 3513, 342, 2382, -849, -2738, 337
0.341071, 3513, 342, 2382, -849, -2738, 337
0.341205, 13, 544, 1419, -842, -1825, -1069
0.341340, 13, 544, 1419, -842, -1825, -1069
0.341475, 13, 544, 1419, -842, -1825, -1069
0.341609, 13, 544, 1419, -842, -1825, -1069
0.341744, 13, 544, 1419, -842, -1825, -1069
0.341879, 13, 544, 1419, -842, -1825, -1069
0.342013, 13, 544, 1419, -842, -1825, -1069
0.342148, 13, 544, 1419, -842, -1825, -1069
0.342282, -402, 197, 1308, -1035, -813, -562
0.342417, -402, 197, 1308, -1035, -813, -562
0.342552, -402, 197, 1308, -1035, -813, -562
0.342687, -402, 197, 1308, -1035, -813, -562
0.342821, -402, 197, 1308, -1035, -813, -562
0.342956, -402, 197, 1308, -1035, -813, -562
0.343091, -402, 197, 1308, -1035, -813, -562
0.343225, -402, 197, 1308, -1035, -813, -562
0.343360, 720, -13, 2008, -1055, -99, -383
0.343495, 720, -13, 2008, -1055, -99, -383
0.343630, 720, -13, 2008, -1055, -99, -383
0.343764, 720, -13, 2008, -1055, -99, -383
0.343899, 720, -13, 2008, -1055, -99, -383
0.344034, 720, -13, 2008, -1055, -99, -383
0.344168, 720, -13, 2008, -1055, -99, -383
0.344303, -1701, 684, 2471, -765, 680, -198
0.344438, -1701, 684, 2471, -765, 680, -198
0.344572, -1701, 684, 2471, -765, 680, -198
0.344707, -1701, 684, 2471, -765, 680, -198
0.344841, -1701, 684, 2471, -765, 680, -198
0.344976, -1701, 684, 2471, -765, 680, -198
0.345111, -1701, 684, 2471, -765, 680, -198
0.345245, -1701, 684, 2471, -765, 680, -198
0.345380, -4286, 1115, 2188, -525, 1217, 1858
0.345515, -4286, 1115, 2188, -525, 1217, 1858
0.345649, -4286, 1115, 2188, -525, 1217, 1858
0.345784, -4286, 1115, 2188, -525, 1217, 1858
0.345919, -4286, 1115, 2188, -525, 1217, 1858
0.346053, -4286, 1115, 2188, -525, 1217, 1858
0.346188, -4286, 1115, 2188, -525, 1217, 1858
0.346323, -2811, 554, 1966, -620, 603, 4629
0.346457, -2811, 554, 1966, -620, 603, 4629
0.346592, -2811, 554, 1966, -620, 603, 4629
0.346727, -2811, 554, 1966, -620, 603, 4629
0.346861, -2811, 554, 1966, -620, 603, 4629
0.347000, -2811, 554, 1966, -620, 603, 4629
0.347135, -2811, 554, 1966, -620, 603, 4629
0.347269, -2811, 554, 1966, -620, 603, 4629
0.347404, 694, 118, 1362, -1141, -1212, 5658
0.347539, 694, 118, 1362, -1141, -1212, 5658
0.347674, 694, 118, 1362, -1141, -1212, 5658
0.347809, 694, 118, 1362, -1141, -1212, 5658
0.347943, 694, 118, 1362, -1141, -1212, 5658
0.348078, 694, 118, 1362, -1141, -1212, 5658
0.348212, 694, 118, 1362, -1141, -1212, 5658
0.348347, 2380, 381, 916, -2185, -3131, 4634
0.348482, 2380, 381, 916, -2185, -3131, 4634
0.348616, 2380, 381, 916, -2185, -3131, 4634
0.348751, 2380, 381, 916, -2185, -3131, 4634
0.348886, 2380, 381, 916, -2185, -3131, 4634
0.349020, 2380, 381, 916, -2185, -3131, 4634
0.349155, 2380, 381, 916, -2185, -3131, 4634
0.349290, 2380, 381, 916, -2185, -3131, 4634
0.349424, 1049, 616, 2194, -2866, -4050, 3217
0.349559, 1049, 616, 2194, -2866, -4050, 3217
0.349694, 1049, 616, 2194, -2866, -4050, 3217
0.349828, 1049, 616, 2194, -2866, -4050, 3217
0.349963, 1049, 616, 2194, -2866, -4050, 3217
0.350097, 1049, 616, 2194, -2866, -4050, 3217
0.350232, 1049, 616, 2194, -2866, -4050, 3217
0.350367, -751, 333, 3495, -2228, -3808, 2953
0.350502, -751, 333, 3495, -2228, -3808, 2953
0.350636, -751, 333, 3495, -2228, -3808, 2953
0.350771, -751, 333, 3495, -2228, -3808, 2953
0.350905, -751, 333, 3495, -2228, -3808, 2953
0.351040, -751, 333, 3495, -2228, -3808, 2953
0.351175, -751, 333, 3495, -2228, -3808, 2953
0.351309, -751, 333, 3495, -2228, -3808, 2953
0.351444, -876, 185, 3125, -1035, -3202, 3666
0.351579, -876, 185, 3125, -1035, -3202, 3666
0.351713, -876, 185, 3125, -1035, -3202, 3666
0.351848, -876, 185, 3125, -1035, -3202, 3666
0.351983, -876, 185, 3125, -1035, -3202, 3666
0.352117, -876, 185, 3125, -1035, -3202, 3666
0.352252, -876, 185, 3125, -1035, -3202, 3666
0.352386, 42, 116, 2974, -209, -3020, 4259
0.352521, 42, 116, 2974, -209, -3020, 4259
0.352656, 42, 116, 2974, -209, -3020, 4259
0.352791, 42, 116, 2974, -209, -3020, 4259
0.352925, 42, 116, 2974, -209, -3020, 4259
0.353060, 42, 116, 2974, -209, -3020, 4259
0.353194, 42, 116, 2974, -209, -3020, 4259
0.353329, 42, 116, 2974, -209, -3020, 4259
0.353464, 703, 80, 3180, 504, -3088, 4255
0.353598, 703, 80, 3180, 504, -3088, 4255
0.353733, 703, 80, 3180, 504, -3088, 4255
0.353868, 703, 80, 3180, 504, -3088, 4255
0.354002, 703, 80, 3180, 504, -3088, 4255
0.354137, 703, 80, 3180, 504, -3088, 4255
0.354271, 703, 80, 3180, 504, -3088, 4255
0.354406, 1614, 89, 2258, 920, -2965, 3736
0.354541, 1614, 89, 2258, 920, -2965, 3736
0.354675, 1614, 89, 2258, 920, -2965, 3736
0.354810, 1614, 89, 2258, 920, -2965, 3736
0.354945, 1614, 89, 2258, 920, -2965, 3736
0.355079, 1614, 89, 2258, 920, -2965, 3736
0.355214, 1614, 89, 2258, 920, -2965, 3736
0.355348, 1614, 89, 2258, 920, -2965, 3736
0.355484, 3611, -128, 1381, 626, -2740, 2358
0.355618, 3611, -128, 1381, 626, -2740, 2358
0.355753, 3611, -128, 1381, 626, -2740, 2358
0.355888, 3611, -128, 1381, 626, -2740, 2358
0.356022, 3611, -128, 1381, 626, -2740, 2358
0.356157, 3611, -128, 1381, 626, -2740, 2358
0.356291, 3611, -128, 1381, 626, -2740, 2358
0.356426, 4211, 153, 1851, 337, -2256, -127
0.356561, 4211, 153, 1851, 337, -2256, -127
0.356696, 4211, 153, 1851, 337, -2256, -127
0.356830, 4211, 153, 1851, 337, -2256, -127
0.356965, 4211, 153, 1851, 337, -2256, -127
0.357099, 4211, 153, 1851, 337, -2256, -127
0.357234, 4211, 153, 1851, 337, -2256, -127
0.357369, 4211, 153, 1851, 337, -2256, -127
0.357503, 1383, 603, 2233, 641, -1042, -2177
0.357638, 1383, 603, 2233, 641, -1042, -2177
0.357773, 1383, 603, 2233, 641, -1042, -2177
0.357907, 1383, 603, 2233, 641, -1042, -2177
0.358042, 1383, 603, 2233, 641, -1042, -2177
0.358177, 1383, 603, 2233, 641, -1042, -2177
0.358311, 1383, 603, 2233, 641, -1042, -2177
0.358446, -1505, 418, 1769, 1074, 354, -2120
0.358581, -1505, 418, 1769, 1074, 354, -2120
0.358716, -1505, 418, 1769, 1074, 354, -2120
0.358850, -1505, 418, 1769, 1074, 354, -2120
0.358985, -1505, 418, 1769, 1074, 354, -2120
0.359120, -1505, 418, 1769, 1074, 354, -2120
0.359254, -1505, 418, 1769, 1074, 354, -2120
0.359395, -1505, 418, 1769, 1074, 354, -2120
0.359531, -969, 115, 1486, 1269, 789, -900
0.359666, -969, 115, 1486, 1269, 789, -900
0.359800, -969, 115, 1486, 1269, 789, -900
0.359935, -969, 115, 1486, 1269, 789, -900
0.360070, -969, 115, 1486, 1269, 789, -900
0.360204, -969, 115, 1486, 1269, 789, -900
0.360339, -969, 115, 1486, 1269, 789, -900
0.360474, 721, 122, 1741, 1237, 309, -452
0.360609, 721, 122, 1741, 1237, 309, -452
0.360743, 721, 122, 1741, 1237, 309, -452
0.360878, 721, 122, 1741, 1237, 309, -452
0.361012, 721, 122, 1741, 1237, 309, -452
0.361147, 721, 122, 1741, 1237, 309, -452
0.361282, 721, 122, 1741, 1237, 309, -452
0.361411, 721, 122, 1741, 1237, 309, -452
0.361543, 305, 373, 2485, 1203, -68, -731
0.361678, 305, 373, 2485, 1203, -68, -731
0.361812, 305, 373, 2485, 1203, -68, -731
0.361947, 305, 373, 2485, 1203, -68, -731
0.362081, 305, 373, 2485, 1203, -68, -731
0.362216, 305, 373, 2485, 1203, -68, -731
0.362350, 305, 373, 2485, 1203, -68, -731
0.362485, 305, 373, 2485, 1203, -68, -731
0.362619, -1112, 536, 3068, 1591, 37, -446
0.362754, -1112, 536, 3068, 1591, 37, -446
0.362888, -1112, 536, 3068, 1591, 37, -446
0.363024, -1112, 536, 3068, 1591, 37, -446
