Time, ax, ay, az, gx, gy, gz
0.000016, 2860, 1234, 4491, 3519, 2127, -8441
0.000180, 2860, 1234, 4491, 3519, 2127, -8441
0.000319, 2860, 1234, 4491, 3519, 2127, -8441
0.000456, 2860, 1234, 4491, 3519, 2127, -8441
0.000593, 4003, 998, 3829, 4765, 2858, -10713
0.000732, 4003, 998, 3829, 4765, 2858, -10713
0.000865, 4003, 998, 3829, 4765, 2858, -10713
0.001003, 4003, 998, 3829, 4765, 2858, -10713
0.001140, 4003, 998, 3829, 4765, 2858, -10713
0.001277, 4003, 998, 3829, 4765, 2858, -10713
0.001414, 4003, 998, 3829, 4765, 2858, -10713
0.001550, 4003, 998, 3829, 4765, 2858, -10713
0.001687, -4961, -1368, -393, 4936, 3446, -12109
0.001824, -4961, -1368, -393, 4936, 3446, -12109
0.001961, -4961, -1368, -393, 4936, 3446, -12109
0.002098, -4961, -1368, -393, 4936, 3446, -12109
0.002234, -4961, -1368, -393, 4936, 3446, -12109
0.002371, -4961, -1368, -393, 4936, 3446, -12109
0.002508, -4961, -1368, -393, 4936, 3446, -12109
0.002647, -15844, -900, -3592, 3169, 2520, -6705
0.002784, -15844, -900, -3592, 3169, 2520, -6705
0.002921, -15844, -900, -3592, 3169, 2520, -6705
0.003058, -15844, -900, -3592, 3169, 2520, -6705
0.003194, -15844, -900, -3592, 3169, 2520, -6705
0.003331, -15844, -900, -3592, 3169, 2520, -6705
0.003468, -15844, -900, -3592, 3169, 2520, -6705
0.003605, -11312, 672, 213, 1018, -54, 2826
0.003742, -11312, 672, 213, 1018, -54, 2826
0.003879, -11312, 672, 213, 1018, -54, 2826
0.004016, -11312, 672, 213, 1018, -54, 2826
0.004152, -11312, 672, 213, 1018, -54, 2826
0.004289, -11312, 672, 213, 1018, -54, 2826
0.004426, -11312, 672, 213, 1018, -54, 2826
0.004563, -11312, 672, 213, 1018, -54, 2826
0.004699, -259, 434, 3201, 173, -2318, 6968
0.004836, -259, 434, 3201, 173, -2318, 6968
0.004973, -259, 434, 3201, 173, -2318, 6968
0.005110, -259, 434, 3201, 173, -2318, 6968
0.005249, -259, 434, 3201, 173, -2318, 6968
0.005387, -259, 434, 3201, 173, -2318, 6968
0.005524, -259, 434, 3201, 173, -2318, 6968
0.005660, 1314, 71, 2311, -209, -3272, 5896
0.005797, 1314, 71, 2311, -209, -3272, 5896
0.005934, 1314, 71, 2311, -209, -3272, 5896
0.006071, 1314, 71, 2311, -209, -3272, 5896
0.006208, 1314, 71, 2311, -209, -3272, 5896
0.006347, 1314, 71, 2311, -209, -3272, 5896
0.006484, 1314, 71, 2311, -209, -3272, 5896
0.006621, 1314, 71, 2311, -209, -3272, 5896
0.006759, -622, 178, 2144, -971, -3355, 5680
0.006896, -622, 178, 2144, -971, -3355, 5680
0.007033, -622, 178, 2144, -971, -3355, 5680
0.007170, -622, 178, 2144, -971, -3355, 5680
0.007307, -622, 178, 2144, -971, -3355, 5680
0.007444, -622, 178, 2144, -971, -3355, 5680
0.007581, -622, 178, 2144, -971, -3355, 5680
0.007717, -275, 230, 2195, -1537, -3193, 6371
0.007855, -275, 230, 2195, -1537, -3193, 6371
0.007991, -275, 230, 2195, -1537, -3193, 6371
0.008128, -275, 230, 2195, -1537, -3193, 6371
0.008265, -275, 230, 2195, -1537, -3193, 6371
0.008402, -275, 230, 2195, -1537, -3193, 6371
0.008539, -275, 230, 2195, -1537, -3193, 6371
0.008676, -235, 200, 1870, -1477, -3370, 6288
0.008813, -235, 200, 1870, -1477, -3370, 6288
0.008949, -235, 200, 1870, -1477, -3370, 6288
0.009086, -235, 200, 1870, -1477, -3370, 6288
0.009223, -235, 200, 1870, -1477, -3370, 6288
0.009360, -235, 200, 1870, -1477, -3370, 6288
0.009497, -235, 200, 1870, -1477, -3370, 6288
0.009633, -235, 200, 1870, -1477, -3370, 6288
0.009770, -340, 176, 1821, -1080, -3748, 5970
0.009907, -340, 176, 1821, -1080, -3748, 5970
0.010044, -340, 176, 1821, -1080, -3748, 5970
0.010181, -340, 176, 1821, -1080, -3748, 5970
0.010318, -340, 176, 1821, -1080, -3748, 5970
0.010454, -340, 176, 1821, -1080, -3748, 5970
0.010591, -340, 176, 1821, -1080, -3748, 5970
0.010728, -178, 170, 1996, -778, -3827, 5885
0.010865, -178, 170, 1996, -778, -3827, 5885
0.011002, -178, 170, 1996, -778, -3827, 5885
0.011139, -178, 170, 1996, -778, -3827, 5885
0.011276, -178, 170, 1996, -778, -3827, 5885
0.011412, -178, 170, 1996, -778, -3827, 5885
0.011549, -178, 170, 1996, -778, -3827, 5885
0.011686, -178, 170, 1996, -778, -3827, 5885
0.011822, -118, 185, 2122, -739, -3571, 5940
0.011959, -118, 185, 2122, -739, -3571, 5940
0.012096, -118, 185, 2122, -739, -3571, 5940
0.012263, -118, 185, 2122, -739, -3571, 5940
0.012407, -118, 185, 2122, -739, -3571, 5940
0.012544, -118, 185, 2122, -739, -3571, 5940
0.012681, -118, 185, 2122, -739, -3571, 5940
0.012818, -172, 189, 2135, -835, -3056, 5966
0.012955, -172, 189, 2135, -835, -3056, 5966
0.013092, -172, 189, 2135, -835, -3056, 5966
0.013229, -172, 189, 2135, -835, -3056, 5966
0.013365, -172, 189, 2135, -835, -3056, 5966
0.013502, -172, 189, 2135, -835, -3056, 5966
0.013639, -172, 189, 2135, -835, -3056, 5966
0.013776, -198, 196, 2142, -937, -2337, 5888
0.013913, -198, 196, 2142, -937, -2337, 5888
0.014050, -198, 196, 2142, -937, -2337, 5888
0.014186, -198, 196, 2142, -937, -2337, 5888
0.014323, -198, 196, 2142, -937, -2337, 5888
0.014460, -198, 196, 2142, -937, -2337, 5888
0.014597, -198, 196, 2142, -937, -2337, 5888
0.014734, -198, 196, 2142, -937, -2337, 5888
0.014871, -202, 205, 2143, -1061, -1619, 5751
0.015008, -202, 205, 2143, -1061, -1619, 5751
0.015144, -202, 205, 2143, -1061, -1619, 5751
0.015281, -202, 205, 2143, -1061, -1619, 5751
0.015418, -202, 205, 2143, -1061, -1619, 5751
0.015555, -202, 205, 2143, -1061, -1619, 5751
0.015692, -202, 205, 2143, -1061, -1619, 5751
0.015828, -205, 198, 2112, -1208, -1194, 5618
0.015966, -205, 198, 2112, -1208, -1194, 5618
0.016103, -205, 198, 2112, -1208, -1194, 5618
0.016239, -205, 198, 2112, -1208, -1194, 5618
0.016376, -205, 198, 2112, -1208, -1194, 5618
0.016513, -205, 198, 2112, -1208, -1194, 5618
0.016650, -205, 198, 2112, -1208, -1194, 5618
0.016787, -177, 187, 2076, -1347, -1156, 5486
0.016924, -177, 187, 2076, -1347, -1156, 5486
0.017060, -177, 187, 2076, -1347, -1156, 5486
0.017197, -177, 187, 2076, -1347, -1156, 5486
0.017334, -177, 187, 2076, -1347, -1156, 5486
0.017471, -177, 187, 2076, -1347, -1156, 5486
0.017608, -177, 187, 2076, -1347, -1156, 5486
0.017744, -177, 187, 2076, -1347, -1156, 5486
0.017881, -42, 167, 2059, -1468, -1382, 5324
0.018018, -42, 167, 2059, -1468, -1382, 5324
0.018155, -42, 167, 2059, -1468, -1382, 5324
0.018292, -42, 167, 2059, -1468, -1382, 5324
0.018429, -42, 167, 2059, -1468, -1382, 5324
0.018566, -42, 167, 2059, -1468, -1382, 5324
0.018703, -42, 167, 2059, -1468, -1382, 5324
0.018840, 515, 89, 2060, -1559, -1715, 5048
0.018977, 515, 89, 2060, -1559, -1715, 5048
0.019114, 515, 89, 2060, -1559, -1715, 5048
0.019251, 515, 89, 2060, -1559, -1715, 5048
0.019388, 515, 89, 2060, -1559, -1715, 5048
0.019524, 515, 89, 2060, -1559, -1715, 5048
0.019661, 515, 89, 2060, -1559, -1715, 5048
0.019798, 515, 89, 2060, -1559, -1715, 5048
0.019935, 2399, -81, 2059, -1599, -1982, 4246
0.020072, 2399, -81, 2059, -1599, -1982, 4246
0.020209, 2399, -81, 2059, -1599, -1982, 4246
0.020346, 2399, -81, 2059, -1599, -1982, 4246
0.020482, 2399, -81, 2059, -1599, -1982, 4246
0.020619, 2399, -81, 2059, -1599, -1982, 4246
0.020756, 2399, -81, 2059, -1599, -1982, 4246
0.020893, 6149, -307, 2078, -1628, -2008, 1891
0.021030, 6149, -307, 2078, -1628, -2008, 1891
0.021167, 6149, -307, 2078, -1628, -2008, 1891
0.021303, 6149, -307, 2078, -1628, -2008, 1891
0.021440, 6149, -307, 2078, -1628, -2008, 1891
0.021577, 6149, -307, 2078, -1628, -2008, 1891
0.021714, 6149, -307, 2078, -1628, -2008, 1891
0.021851, 8917, -359, 2615, -1549, -1555, -2780
0.021988, 8917, -359, 2615, -1549, -1555, -2780
0.022125, 8917, -359, 2615, -1549, -1555, -2780
0.022261, 8917, -359, 2615, -1549, -1555, -2780
0.022398, 8917, -359, 2615, -1549, -1555, -2780
0.022535, 8917, -359, 2615, -1549, -1555, -2780
0.022672, 8917, -359, 2615, -1549, -1555, -2780
0.022809, 8917, -359, 2615, -1549, -1555, -2780
0.022946, 6003, 203, 2643, -1067, -474, -7942
0.023083, 6003, 203, 2643, -1067, -474, -7942
0.023220, 6003, 203, 2643, -1067, -474, -7942
0.023357, 6003, 203, 2643, -1067, -474, -7942
0.023493, 6003, 203, 2643, -1067, -474, -7942
0.023630, 6003, 203, 2643, -1067, -474, -7942
0.023767, 6003, 203, 2643, -1067, -474, -7942
0.023904, 479, 596, 1604, -430, 787, -10303
0.024041, 479, 596, 1604, -430, 787, -10303
0.024178, 479, 596, 1604, -430, 787, -10303
0.024314, 479, 596, 1604, -430, 787, -10303
0.024451, 479, 596, 1604, -430, 787, -10303
0.024594, 479, 596, 1604, -430, 787, -10303
0.024732, 479, 596, 1604, -430, 787, -10303
0.024869, 479, 596, 1604, -430, 787, -10303
0.025006, -685, 372, 2675, 563, 1698, -10072
0.025143, -685, 372, 2675, 563, 1698, -10072
0.025279, -685, 372, 2675, 563, 1698, -10072
0.025416, -685, 372, 2675, 563, 1698, -10072
0.025553, -685, 372, 2675, 563, 1698, -10072
0.025690, -685, 372, 2675, 563, 1698, -10072
0.025827, -685, 372, 2675, 563, 1698, -10072
0.025964, 1439, 402, 4654, 2581, 2498, -10099
0.026101, 1439, 402, 4654, 2581, 2498, -10099
0.026237, 1439, 402, 4654, 2581, 2498, -10099
0.026374, 1439, 402, 4654, 2581, 2498, -10099
0.026511, 1439, 402, 4654, 2581, 2498, -10099
0.026649, 1439, 402, 4654, 2581, 2498, -10099
0.026785, 1439, 402, 4654, 2581, 2498, -10099
0.026922, 2551, 425, 3737, 4581, 3344, -11303
0.027059, 2551, 425, 3737, 4581, 3344, -11303
0.027196, 2551, 425, 3737, 4581, 3344, -11303
0.027333, 2551, 425, 3737, 4581, 3344, -11303
0.027470, 2551, 425, 3737, 4581, 3344, -11303
0.027606, 2551, 425, 3737, 4581, 3344, -11303
0.027743, 2551, 425, 3737, 4581, 3344, -11303
0.027880, 2551, 425, 3737, 4581, 3344, -11303
0.028017, 3236, 761, 2652, 5574, 3993, -12806
0.028154, 3236, 761, 2652, 5574, 3993, -12806
0.028290, 3236, 761, 2652, 5574, 3993, -12806
0.028427, 3236, 761, 2652, 5574, 3993, -12806
0.028564, 3236, 761, 2652, 5574, 3993, -12806
0.028701, 3236, 761, 2652, 5574, 3993, -12806
0.028838, 3236, 761, 2652, 5574, 3993, -12806
0.028974, 3858, 1252, 3666, 6316, 4599, -14591
0.029111, 3858, 1252, 3666, 6316, 4599, -14591
0.029248, 3858, 1252, 3666, 6316, 4599, -14591
0.029385, 3858, 1252, 3666, 6316, 4599, -14591
0.029522, 3858, 1252, 3666, 6316, 4599, -14591
0.029659, 3858, 1252, 3666, 6316, 4599, -14591
0.029795, 3858, 1252, 3666, 6316, 4599, -14591
0.029932, 3858, 1252, 3666, 6316, 4599, -14591
0.030069, 1135, 781, 3632, 7295, 5111, -16421
0.030206, 1135, 781, 3632, 7295, 5111, -16421
0.030343, 1135, 781, 3632, 7295, 5111, -16421
0.030480, 1135, 781, 3632, 7295, 5111, -16421
0.030617, 1135, 781, 3632, 7295, 5111, -16421
0.030754, 1135, 781, 3632, 7295, 5111, -16421
0.030891, 1135, 781, 3632, 7295, 5111, -16421
0.031028, -5784, -881, 955, 7866, 5065, -15917
0.031165, -5784, -881, 955, 7866, 5065, -15917
0.031301, -5784, -881, 955, 7866, 5065, -15917
0.031438, -5784, -881, 955, 7866, 5065, -15917
0.031575, -5784, -881, 955, 7866, 5065, -15917
0.031712, -5784, -881, 955, 7866, 5065, -15917
0.031849, -5784, -881, 955, 7866, 5065, -15917
0.031985, -14922, -1697, -2996, 6730, 4341, -10515
0.032122, -14922, -1697, -2996, 6730, 4341, -10515
0.032259, -14922, -1697, -2996, 6730, 4341, -10515
0.032396, -14922, -1697, -2996, 6730, 4341, -10515
0.032533, -14922, -1697, -2996, 6730, 4341, -10515
0.032670, -14922, -1697, -2996, 6730, 4341, -10515
0.032806, -14922, -1697, -2996, 6730, 4341, -10515
0.032943, -14922, -1697, -2996, 6730, 4341, -10515
0.033080, -15808, -207, -3295, 3670, 2383, -702
0.033217, -15808, -207, -3295, 3670, 2383, -702
0.033354, -15808, -207, -3295, 3670, 2383, -702
0.033491, -15808, -207, -3295, 3670, 2383, -702
0.033628, -15808, -207, -3295, 3670, 2383, -702
0.033765, -15808, -207, -3295, 3670, 2383, -702
0.033901, -15808, -207, -3295, 3670, 2383, -702
0.034038, -5077, 608, 1562, 964, -583, 6675
0.034175, -5077, 608, 1562, 964, -583, 6675
0.034312, -5077, 608, 1562, 964, -583, 6675
0.034449, -5077, 608, 1562, 964, -583, 6675
0.034586, -5077, 608, 1562, 964, -583, 6675
0.034723, -5077, 608, 1562, 964, -583, 6675
0.034860, -5077, 608, 1562, 964, -583, 6675
0.034997, -5077, 608, 1562, 964, -583, 6675
0.035133, 1242, 218, 3529, -108, -2624, 7148
0.035270, 1242, 218, 3529, -108, -2624, 7148
0.035407, 1242, 218, 3529, -108, -2624, 7148
0.035544, 1242, 218, 3529, -108, -2624, 7148
0.035681, 1242, 218, 3529, -108, -2624, 7148
0.035818, 1242, 218, 3529, -108, -2624, 7148
0.035955, 1242, 218, 3529, -108, -2624, 7148
0.036091, -102, 240, 2177, -750, -3338, 5873
0.036228, -102, 240, 2177, -750, -3338, 5873
0.036365, -102, 240, 2177, -750, -3338, 5873
0.036502, -102, 240, 2177, -750, -3338, 5873
0.036643, -102, 240, 2177, -750, -3338, 5873
0.036781, -102, 240, 2177, -750, -3338, 5873
0.036918, -102, 240, 2177, -750, -3338, 5873
0.037055, -574, 299, 2120, -1508, -3519, 6184
0.037192, -574, 299, 2120, -1508, -3519, 6184
0.037328, -574, 299, 2120, -1508, -3519, 6184
0.037465, -574, 299, 2120, -1508, -3519, 6184
0.037602, -574, 299, 2120, -1508, -3519, 6184
0.037739, -574, 299, 2120, -1508, -3519, 6184
0.037876, -574, 299, 2120, -1508, -3519, 6184
0.038012, -574, 299, 2120, -1508, -3519, 6184
0.038149, -258, 200, 2095, -1786, -3573, 6344
0.038286, -258, 200, 2095, -1786, -3573, 6344
0.038423, -258, 200, 2095, -1786, -3573, 6344
0.038560, -258, 200, 2095, -1786, -3573, 6344
0.038697, -258, 200, 2095, -1786, -3573, 6344
0.038833, -258, 200, 2095, -1786, -3573, 6344
0.038969, -258, 200, 2095, -1786, -3573, 6344
0.039105, -360, 149, 1856, -1533, -3988, 6037
0.039242, -360, 149, 1856, -1533, -3988, 6037
0.039378, -360, 149, 1856, -1533, -3988, 6037
0.039514, -360, 149, 1856, -1533, -3988, 6037
0.039650, -360, 149, 1856, -1533, -3988, 6037
0.039786, -360, 149, 1856, -1533, -3988, 6037
0.039922, -360, 149, 1856, -1533, -3988, 6037
0.040058, -360, 149, 1856, -1533, -3988, 6037
0.040194, -191, 176, 1979, -1275, -4278, 5894
0.040330, -191, 176, 1979, -1275, -4278, 5894
0.040466, -191, 176, 1979, -1275, -4278, 5894
0.040603, -191, 176, 1979, -1275, -4278, 5894
0.040739, -191, 176, 1979, -1275, -4278, 5894
0.040875, -191, 176, 1979, -1275, -4278, 5894
0.041011, -191, 176, 1979, -1275, -4278, 5894
0.041147, 10, 208, 2157, -1246, -3823, 5915
0.041283, 10, 208, 2157, -1246, -3823, 5915
0.041419, 10, 208, 2157, -1246, -3823, 5915
0.041555, 10, 208, 2157, -1246, -3823, 5915
0.041691, 10, 208, 2157, -1246, -3823, 5915
0.041827, 10, 208, 2157, -1246, -3823, 5915
0.041963, 10, 208, 2157, -1246, -3823, 5915
0.042099, 10, 208, 2157, -1246, -3823, 5915
0.042236, 31, 235, 2226, -1392, -2794, 5932
0.042372, 31, 235, 2226, -1392, -2794, 5932
0.042508, 31, 235, 2226, -1392, -2794, 5932
0.042651, 31, 235, 2226, -1392, -2794, 5932
0.042784, 31, 235, 2226, -1392, -2794, 5932
0.042922, 31, 235, 2226, -1392, -2794, 5932
0.043059, 31, 235, 2226, -1392, -2794, 5932
0.043196, -34, 238, 2201, -1574, -1450, 5833
0.043333, -34, 238, 2201, -1574, -1450, 5833
0.043470, -34, 238, 2201, -1574, -1450, 5833
0.043606, -34, 238, 2201, -1574, -1450, 5833
0.043738, -34, 238, 2201, -1574, -1450, 5833
0.043875, -34, 238, 2201, -1574, -1450, 5833
0.044012, -34, 238, 2201, -1574, -1450, 5833
0.044149, -114, 250, 2189, -1737, -171, 5643
0.044286, -114, 250, 2189, -1737, -171, 5643
0.044423, -114, 250, 2189, -1737, -171, 5643
0.044560, -114, 250, 2189, -1737, -171, 5643
0.044696, -114, 250, 2189, -1737, -171, 5643
0.044833, -114, 250, 2189, -1737, -171, 5643
0.044970, -114, 250, 2189, -1737, -171, 5643
0.045107, -114, 250, 2189, -1737, -171, 5643
0.045244, -198, 249, 2161, -1909, 627, 5462
0.045381, -198, 249, 2161, -1909, 627, 5462
0.045518, -198, 249, 2161, -1909, 627, 5462
0.045654, -198, 249, 2161, -1909, 627, 5462
0.045791, -198, 249, 2161, -1909, 627, 5462
0.045928, -198, 249, 2161, -1909, 627, 5462
0.046065, -198, 249, 2161, -1909, 627, 5462
0.046201, -262, 231, 2101, -2072, 780, 5326
0.046339, -262, 231, 2101, -2072, 780, 5326
0.046475, -262, 231, 2101, -2072, 780, 5326
0.046612, -262, 231, 2101, -2072, 780, 5326
0.046749, -262, 231, 2101, -2072, 780, 5326
0.046886, -262, 231, 2101, -2072, 780, 5326
0.047022, -262, 231, 2101, -2072, 780, 5326
0.047159, -262, 231, 2101, -2072, 780, 5326
0.047296, -282, 219, 2065, -2208, 467, 5228
0.047433, -282, 219, 2065, -2208, 467, 5228
0.047570, -282, 219, 2065, -2208, 467, 5228
0.047707, -282, 219, 2065, -2208, 467, 5228
0.047844, -282, 219, 2065, -2208, 467, 5228
0.047980, -282, 219, 2065, -2208, 467, 5228
0.048117, -282, 219, 2065, -2208, 467, 5228
0.048254, -260, 208, 2053, -2303, -14, 5152
0.048391, -260, 208, 2053, -2303, -14, 5152
0.048528, -260, 208, 2053, -2303, -14, 5152
0.048664, -260, 208, 2053, -2303, -14, 5152
0.048801, -260, 208, 2053, -2303, -14, 5152
0.048938, -260, 208, 2053, -2303, -14, 5152
0.049075, -260, 208, 2053, -2303, -14, 5152
0.049217, -209, 193, 2044, -2354, -475, 5089
0.049355, -209, 193, 2044, -2354, -475, 5089
0.049491, -209, 193, 2044, -2354, -475, 5089
0.049628, -209, 193, 2044, -2354, -475, 5089
0.049765, -209, 193, 2044, -2354, -475, 5089
0.049902, -209, 193, 2044, -2354, -475, 5089
0.050039, -209, 193, 2044, -2354, -475, 5089
0.050176, -209, 193, 2044, -2354, -475, 5089
0.050312, -118, 181, 2047, -2371, -813, 5029
0.050450, -118, 181, 2047, -2371, -813, 5029
0.050586, -118, 181, 2047, -2371, -813, 5029
0.050724, -118, 181, 2047, -2371, -813, 5029
0.050860, -118, 181, 2047, -2371, -813, 5029
0.050997, -118, 181, 2047, -2371, -813, 5029
0.051134, -118, 181, 2047, -2371, -813, 5029
0.051271, 13, 173, 2062, -2361, -983, 4953
0.051408, 13, 173, 2062, -2361, -983, 4953
0.051545, 13, 173, 2062, -2361, -983, 4953
0.051681, 13, 173, 2062, -2361, -983, 4953
0.051818, 13, 173, 2062, -2361, -983, 4953
0.051955, 13, 173, 2062, -2361, -983, 4953
0.052092, 13, 173, 2062, -2361, -983, 4953
0.052229, 13, 173, 2062, -2361, -983, 4953
0.052365, 131, 170, 2079, -2317, -995, 4840
0.052502, 131, 170, 2079, -2317, -995, 4840
0.052639, 131, 170, 2079, -2317, -995, 4840
0.052776, 131, 170, 2079, -2317, -995, 4840
0.052913, 131, 170, 2079, -2317, -995, 4840
0.053049, 131, 170, 2079, -2317, -995, 4840
0.053186, 131, 170, 2079, -2317, -995, 4840
0.053323, 230, 165, 2092, -2243, -863, 4680
0.053460, 230, 165, 2092, -2243, -863, 4680
0.053597, 230, 165, 2092, -2243, -863, 4680
0.053732, 230, 165, 2092, -2243, -863, 4680
0.053867, 230, 165, 2092, -2243, -863, 4680
0.054002, 230, 165, 2092, -2243, -863, 4680
0.054136, 230, 165, 2092, -2243, -863, 4680
0.054271, 230, 165, 2092, -2243, -863, 4680
0.054405, 466, 145, 2100, -2154, -638, 4444
0.054540, 466, 145, 2100, -2154, -638, 4444
0.054675, 466, 145, 2100, -2154, -638, 4444
0.054809, 466, 145, 2100, -2154, -638, 4444
0.054944, 466, 145, 2100, -2154, -638, 4444
0.055078, 466, 145, 2100, -2154, -638, 4444
0.055212, 466, 145, 2100, -2154, -638, 4444
0.055347, 1066, 103, 2144, -2040, -400, 3985
0.055482, 1066, 103, 2144, -2040, -400, 3985
0.055616, 1066, 103, 2144, -2040, -400, 3985
0.055751, 1066, 103, 2144, -2040, -400, 3985
0.055886, 1066, 103, 2144, -2040, -400, 3985
0.056020, 1066, 103, 2144, -2040, -400, 3985
0.056155, 1066, 103, 2144, -2040, -400, 3985
0.056289, 1066, 103, 2144, -2040, -400, 3985
0.056424, 1804, 45, 2214, -1887, -245, 3072
0.056559, 1804, 45, 2214, -1887, -245, 3072
0.056693, 1804, 45, 2214, -1887, -245, 3072
0.056828, 1804, 45, 2214, -1887, -245, 3072
0.056962, 1804, 45, 2214, -1887, -245, 3072
0.057097, 1804, 45, 2214, -1887, -245, 3072
0.057232, 1804, 45, 2214, -1887, -245, 3072
0.057366, 2086, 55, 2194, -1718, -174, 1764
0.057501, 2086, 55, 2194, -1718, -174, 1764
0.057636, 2086, 55, 2194, -1718, -174, 1764
0.057770, 2086, 55, 2194, -1718, -174, 1764
0.057905, 2086, 55, 2194, -1718, -174, 1764
0.058039, 2086, 55, 2194, -1718, -174, 1764
0.058174, 2086, 55, 2194, -1718, -174, 1764
0.058308, 2086, 55, 2194, -1718, -174, 1764
0.058443, 2523, -27, 2577, -1454, -17, 283
0.058578, 2523, -27, 2577, -1454, -17, 283
0.058713, 2523, -27, 2577, -1454, -17, 283
0.058843, 2523, -27, 2577, -1454, -17, 283
0.058979, 2523, -27, 2577, -1454, -17, 283
0.059115, 2523, -27, 2577, -1454, -17, 283
0.059249, 2523, -27, 2577, -1454, -17, 283
0.059384, 2552, -228, 3740, -664, 330, -1459
0.059519, 2552, -228, 3740, -664, 330, -1459
0.059653, 2552, -228, 3740, -664, 330, -1459
0.059788, 2552, -228, 3740, -664, 330, -1459
0.059923, 2552, -228, 3740, -664, 330, -1459
0.060058, 2552, -228, 3740, -664, 330, -1459
0.060188, 2552, -228, 3740, -664, 330, -1459
0.060322, 2552, -228, 3740, -664, 330, -1459
0.060457, 1258, -7, 4410, 843, 693, -2939
0.060592, 1258, -7, 4410, 843, 693, -2939
0.060726, 1258, -7, 4410, 843, 693, -2939
0.060861, 1258, -7, 4410, 843, 693, -2939
0.060996, 1258, -7, 4410, 843, 693, -2939
0.061130, 1258, -7, 4410, 843, 693, -2939
0.061265, 1258, -7, 4410, 843, 693, -2939
0.061399, 2793, 682, 3871, 2526, 772, -3939
0.061534, 2793, 682, 3871, 2526, 772, -3939
0.061669, 2793, 682, 3871, 2526, 772, -3939
0.061817, 2793, 682, 3871, 2526, 772, -3939
0.061953, 2793, 682, 3871, 2526, 772, -3939
0.062088, 2793, 682, 3871, 2526, 772, -3939
0.062222, 2793, 682, 3871, 2526, 772, -3939
0.062357, 2793, 682, 3871, 2526, 772, -3939
0.062491, 7911, 1205, 3515, 3748, 695, -6881
0.062626, 7911, 1205, 3515, 3748, 695, -6881
0.062762, 7911, 1205, 3515, 3748, 695, -6881
0.062896, 7911, 1205, 3515, 3748, 695, -6881
0.063031, 7911, 1205, 3515, 3748, 695, -6881
0.063166, 7911, 1205, 3515, 3748, 695, -6881
0.063300, 7911, 1205, 3515, 3748, 695, -6881
0.063435, 7761, 654, 3778, 4744, 1277, -12395
0.063570, 7761, 654, 3778, 4744, 1277, -12395
0.063704, 7761, 654, 3778, 4744, 1277, -12395
0.063839, 7761, 654, 3778, 4744, 1277, -12395
0.063973, 7761, 654, 3778, 4744, 1277, -12395
0.064108, 7761, 654, 3778, 4744, 1277, -12395
0.064243, 7761, 654, 3778, 4744, 1277, -12395
0.064377, 7761, 654, 3778, 4744, 1277, -12395
0.064512, 1134, -677, -289, 4940, 2367, -15765
0.064647, 1134, -677, -289, 4940, 2367, -15765
0.064782, 1134, -677, -289, 4940, 2367, -15765
0.064916, 1134, -677, -289, 4940, 2367, -15765
0.065051, 1134, -677, -289, 4940, 2367, -15765
0.065185, 1134, -677, -289, 4940, 2367, -15765
0.065320, 1134, -677, -289, 4940, 2367, -15765
0.065455, -2598, -657, -4047, 2998, 2721, -15136
0.065590, -2598, -657, -4047, 2998, 2721, -15136
0.065724, -2598, -657, -4047, 2998, 2721, -15136
0.065859, -2598, -657, -4047, 2998, 2721, -15136
0.065994, -2598, -657, -4047, 2998, 2721, -15136
0.066128, -2598, -657, -4047, 2998, 2721, -15136
0.066263, -2598, -657, -4047, 2998, 2721, -15136
0.066398, -2598, -657, -4047, 2998, 2721, -15136
0.066532, -1568, 1361, 690, 1011, 2754, -13839
0.066668, -1568, 1361, 690, 1011, 2754, -13839
0.066802, -1568, 1361, 690, 1011, 2754, -13839
0.066937, -1568, 1361, 690, 1011, 2754, -13839
0.067072, -1568, 1361, 690, 1011, 2754, -13839
0.067206, -1568, 1361, 690, 1011, 2754, -13839
0.067341, -1568, 1361, 690, 1011, 2754, -13839
0.067476, -2829, 1358, 3604, 1057, 3240, -13008
0.067611, -2829, 1358, 3604, 1057, 3240, -13008
0.067745, -2829, 1358, 3604, 1057, 3240, -13008
0.067880, -2829, 1358, 3604, 1057, 3240, -13008
0.068015, -2829, 1358, 3604, 1057, 3240, -13008
0.068149, -2829, 1358, 3604, 1057, 3240, -13008
0.068284, -2829, 1358, 3604, 1057, 3240, -13008
0.068419, -2829, 1358, 3604, 1057, 3240, -13008
0.068553, -8660, -960, 1042, 1652, 3483, -10176
0.068688, -8660, -960, 1042, 1652, 3483, -10176
0.068823, -8660, -960, 1042, 1652, 3483, -10176
0.068958, -8660, -960, 1042, 1652, 3483, -10176
0.069092, -8660, -960, 1042, 1652, 3483, -10176
0.069227, -8660, -960, 1042, 1652, 3483, -10176
0.069362, -8660, -960, 1042, 1652, 3483, -10176
0.069496, -11611, -833, -30, 1320, 3028, -3708
0.069631, -11611, -833, -30, 1320, 3028, -3708
0.069766, -11611, -833, -30, 1320, 3028, -3708
0.069901, -11611, -833, -30, 1320, 3028, -3708
0.070035, -11611, -833, -30, 1320, 3028, -3708
0.070170, -11611, -833, -30, 1320, 3028, -3708
0.070305, -11611, -833, -30, 1320, 3028, -3708
0.070439, -11611, -833, -30, 1320, 3028, -3708
0.070574, -7595, 292, 1144, 210, 1630, 3087
0.070709, -7595, 292, 1144, 210, 1630, 3087
0.070844, -7595, 292, 1144, 210, 1630, 3087
0.070979, -7595, 292, 1144, 210, 1630, 3087
0.071113, -7595, 292, 1144, 210, 1630, 3087
0.071248, -7595, 292, 1144, 210, 1630, 3087
0.071383, -7595, 292, 1144, 210, 1630, 3087
0.071517, -1853, 306, 2663, -630, -519, 6158
0.071652, -1853, 306, 2663, -630, -519, 6158
0.071787, -1853, 306, 2663, -630, -519, 6158
0.071922, -1853, 306, 2663, -630, -519, 6158
0.072056, -1853, 306, 2663, -630, -519, 6158
0.072191, -1853, 306, 2663, -630, -519, 6158
0.072326, -1853, 306, 2663, -630, -519, 6158
0.072460, -1853, 306, 2663, -630, -519, 6158
0.072595, 189, 243, 2549, -1060, -2265, 6209
0.072730, 189, 243, 2549, -1060, -2265, 6209
0.072865, 189, 243, 2549, -1060, -2265, 6209
0.072999, 189, 243, 2549, -1060, -2265, 6209
0.073134, 189, 243, 2549, -1060, -2265, 6209
0.073269, 189, 243, 2549, -1060, -2265, 6209
0.073403, 189, 243, 2549, -1060, -2265, 6209
0.073538, -231, 217, 2028, -1535, -3181, 5993
0.073677, -231, 217, 2028, -1535, -3181, 5993
0.073812, -231, 217, 2028, -1535, -3181, 5993
0.073947, -231, 217, 2028, -1535, -3181, 5993
0.074082, -231, 217, 2028, -1535, -3181, 5993
0.074216, -231, 217, 2028, -1535, -3181, 5993
0.074351, -231, 217, 2028, -1535, -3181, 5993
0.074486, -231, 217, 2028, -1535, -3181, 5993
0.074620, -213, 189, 2092, -1875, -3714, 6180
0.074755, -213, 189, 2092, -1875, -3714, 6180
0.074890, -213, 189, 2092, -1875, -3714, 6180
0.075025, -213, 189, 2092, -1875, -3714, 6180
0.075159, -213, 189, 2092, -1875, -3714, 6180
0.075294, -213, 189, 2092, -1875, -3714, 6180
0.075430, -213, 189, 2092, -1875, -3714, 6180
0.075565, 1, 96, 1965, -1842, -4052, 6086
0.075700, 1, 96, 1965, -1842, -4052, 6086
0.075835, 1, 96, 1965, -1842, -4052, 6086
0.075970, 1, 96, 1965, -1842, -4052, 6086
0.076105, 1, 96, 1965, -1842, -4052, 6086
0.076239, 1, 96, 1965, -1842, -4052, 6086
0.076374, 1, 96, 1965, -1842, -4052, 6086
0.076509, 1, 96, 1965, -1842, -4052, 6086
0.076643, 327, 74, 1927, -1603, -4026, 5710
0.076778, 327, 74, 1927, -1603, -4026, 5710
0.076913, 327, 74, 1927, -1603, -4026, 5710
0.077048, 327, 74, 1927, -1603, -4026, 5710
0.077182, 327, 74, 1927, -1603, -4026, 5710
0.077317, 327, 74, 1927, -1603, -4026, 5710
0.077451, 327, 74, 1927, -1603, -4026, 5710
0.077586, 1236, 99, 2102, -1490, -3461, 5145
0.077721, 1236, 99, 2102, -1490, -3461, 5145
0.077856, 1236, 99, 2102, -1490, -3461, 5145
0.077990, 1236, 99, 2102, -1490, -3461, 5145
0.078125, 1236, 99, 2102, -1490, -3461, 5145
0.078259, 1236, 99, 2102, -1490, -3461, 5145
0.078394, 1236, 99, 2102, -1490, -3461, 5145
0.078529, 1236, 99, 2102, -1490, -3461, 5145
0.078664, 3908, 182, 2341, -1504, -2515, 3867
0.078799, 3908, 182, 2341, -1504, -2515, 3867
0.078934, 3908, 182, 2341, -1504, -2515, 3867
0.079068, 3908, 182, 2341, -1504, -2515, 3867
0.079203, 3908, 182, 2341, -1504, -2515, 3867
0.079337, 3908, 182, 2341, -1504, -2515, 3867
0.079472, 3908, 182, 2341, -1504, -2515, 3867
0.079607, 3908, 182, 2341, -1504, -2515, 3867
0.079741, 9740, 631, 2129, -1572, -1335, 247
0.079876, 9740, 631, 2129, -1572, -1335, 247
0.080011, 9740, 631, 2129, -1572, -1335, 247
0.080146, 9740, 631, 2129, -1572, -1335, 247
0.080280, 9740, 631, 2129, -1572, -1335, 247
0.080415, 9740, 631, 2129, -1572, -1335, 247
0.080550, 9740, 631, 2129, -1572, -1335, 247
0.080684, 13378, 1029, 1075, -2100, 416, -6989
0.080819, 13378, 1029, 1075, -2100, 416, -6989
0.080954, 13378, 1029, 1075, -2100, 416, -6989
0.081089, 13378, 1029, 1075, -2100, 416, -6989
0.081224, 13378, 1029, 1075, -2100, 416, -6989
0.081358, 13378, 1029, 1075, -2100, 416, -6989
0.081493, 13378, 1029, 1075, -2100, 416, -6989
0.081628, 13378, 1029, 1075, -2100, 416, -6989
0.081762, 7901, 527, 338, -3017, 2946, -14534
0.081897, 7901, 527, 338, -3017, 2946, -14534
0.082032, 7901, 527, 338, -3017, 2946, -14534
0.082167, 7901, 527, 338, -3017, 2946, -14534
0.082301, 7901, 527, 338, -3017, 2946, -14534
0.082436, 7901, 527, 338, -3017, 2946, -14534
0.082571, 7901, 527, 338, -3017, 2946, -14534
0.082706, -1934, -618, 1273, -3265, 5400, -17170
0.082841, -1934, -618, 1273, -3265, 5400, -17170
0.082975, -1934, -618, 1273, -3265, 5400, -17170
0.083110, -1934, -618, 1273, -3265, 5400, -17170
0.083245, -1934, -618, 1273, -3265, 5400, -17170
0.083379, -1934, -618, 1273, -3265, 5400, -17170
0.083514, -1934, -618, 1273, -3265, 5400, -17170
0.083649, -1934, -618, 1273, -3265, 5400, -17170
0.083783, -9342, -1228, 4239, -1529, 6727, -14127
0.083918, -9342, -1228, 4239, -1529, 6727, -14127
0.084053, -9342, -1228, 4239, -1529, 6727, -14127
0.084187, -9342, -1228, 4239, -1529, 6727, -14127
0.084322, -9342, -1228, 4239, -1529, 6727, -14127
0.084457, -9342, -1228, 4239, -1529, 6727, -14127
0.084592, -9342, -1228, 4239, -1529, 6727, -14127
0.084726, -11699, -493, 4426, 1530, 6483, -7726
0.084861, -11699, -493, 4426, 1530, 6483, -7726
0.084996, -11699, -493, 4426, 1530, 6483, -7726
0.085130, -11699, -493, 4426, 1530, 6483, -7726
0.085265, -11699, -493, 4426, 1530, 6483, -7726
0.085400, -11699, -493, 4426, 1530, 6483, -7726
0.085535, -11699, -493, 4426, 1530, 6483, -7726
0.085675, -11699, -493, 4426, 1530, 6483, -7726
0.085810, -8146, 544, 762, 2596, 4794, -1468
0.085945, -8146, 544, 762, 2596, 4794, -1468
0.086080, -8146, 544, 762, 2596, 4794, -1468
0.086215, -8146, 544, 762, 2596, 4794, -1468
0.086349, -8146, 544, 762, 2596, 4794, -1468
0.086484, -8146, 544, 762, 2596, 4794, -1468
0.086619, -8146, 544, 762, 2596, 4794, -1468
0.086754, -4075, 652, 744, 1012, 2895, 2226
0.086889, -4075, 652, 744, 1012, 2895, 2226
0.087023, -4075, 652, 744, 1012, 2895, 2226
0.087158, -4075, 652, 744, 1012, 2895, 2226
0.087293, -4075, 652, 744, 1012, 2895, 2226
0.087427, -4075, 652, 744, 1012, 2895, 2226
0.087562, -4075, 652, 744, 1012, 2895, 2226
0.087697, -4075, 652, 744, 1012, 2895, 2226
0.087831, -2379, 365, 2796, -785, 1513, 4322
0.087966, -2379, 365, 2796, -785, 1513, 4322
0.088101, -2379, 365, 2796, -785, 1513, 4322
0.088236, -2379, 365, 2796, -785, 1513, 4322
0.088370, -2379, 365, 2796, -785, 1513, 4322
0.088505, -2379, 365, 2796, -785, 1513, 4322
0.088640, -2379, 365, 2796, -785, 1513, 4322
0.088774, -913, 259, 2453, -1712, 74, 5532
0.088909, -913, 259, 2453, -1712, 74, 5532
0.089044, -913, 259, 2453, -1712, 74, 5532
0.089178, -913, 259, 2453, -1712, 74, 5532
0.089313, -913, 259, 2453, -1712, 74, 5532
0.089448, -913, 259, 2453, -1712, 74, 5532
0.089582, -913, 259, 2453, -1712, 74, 5532
0.089717, -913, 259, 2453, -1712, 74, 5532
0.089852, -134, 198, 1941, -2031, -1419, 5638
0.089986, -134, 198, 1941, -2031, -1419, 5638
0.090121, -134, 198, 1941, -2031, -1419, 5638
0.090256, -134, 198, 1941, -2031, -1419, 5638
0.090390, -134, 198, 1941, -2031, -1419, 5638
0.090525, -134, 198, 1941, -2031, -1419, 5638
0.090660, -134, 198, 1941, -2031, -1419, 5638
0.090795, -96, 120, 1975, -1966, -2686, 5411
0.090930, -96, 120, 1975, -1966, -2686, 5411
0.091064, -96, 120, 1975, -1966, -2686, 5411
0.091199, -96, 120, 1975, -1966, -2686, 5411
0.091334, -96, 120, 1975, -1966, -2686, 5411
0.091468, -96, 120, 1975, -1966, -2686, 5411
0.091603, -96, 120, 1975, -1966, -2686, 5411
0.091738, -96, 120, 1975, -1966, -2686, 5411
0.091872, 745, 143, 2072, -1686, -3734, 5202
0.092007, 745, 143, 2072, -1686, -3734, 5202
0.092142, 745, 143, 2072, -1686, -3734, 5202
0.092276, 745, 143, 2072, -1686, -3734, 5202
0.092411, 745, 143, 2072, -1686, -3734, 5202
0.092546, 745, 143, 2072, -1686, -3734, 5202
0.092680, 745, 143, 2072, -1686, -3734, 5202
0.092815, 2658, 249, 2254, -1345, -4273, 4294
0.092950, 2658, 249, 2254, -1345, -4273, 4294
0.093084, 2658, 249, 2254, -1345, -4273, 4294
0.093219, 2658, 249, 2254, -1345, -4273, 4294
0.093354, 2658, 249, 2254, -1345, -4273, 4294
0.093488, 2658, 249, 2254, -1345, -4273, 4294
0.093623, 2658, 249, 2254, -1345, -4273, 4294
0.093757, 2658, 249, 2254, -1345, -4273, 4294
0.093892, 4134, 271, 2439, -983, -3848, 2212
0.094027, 4134, 271, 2439, -983, -3848, 2212
0.094161, 4134, 271, 2439, -983, -3848, 2212
0.094296, 4134, 271, 2439, -983, -3848, 2212
0.094431, 4134, 271, 2439, -983, -3848, 2212
0.094566, 4134, 271, 2439, -983, -3848, 2212
0.094701, 4134, 271, 2439, -983, -3848, 2212
0.094835, 4676, 137, 2520, -630, -2392, -552
0.094970, 4676, 137, 2520, -630, -2392, -552
0.095105, 4676, 137, 2520, -630, -2392, -552
0.095239, 4676, 137, 2520, -630, -2392, -552
0.095374, 4676, 137, 2520, -630, -2392, -552
0.095509, 4676, 137, 2520, -630, -2392, -552
0.095643, 4676, 137, 2520, -630, -2392, -552
0.095778, 4676, 137, 2520, -630, -2392, -552
0.095913, 3895, -402, 2794, -171, -341, -3496
0.096047, 3895, -402, 2794, -171, -341, -3496
0.096182, 3895, -402, 2794, -171, -341, -3496
0.096317, 3895, -402, 2794, -171, -341, -3496
0.096451, 3895, -402, 2794, -171, -341, -3496
0.096586, 3895, -402, 2794, -171, -341, -3496
0.096721, 3895, -402, 2794, -171, -341, -3496
0.096855, 954, -873, 3575, 767, 1705, -5647
0.096990, 954, -873, 3575, 767, 1705, -5647
0.097125, 954, -873, 3575, 767, 1705, -5647
0.097260, 954, -873, 3575, 767, 1705, -5647
0.097394, 954, -873, 3575, 767, 1705, -5647
0.097529, 954, -873, 3575, 767, 1705, -5647
0.097664, 954, -873, 3575, 767, 1705, -5647
0.097798, 954, -873, 3575, 767, 1705, -5647
0.097937, -277, 43, 4657, 2499, 2932, -6105
0.098074, -277, 43, 4657, 2499, 2932, -6105
0.098209, -277, 43, 4657, 2499, 2932, -6105
0.098344, -277, 43, 4657, 2499, 2932, -6105
0.098479, -277, 43, 4657, 2499, 2932, -6105
0.098613, -277, 43, 4657, 2499, 2932, -6105
0.098748, -277, 43, 4657, 2499, 2932, -6105
0.098882, 704, 705, 4078, 4393, 3236, -6413
0.099016, 704, 705, 4078, 4393, 3236, -6413
0.099151, 704, 705, 4078, 4393, 3236, -6413
0.099285, 704, 705, 4078, 4393, 3236, -6413
0.099420, 704, 705, 4078, 4393, 3236, -6413
0.099554, 704, 705, 4078, 4393, 3236, -6413
0.099689, 704, 705, 4078, 4393, 3236, -6413
0.099823, 704, 705, 4078, 4393, 3236, -6413
0.099958, -2528, 21, 646, 4888, 3200, -6761
0.100092, -2528, 21, 646, 4888, 3200, -6761
0.100227, -2528, 21, 646, 4888, 3200, -6761
0.100361, -2528, 21, 646, 4888, 3200, -6761
0.100496, -2528, 21, 646, 4888, 3200, -6761
0.100630, -2528, 21, 646, 4888, 3200, -6761
0.100765, -2528, 21, 646, 4888, 3200, -6761
0.100899, -7150, 202, -1305, 3443, 2632, -4299
0.101034, -7150, 202, -1305, 3443, 2632, -4299
0.101168, -7150, 202, -1305, 3443, 2632, -4299
0.101303, -7150, 202, -1305, 3443, 2632, -4299
0.101437, -7150, 202, -1305, 3443, 2632, -4299
0.101572, -7150, 202, -1305, 3443, 2632, -4299
0.101706, -7150, 202, -1305, 3443, 2632, -4299
0.101841, -7150, 202, -1305, 3443, 2632, -4299
0.101975, -5187, 665, 243, 1438, 1407, -18
0.102110, -5187, 665, 243, 1438, 1407, -18
0.102244, -5187, 665, 243, 1438, 1407, -18
0.102379, -5187, 665, 243, 1438, 1407, -18
0.102513, -5187, 665, 243, 1438, 1407, -18
0.102648, -5187, 665, 243, 1438, 1407, -18
0.102777, -5187, 665, 243, 1438, 1407, -18
0.102912, -5187, 665, 243, 1438, 1407, -18
0.103047, -1343, 307, 1376, 70, 50, 2067
0.103182, -1343, 307, 1376, 70, 50, 2067
0.103316, -1343, 307, 1376, 70, 50, 2067
0.103451, -1343, 307, 1376, 70, 50, 2067
0.103586, -1343, 307, 1376, 70, 50, 2067
0.103715, -1343, 307, 1376, 70, 50, 2067
0.103850, -1343, 307, 1376, 70, 50, 2067
0.103984, -1102, 141, 1239, -863, -1018, 2436
0.104119, -1102, 141, 1239, -863, -1018, 2436
0.104254, -1102, 141, 1239, -863, -1018, 2436
0.104389, -1102, 141, 1239, -863, -1018, 2436
0.104524, -1102, 141, 1239, -863, -1018, 2436
0.104658, -1102, 141, 1239, -863, -1018, 2436
0.104793, -1102, 141, 1239, -863, -1018, 2436
0.104927, -1102, 141, 1239, -863, -1018, 2436
0.105062, -901, 266, 1614, -1613, -1589, 3217
0.105197, -901, 266, 1614, -1613, -1589, 3217
0.105332, -901, 266, 1614, -1613, -1589, 3217
0.105466, -901, 266, 1614, -1613, -1589, 3217
0.105601, -901, 266, 1614, -1613, -1589, 3217
0.105736, -901, 266, 1614, -1613, -1589, 3217
0.105872, -901, 266, 1614, -1613, -1589, 3217
0.106009, 90, 234, 1982, -1968, -1795, 3775
0.106144, 90, 234, 1982, -1968, -1795, 3775
0.106278, 90, 234, 1982, -1968, -1795, 3775
0.106413, 90, 234, 1982, -1968, -1795, 3775
0.106548, 90, 234, 1982, -1968, -1795, 3775
0.106683, 90, 234, 1982, -1968, -1795, 3775
0.106817, 90, 234, 1982, -1968, -1795, 3775
0.106952, 90, 234, 1982, -1968, -1795, 3775
0.107087, 553, 88, 1828, -1920, -1925, 3586
0.107221, 553, 88, 1828, -1920, -1925, 3586
0.107356, 553, 88, 1828, -1920, -1925, 3586
0.107491, 553, 88, 1828, -1920, -1925, 3586
0.107625, 553, 88, 1828, -1920, -1925, 3586
0.107760, 553, 88, 1828, -1920, -1925, 3586
0.107894, 553, 88, 1828, -1920, -1925, 3586
0.108029, 1176, 53, 1799, -1705, -1893, 3021
0.108164, 1176, 53, 1799, -1705, -1893, 3021
0.108298, 1176, 53, 1799, -1705, -1893, 3021
0.108433, 1176, 53, 1799, -1705, -1893, 3021
0.108567, 1176, 53, 1799, -1705, -1893, 3021
0.108703, 1176, 53, 1799, -1705, -1893, 3021
0.108839, 1176, 53, 1799, -1705, -1893, 3021
0.108974, 1176, 53, 1799, -1705, -1893, 3021
0.109109, 1845, 142, 1788, -1565, -1508, 2101
0.109245, 1845, 142, 1788, -1565, -1508, 2101
0.109381, 1845, 142, 1788, -1565, -1508, 2101
0.109516, 1845, 142, 1788, -1565, -1508, 2101
0.109655, 1845, 142, 1788, -1565, -1508, 2101
0.109799, 1845, 142, 1788, -1565, -1508, 2101
0.109935, 1845, 142, 1788, -1565, -1508, 2101
0.110080, 1927, 137, 1901, -1553, -843, 875
0.110223, 1927, 137, 1901, -1553, -843, 875
0.110381, 1927, 137, 1901, -1553, -843, 875
0.110518, 1927, 137, 1901, -1553, -843, 875
0.110655, 1927, 137, 1901, -1553, -843, 875
0.110790, 1927, 137, 1901, -1553, -843, 875
0.110924, 1927, 137, 1901, -1553, -843, 875
0.111059, 1170, 44, 2295, -1370, 50, -236
0.111194, 1170, 44, 2295, -1370, 50, -236
0.111329, 1170, 44, 2295, -1370, 50, -236
0.111463, 1170, 44, 2295, -1370, 50, -236
0.111599, 1170, 44, 2295, -1370, 50, -236
0.111734, 1170, 44, 2295, -1370, 50, -236
0.111868, 1170, 44, 2295, -1370, 50, -236
0.112003, 1170, 44, 2295, -1370, 50, -236
0.112137, 437, 85, 2268, -961, 1005, -865
0.112272, 437, 85, 2268, -961, 1005, -865
0.112406, 437, 85, 2268, -961, 1005, -865
0.112541, 437, 85, 2268, -961, 1005, -865
0.112675, 437, 85, 2268, -961, 1005, -865
0.112810, 437, 85, 2268, -961, 1005, -865
0.112944, 437, 85, 2268, -961, 1005, -865
0.113078, 928, 197, 2431, -558, 1678, -1350
0.113213, 928, 197, 2431, -558, 1678, -1350
0.113348, 928, 197, 2431, -558, 1678, -1350
0.113482, 928, 197, 2431, -558, 1678, -1350
0.113617, 928, 197, 2431, -558, 1678, -1350
0.113751, 928, 197, 2431, -558, 1678, -1350
0.113886, 928, 197, 2431, -558, 1678, -1350
0.114020, 928, 197, 2431, -558, 1678, -1350
0.114154, 1567, 341, 3196, 3, 2034, -2297
0.114289, 1567, 341, 3196, 3, 2034, -2297
0.114424, 1567, 341, 3196, 3, 2034, -2297
0.114558, 1567, 341, 3196, 3, 2034, -2297
0.114688, 1567, 341, 3196, 3, 2034, -2297
0.114818, 1567, 341, 3196, 3, 2034, -2297
0.114956, 1567, 341, 3196, 3, 2034, -2297
0.115091, 1229, 380, 3741, 905, 2205, -3377
0.115227, 1229, 380, 3741, 905, 2205, -3377
0.115362, 1229, 380, 3741, 905, 2205, -3377
0.115496, 1229, 380, 3741, 905, 2205, -3377
0.115631, 1229, 380, 3741, 905, 2205, -3377
0.115766, 1229, 380, 3741, 905, 2205, -3377
0.115900, 1229, 380, 3741, 905, 2205, -3377
0.116035, 1229, 380, 3741, 905, 2205, -3377
0.116169, 1121, 200, 3090, 1903, 2119, -4233
0.116304, 1121, 200, 3090, 1903, 2119, -4233
0.116439, 1121, 200, 3090, 1903, 2119, -4233
0.116574, 1121, 200, 3090, 1903, 2119, -4233
0.116708, 1121, 200, 3090, 1903, 2119, -4233
0.116843, 1121, 200, 3090, 1903, 2119, -4233
0.116978, 1121, 200, 3090, 1903, 2119, -4233
0.117112, 1121, 200, 3090, 1903, 2119, -4233
0.117247, -1443, 72, 805, 2110, 1983, -4734
0.117382, -1443, 72, 805, 2110, 1983, -4734
0.117517, -1443, 72, 805, 2110, 1983, -4734
0.117651, -1443, 72, 805, 2110, 1983, -4734
0.117786, -1443, 72, 805, 2110, 1983, -4734
0.117921, -1443, 72, 805, 2110, 1983, -4734
0.118056, -1443, 72, 805, 2110, 1983, -4734
0.118190, -7223, 142, -347, 1139, 1847, -2771
0.118325, -7223, 142, -347, 1139, 1847, -2771
0.118460, -7223, 142, -347, 1139, 1847, -2771
0.118595, -7223, 142, -347, 1139, 1847, -2771
0.118730, -7223, 142, -347, 1139, 1847, -2771
0.118865, -7223, 142, -347, 1139, 1847, -2771
0.118999, -7223, 142, -347, 1139, 1847, -2771
0.119134, -7223, 142, -347, 1139, 1847, -2771
0.119269, -7815, 277, 966, 68, 1092, 2120
0.119404, -7815, 277, 966, 68, 1092, 2120
0.119539, -7815, 277, 966, 68, 1092, 2120
0.119674, -7815, 277, 966, 68, 1092, 2120
0.119808, -7815, 277, 966, 68, 1092, 2120
0.119943, -7815, 277, 966, 68, 1092, 2120
0.120078, -7815, 277, 966, 68, 1092, 2120
0.120212, -2656, 273, 2205, -434, -210, 5708
0.120347, -2656, 273, 2205, -434, -210, 5708
0.120482, -2656, 273, 2205, -434, -210, 5708
0.120617, -2656, 273, 2205, -434, -210, 5708
0.120752, -2656, 273, 2205, -434, -210, 5708
0.120886, -2656, 273, 2205, -434, -210, 5708
0.121021, -2656, 273, 2205, -434, -210, 5708
0.121156, -2656, 273, 2205, -434, -210, 5708
0.121290, 211, 249, 2362, -780, -1173, 6125
0.121425, 211, 249, 2362, -780, -1173, 6125
0.121560, 211, 249, 2362, -780, -1173, 6125
0.121695, 211, 249, 2362, -780, -1173, 6125
0.121830, 211, 249, 2362, -780, -1173, 6125
0.121964, 211, 249, 2362, -780, -1173, 6125
0.122099, 211, 249, 2362, -780, -1173, 6125
0.122234, -40, 265, 2225, -1311, -1474, 5888
0.122369, -40, 265, 2225, -1311, -1474, 5888
0.122503, -40, 265, 2225, -1311, -1474, 5888
0.122645, -40, 265, 2225, -1311, -1474, 5888
0.122780, -40, 265, 2225, -1311, -1474, 5888
0.122915, -40, 265, 2225, -1311, -1474, 5888
0.123059, -40, 265, 2225, -1311, -1474, 5888
0.123194, -40, 265, 2225, -1311, -1474, 5888
0.123329, -282, 214, 2126, -1775, -1505, 6117
0.123464, -282, 214, 2126, -1775, -1505, 6117
0.123599, -282, 214, 2126, -1775, -1505, 6117
0.123734, -282, 214, 2126, -1775, -1505, 6117
0.123868, -282, 214, 2126, -1775, -1505, 6117
0.124003, -282, 214, 2126, -1775, -1505, 6117
0.124137, -282, 214, 2126, -1775, -1505, 6117
0.124272, -184, 151, 2000, -1844, -1658, 6128
0.124407, -184, 151, 2000, -1844, -1658, 6128
0.124542, -184, 151, 2000, -1844, -1658, 6128
0.124676, -184, 151, 2000, -1844, -1658, 6128
0.124811, -184, 151, 2000, -1844, -1658, 6128
0.124946, -184, 151, 2000, -1844, -1658, 6128
0.125080, -184, 151, 2000, -1844, -1658, 6128
0.125215, -184, 151, 2000, -1844, -1658, 6128
0.125350, -85, 124, 1938, -1640, -1933, 5849
0.125485, -85, 124, 1938, -1640, -1933, 5849
0.125619, -85, 124, 1938, -1640, -1933, 5849
0.125754, -85, 124, 1938, -1640, -1933, 5849
0.125889, -85, 124, 1938, -1640, -1933, 5849
0.126023, -85, 124, 1938, -1640, -1933, 5849
0.126158, -85, 124, 1938, -1640, -1933, 5849
0.126292, 300, 134, 2007, -1460, -2096, 5540
0.126427, 300, 134, 2007, -1460, -2096, 5540
0.126562, 300, 134, 2007, -1460, -2096, 5540
0.126697, 300, 134, 2007, -1460, -2096, 5540
0.126832, 300, 134, 2007, -1460, -2096, 5540
0.126966, 300, 134, 2007, -1460, -2096, 5540
0.127101, 300, 134, 2007, -1460, -2096, 5540
0.127236, 300, 134, 2007, -1460, -2096, 5540
0.127370, 927, 140, 2098, -1429, -1990, 5090
0.127505, 927, 140, 2098, -1429, -1990, 5090
0.127640, 927, 140, 2098, -1429, -1990, 5090
0.127774, 927, 140, 2098, -1429, -1990, 5090
0.127909, 927, 140, 2098, -1429, -1990, 5090
0.128044, 927, 140, 2098, -1429, -1990, 5090
0.128178, 927, 140, 2098, -1429, -1990, 5090
0.128313, 1615, 120, 2183, -1452, -1563, 4267
0.128448, 1615, 120, 2183, -1452, -1563, 4267
0.128582, 1615, 120, 2183, -1452, -1563, 4267
0.128717, 1615, 120, 2183, -1452, -1563, 4267
0.128852, 1615, 120, 2183, -1452, -1563, 4267
0.128986, 1615, 120, 2183, -1452, -1563, 4267
0.129121, 1615, 120, 2183, -1452, -1563, 4267
0.129256, 1615, 120, 2183, -1452, -1563, 4267
0.129390, 2909, 160, 2161, -1425, -879, 2896
0.129525, 2909, 160, 2161, -1425, -879, 2896
0.129660, 2909, 160, 2161, -1425, -879, 2896
0.129794, 2909, 160, 2161, -1425, -879, 2896
0.129929, 2909, 160, 2161, -1425, -879, 2896
0.130064, 2909, 160, 2161, -1425, -879, 2896
0.130198, 2909, 160, 2161, -1425, -879, 2896
0.130333, 5768, 398, 1717, -1470, -171, 414
0.130468, 5768, 398, 1717, -1470, -171, 414
0.130602, 5768, 398, 1717, -1470, -171, 414
0.130738, 5768, 398, 1717, -1470, -171, 414
0.130873, 5768, 398, 1717, -1470, -171, 414
0.131007, 5768, 398, 1717, -1470, -171, 414
0.131142, 5768, 398, 1717, -1470, -171, 414
0.131276, 5768, 398, 1717, -1470, -171, 414
0.131411, 8201, 459, 1214, -1848, 609, -3890
0.131546, 8201, 459, 1214, -1848, 609, -3890
0.131680, 8201, 459, 1214, -1848, 609, -3890
0.131815, 8201, 459, 1214, -1848, 609, -3890
0.131950, 8201, 459, 1214, -1848, 609, -3890
0.132084, 8201, 459, 1214, -1848, 609, -3890
0.132219, 8201, 459, 1214, -1848, 609, -3890
0.132354, 6658, 350, 1809, -2106, 1830, -8800
0.132488, 6658, 350, 1809, -2106, 1830, -8800
0.132623, 6658, 350, 1809, -2106, 1830, -8800
0.132758, 6658, 350, 1809, -2106, 1830, -8800
0.132893, 6658, 350, 1809, -2106, 1830, -8800
0.133027, 6658, 350, 1809, -2106, 1830, -8800
0.133162, 6658, 350, 1809, -2106, 1830, -8800
0.133296, 6658, 350, 1809, -2106, 1830, -8800
0.133431, 3662, 676, 3298, -1302, 3180, -12091
0.133566, 3662, 676, 3298, -1302, 3180, -12091
0.133701, 3662, 676, 3298, -1302, 3180, -12091
0.133835, 3662, 676, 3298, -1302, 3180, -12091
0.133970, 3662, 676, 3298, -1302, 3180, -12091
0.134105, 3662, 676, 3298, -1302, 3180, -12091
0.134239, 3662, 676, 3298, -1302, 3180, -12091
0.134374, 837, 97, 3159, 473, 4161, -13702
0.134509, 837, 97, 3159, 473, 4161, -13702
0.134644, 837, 97, 3159, 473, 4161, -13702
0.134779, 837, 97, 3159, 473, 4161, -13702
0.134914, 837, 97, 3159, 473, 4161, -13702
0.135048, 837, 97, 3159, 473, 4161, -13702
0.135188, 837, 97, 3159, 473, 4161, -13702
0.135323, 837, 97, 3159, 473, 4161, -13702
0.135457, -3675, -1160, 1130, 2082, 4455, -13483
0.135592, -3675, -1160, 1130, 2082, 4455, -13483
0.135727, -3675, -1160, 1130, 2082, 4455, -13483
0.135862, -3675, -1160, 1130, 2082, 4455, -13483
0.135996, -3675, -1160, 1130, 2082, 4455, -13483
0.136131, -3675, -1160, 1130, 2082, 4455, -13483
0.136266, -3675, -1160, 1130, 2082, 4455, -13483
0.136400, -6116, -882, 1767, 3115, 3668, -10722
0.136535, -6116, -882, 1767, 3115, 3668, -10722
0.136670, -6116, -882, 1767, 3115, 3668, -10722
0.136804, -6116, -882, 1767, 3115, 3668, -10722
0.136939, -6116, -882, 1767, 3115, 3668, -10722
0.137074, -6116, -882, 1767, 3115, 3668, -10722
0.137209, -6116, -882, 1767, 3115, 3668, -10722
0.137343, -6116, -882, 1767, 3115, 3668, -10722
0.137478, -4049, 74, 4020, 4115, 2540, -7238
0.137613, -4049, 74, 4020, 4115, 2540, -7238
0.137748, -4049, 74, 4020, 4115, 2540, -7238
0.137882, -4049, 74, 4020, 4115, 2540, -7238
0.138017, -4049, 74, 4020, 4115, 2540, -7238
0.138152, -4049, 74, 4020, 4115, 2540, -7238
0.138286, -4049, 74, 4020, 4115, 2540, -7238
0.138421, -1256, 427, 3031, 4620, 1827, -5291
0.138556, -1256, 427, 3031, 4620, 1827, -5291
0.138691, -1256, 427, 3031, 4620, 1827, -5291
0.138826, -1256, 427, 3031, 4620, 1827, -5291
0.138960, -1256, 427, 3031, 4620, 1827, -5291
0.139095, -1256, 427, 3031, 4620, 1827, -5291
0.139230, -1256, 427, 3031, 4620, 1827, -5291
0.139364, -1256, 427, 3031, 4620, 1827, -5291
0.139499, -1089, 368, 1645, 4162, 1372, -4557
0.139634, -1089, 368, 1645, 4162, 1372, -4557
0.139768, -1089, 368, 1645, 4162, 1372, -4557
0.139903, -1089, 368, 1645, 4162, 1372, -4557
0.140037, -1089, 368, 1645, 4162, 1372, -4557
0.140172, -1089, 368, 1645, 4162, 1372, -4557
0.140307, -1089, 368, 1645, 4162, 1372, -4557
0.140441, -1078, 406, 1685, 3451, 934, -3805
0.140578, -1078, 406, 1685, 3451, 934, -3805
0.140712, -1078, 406, 1685, 3451, 934, -3805
0.140847, -1078, 406, 1685, 3451, 934, -3805
0.140982, -1078, 406, 1685, 3451, 934, -3805
0.141116, -1078, 406, 1685, 3451, 934, -3805
0.141251, -1078, 406, 1685, 3451, 934, -3805
0.141385, -1078, 406, 1685, 3451, 934, -3805
0.141520, 546, 643, 2097, 3048, 229, -3529
0.141655, 546, 643, 2097, 3048, 229, -3529
0.141790, 546, 643, 2097, 3048, 229, -3529
0.141924, 546, 643, 2097, 3048, 229, -3529
0.142059, 546, 643, 2097, 3048, 229, -3529
0.142194, 546, 643, 2097, 3048, 229, -3529
0.142328, 546, 643, 2097, 3048, 229, -3529
0.142463, 771, 562, 3227, 3381, -456, -4160
0.142598, 771, 562, 3227, 3381, -456, -4160
0.142733, 771, 562, 3227, 3381, -456, -4160
0.142868, 771, 562, 3227, 3381, -456, -4160
0.143002, 771, 562, 3227, 3381, -456, -4160
0.143137, 771, 562, 3227, 3381, -456, -4160
0.143272, 771, 562, 3227, 3381, -456, -4160
0.143406, 771, 562, 3227, 3381, -456, -4160
0.143541, -932, 110, 2367, 4122, -799, -4473
0.143676, -932, 110, 2367, 4122, -799, -4473
0.143810, -932, 110, 2367, 4122, -799, -4473
0.143945, -932, 110, 2367, 4122, -799, -4473
0.144080, -932, 110, 2367, 4122, -799, -4473
0.144214, -932, 110, 2367, 4122, -799, -4473
0.144349, -932, 110, 2367, 4122, -799, -4473
0.144484, -932, 110, 2367, 4122, -799, -4473
0.144618, -1885, 223, 279, 4108, -1049, -3666
0.144753, -1885, 223, 279, 4108, -1049, -3666
0.144888, -1885, 223, 279, 4108, -1049, -3666
0.145022, -1885, 223, 279, 4108, -1049, -3666
0.145157, -1885, 223, 279, 4108, -1049, -3666
0.145292, -1885, 223, 279, 4108, -1049, -3666
0.145426, -1885, 223, 279, 4108, -1049, -3666
0.145561, -1679, 394, 1315, 3422, -1074, -2587
0.145696, -1679, 394, 1315, 3422, -1074, -2587
0.145830, -1679, 394, 1315, 3422, -1074, -2587
0.145965, -1679, 394, 1315, 3422, -1074, -2587
0.146100, -1679, 394, 1315, 3422, -1074, -2587
0.146234, -1679, 394, 1315, 3422, -1074, -2587
0.146369, -1679, 394, 1315, 3422, -1074, -2587
0.146504, -1679, 394, 1315, 3422, -1074, -2587
0.146642, -3004, -307, 2441, 3052, -732, -1507
0.146780, -3004, -307, 2441, 3052, -732, -1507
0.146914, -3004, -307, 2441, 3052, -732, -1507
0.147049, -3004, -307, 2441, 3052, -732, -1507
0.147184, -3004, -307, 2441, 3052, -732, -1507
0.147323, -3004, -307, 2441, 3052, -732, -1507
0.147458, -3004, -307, 2441, 3052, -732, -1507
0.147593, -4968, -458, 916, 2664, -575, 559
0.147727, -4968, -458, 916, 2664, -575, 559
0.147862, -4968, -458, 916, 2664, -575, 559
0.147997, -4968, -458, 916, 2664, -575, 559
0.148132, -4968, -458, 916, 2664, -575, 559
0.148266, -4968, -458, 916, 2664, -575, 559
0.148401, -4968, -458, 916, 2664, -575, 559
0.148535, -4968, -458, 916, 2664, -575, 559
0.148670, -4750, 110, 596, 1551, -780, 3342
0.148805, -4750, 110, 596, 1551, -780, 3342
0.148939, -4750, 110, 596, 1551, -780, 3342
0.149074, -4750, 110, 596, 1551, -780, 3342
0.149209, -4750, 110, 596, 1551, -780, 3342
0.149343, -4750, 110, 596, 1551, -780, 3342
0.149478, -4750, 110, 596, 1551, -780, 3342
0.149613, -2576, 281, 1909, 358, -1140, 5462
0.149747, -2576, 281, 1909, 358, -1140, 5462
0.149882, -2576, 281, 1909, 358, -1140, 5462
0.150017, -2576, 281, 1909, 358, -1140, 5462
0.150152, -2576, 281, 1909, 358, -1140, 5462
0.150286, -2576, 281, 1909, 358, -1140, 5462
0.150421, -2576, 281, 1909, 358, -1140, 5462
0.150555, -2576, 281, 1909, 358, -1140, 5462
0.150691, -297, 214, 2455, -307, -1681, 6058
0.150826, -297, 214, 2455, -307, -1681, 6058
0.150960, -297, 214, 2455, -307, -1681, 6058
0.151095, -297, 214, 2455, -307, -1681, 6058
0.151229, -297, 214, 2455, -307, -1681, 6058
0.151364, -297, 214, 2455, -307, -1681, 6058
0.151499, -297, 214, 2455, -307, -1681, 6058
0.151634, 430, 203, 2360, -629, -2154, 5587
0.151768, 430, 203, 2360, -629, -2154, 5587
0.151903, 430, 203, 2360, -629, -2154, 5587
0.152038, 430, 203, 2360, -629, -2154, 5587
0.152172, 430, 203, 2360, -629, -2154, 5587
0.152307, 430, 203, 2360, -629, -2154, 5587
0.152441, 430, 203, 2360, -629, -2154, 5587
0.152576, 430, 203, 2360, -629, -2154, 5587
0.152711, 532, 184, 2380, -746, -2422, 5040
0.152846, 532, 184, 2380, -746, -2422, 5040
0.152980, 532, 184, 2380, -746, -2422, 5040
0.153115, 532, 184, 2380, -746, -2422, 5040
0.153249, 532, 184, 2380, -746, -2422, 5040
0.153384, 532, 184, 2380, -746, -2422, 5040
0.153519, 532, 184, 2380, -746, -2422, 5040
0.153653, 1191, 184, 2573, -583, -2570, 4401
0.153788, 1191, 184, 2573, -583, -2570, 4401
0.153923, 1191, 184, 2573, -583, -2570, 4401
0.154057, 1191, 184, 2573, -583, -2570, 4401
0.154192, 1191, 184, 2573, -583, -2570, 4401
0.154327, 1191, 184, 2573, -583, -2570, 4401
0.154461, 1191, 184, 2573, -583, -2570, 4401
0.154596, 1191, 184, 2573, -583, -2570, 4401
0.154731, 1422, 148, 2399, -216, -2447, 3384
0.154865, 1422, 148, 2399, -216, -2447, 3384
0.154999, 1422, 148, 2399, -216, -2447, 3384
0.155133, 1422, 148, 2399, -216, -2447, 3384
0.155267, 1422, 148, 2399, -216, -2447, 3384
0.155401, 1422, 148, 2399, -216, -2447, 3384
0.155535, 1422, 148, 2399, -216, -2447, 3384
0.155669, 1396, 144, 1849, -14, -1933, 2390
0.155803, 1396, 144, 1849, -14, -1933, 2390
0.155937, 1396, 144, 1849, -14, -1933, 2390
0.156071, 1396, 144, 1849, -14, -1933, 2390
0.156205, 1396, 144, 1849, -14, -1933, 2390
0.156339, 1396, 144, 1849, -14, -1933, 2390
0.156473, 1396, 144, 1849, -14, -1933, 2390
0.156607, 1396, 144, 1849, -14, -1933, 2390
0.156741, 2644, 422, 1855, -72, -1119, 1272
0.156875, 2644, 422, 1855, -72, -1119, 1272
0.157009, 2644, 422, 1855, -72, -1119, 1272
0.157143, 2644, 422, 1855, -72, -1119, 1272
0.157276, 2644, 422, 1855, -72, -1119, 1272
0.157410, 2644, 422, 1855, -72, -1119, 1272
0.157544, 2644, 422, 1855, -72, -1119, 1272
0.157678, 3746, 663, 1848, -170, -60, -690
0.157812, 3746, 663, 1848, -170, -60, -690
0.157946, 3746, 663, 1848, -170, -60, -690
0.158080, 3746, 663, 1848, -170, -60, -690
0.158214, 3746, 663, 1848, -170, -60, -690
0.158348, 3746, 663, 1848, -170, -60, -690
0.158482, 3746, 663, 1848, -170, -60, -690
0.158616, 3746, 663, 1848, -170, -60, -690
0.158751, 2420, 345, 1154, -398, 1200, -2874
0.158885, 2420, 345, 1154, -398, 1200, -2874
0.159019, 2420, 345, 1154, -398, 1200, -2874
0.159154, 2420, 345, 1154, -398, 1200, -2874
0.159288, 2420, 345, 1154, -398, 1200, -2874
0.159423, 2420, 345, 1154, -398, 1200, -2874
0.159557, 2420, 345, 1154, -398, 1200, -2874
0.159699, 417, 160, 1038, -709, 2407, -3813
0.159834, 417, 160, 1038, -709, 2407, -3813
0.159969, 417, 160, 1038, -709, 2407, -3813
0.160104, 417, 160, 1038, -709, 2407, -3813
0.160238, 417, 160, 1038, -709, 2407, -3813
0.160373, 417, 160, 1038, -709, 2407, -3813
0.160507, 417, 160, 1038, -709, 2407, -3813
0.160642, 417, 160, 1038, -709, 2407, -3813
0.160776, 2069, 832, 1573, -787, 3141, -4157
0.160911, 2069, 832, 1573, -787, 3141, -4157
0.161045, 2069, 832, 1573, -787, 3141, -4157
0.161180, 2069, 832, 1573, -787, 3141, -4157
0.161314, 2069, 832, 1573, -787, 3141, -4157
0.161449, 2069, 832, 1573, -787, 3141, -4157
0.161583, 2069, 832, 1573, -787, 3141, -4157
0.161717, 4550, 790, 2047, -739, 3461, -6205
0.161852, 4550, 790, 2047, -739, 3461, -6205
0.161986, 4550, 790, 2047, -739, 3461, -6205
0.162121, 4550, 790, 2047, -739, 3461, -6205
0.162255, 4550, 790, 2047, -739, 3461, -6205
0.162389, 4550, 790, 2047, -739, 3461, -6205
0.162524, 4550, 790, 2047, -739, 3461, -6205
0.162661, 4550, 790, 2047, -739, 3461, -6205
0.162796, 525, -551, 2781, -363, 3924, -8610
0.162931, 525, -551, 2781, -363, 3924, -8610
0.163065, 525, -551, 2781, -363, 3924, -8610
0.163199, 525, -551, 2781, -363, 3924, -8610
0.163334, 525, -551, 2781, -363, 3924, -8610
0.163468, 525, -551, 2781, -363, 3924, -8610
0.163603, 525, -551, 2781, -363, 3924, -8610
0.163737, 525, -551, 2781, -363, 3924, -8610
0.163872, -8072, -1079, 3113, 746, 4381, -7119
0.164006, -8072, -1079, 3113, 746, 4381, -7119
0.164141, -8072, -1079, 3113, 746, 4381, -7119
0.164276, -8072, -1079, 3113, 746, 4381, -7119
0.164410, -8072, -1079, 3113, 746, 4381, -7119
0.164545, -8072, -1079, 3113, 746, 4381, -7119
0.164679, -8072, -1079, 3113, 746, 4381, -7119
0.164814, -12019, -443, 1653, 1657, 3813, -930
0.164948, -12019, -443, 1653, 1657, 3813, -930
0.165083, -12019, -443, 1653, 1657, 3813, -930
0.165217, -12019, -443, 1653, 1657, 3813, -930
0.165352, -12019, -443, 1653, 1657, 3813, -930
0.165487, -12019, -443, 1653, 1657, 3813, -930
0.165621, -12019, -443, 1653, 1657, 3813, -930
0.165756, -12019, -443, 1653, 1657, 3813, -930
0.165890, -6362, 127, 737, 1404, 1614, 5185
0.166025, -6362, 127, 737, 1404, 1614, 5185
0.166159, -6362, 127, 737, 1404, 1614, 5185
0.166294, -6362, 127, 737, 1404, 1614, 5185
0.166429, -6362, 127, 737, 1404, 1614, 5185
0.166563, -6362, 127, 737, 1404, 1614, 5185
0.166699, -6362, 127, 737, 1404, 1614, 5185
0.166833, 224, 366, 2178, 461, -696, 6738
0.166968, 224, 366, 2178, 461, -696, 6738
0.167103, 224, 366, 2178, 461, -696, 6738
0.167237, 224, 366, 2178, 461, -696, 6738
0.167372, 224, 366, 2178, 461, -696, 6738
0.167507, 224, 366, 2178, 461, -696, 6738
0.167641, 224, 366, 2178, 461, -696, 6738
0.167776, 224, 366, 2178, 461, -696, 6738
0.167910, 410, 350, 2750, -484, -1734, 6004
0.168045, 410, 350, 2750, -484, -1734, 6004
0.168180, 410, 350, 2750, -484, -1734, 6004
0.168315, 410, 350, 2750, -484, -1734, 6004
0.168449, 410, 350, 2750, -484, -1734, 6004
0.168584, 410, 350, 2750, -484, -1734, 6004
0.168719, 410, 350, 2750, -484, -1734, 6004
0.168853, -589, 233, 2090, -1190, -2286, 6180
0.168988, -589, 233, 2090, -1190, -2286, 6180
0.169123, -589, 233, 2090, -1190, -2286, 6180
0.169257, -589, 233, 2090, -1190, -2286, 6180
0.169392, -589, 233, 2090, -1190, -2286, 6180
0.169527, -589, 233, 2090, -1190, -2286, 6180
0.169661, -589, 233, 2090, -1190, -2286, 6180
0.169796, -589, 233, 2090, -1190, -2286, 6180
0.169931, -306, 158, 1925, -1427, -2758, 6437
0.170065, -306, 158, 1925, -1427, -2758, 6437
0.170200, -306, 158, 1925, -1427, -2758, 6437
0.170335, -306, 158, 1925, -1427, -2758, 6437
0.170469, -306, 158, 1925, -1427, -2758, 6437
0.170604, -306, 158, 1925, -1427, -2758, 6437
0.170739, -306, 158, 1925, -1427, -2758, 6437
0.170874, -261, 123, 1918, -1206, -3083, 6184
0.171009, -261, 123, 1918, -1206, -3083, 6184
0.171144, -261, 123, 1918, -1206, -3083, 6184
0.171278, -261, 123, 1918, -1206, -3083, 6184
0.171413, -261, 123, 1918, -1206, -3083, 6184
0.171547, -261, 123, 1918, -1206, -3083, 6184
0.171682, -261, 123, 1918, -1206, -3083, 6184
0.171817, -261, 123, 1918, -1206, -3083, 6184
0.171956, -178, 143, 1975, -937, -3316, 5998
0.172093, -178, 143, 1975, -937, -3316, 5998
0.172228, -178, 143, 1975, -937, -3316, 5998
0.172363, -178, 143, 1975, -937, -3316, 5998
0.172497, -178, 143, 1975, -937, -3316, 5998
0.172632, -178, 143, 1975, -937, -3316, 5998
0.172767, -178, 143, 1975, -937, -3316, 5998
0.172901, 19, 174, 2081, -863, -3164, 5962
0.173036, 19, 174, 2081, -863, -3164, 5962
0.173171, 19, 174, 2081, -863, -3164, 5962
0.173305, 19, 174, 2081, -863, -3164, 5962
0.173440, 19, 174, 2081, -863, -3164, 5962
0.173575, 19, 174, 2081, -863, -3164, 5962
0.173709, 19, 174, 2081, -863, -3164, 5962
0.173844, 19, 174, 2081, -863, -3164, 5962
0.173979, 133, 200, 2156, -917, -2587, 5870
0.174114, 133, 200, 2156, -917, -2587, 5870
0.174248, 133, 200, 2156, -917, -2587, 5870
0.174383, 133, 200, 2156, -917, -2587, 5870
0.174518, 133, 200, 2156, -917, -2587, 5870
0.174653, 133, 200, 2156, -917, -2587, 5870
0.174788, 133, 200, 2156, -917, -2587, 5870
0.174922, 213, 216, 2197, -1007, -1747, 5619
0.175057, 213, 216, 2197, -1007, -1747, 5619
0.175192, 213, 216, 2197, -1007, -1747, 5619
0.175327, 213, 216, 2197, -1007, -1747, 5619
0.175461, 213, 216, 2197, -1007, -1747, 5619
0.175596, 213, 216, 2197, -1007, -1747, 5619
0.175731, 213, 216, 2197, -1007, -1747, 5619
0.175865, 213, 216, 2197, -1007, -1747, 5619
0.176000, 128, 215, 2177, -1091, -834, 5241
0.176135, 128, 215, 2177, -1091, -834, 5241
0.176270, 128, 215, 2177, -1091, -834, 5241
0.176404, 128, 215, 2177, -1091, -834, 5241
0.176539, 128, 215, 2177, -1091, -834, 5241
0.176674, 128, 215, 2177, -1091, -834, 5241
0.176808, 128, 215, 2177, -1091, -834, 5241
0.176943, -108, 209, 2138, -1177, -104, 4919
0.177078, -108, 209, 2138, -1177, -104, 4919
0.177212, -108, 209, 2138, -1177, -104, 4919
0.177347, -108, 209, 2138, -1177, -104, 4919
0.177482, -108, 209, 2138, -1177, -104, 4919
0.177616, -108, 209, 2138, -1177, -104, 4919
0.177751, -108, 209, 2138, -1177, -104, 4919
0.177886, -108, 209, 2138, -1177, -104, 4919
0.178020, 64, 197, 2146, -1265, 189, 4694
0.178155, 64, 197, 2146, -1265, 189, 4694
0.178290, 64, 197, 2146, -1265, 189, 4694
0.178425, 64, 197, 2146, -1265, 189, 4694
0.178559, 64, 197, 2146, -1265, 189, 4694
0.178694, 64, 197, 2146, -1265, 189, 4694
0.178829, 64, 197, 2146, -1265, 189, 4694
0.178964, 915, 179, 2236, -1309, 56, 4220
0.179099, 915, 179, 2236, -1309, 56, 4220
0.179233, 915, 179, 2236, -1309, 56, 4220
0.179368, 915, 179, 2236, -1309, 56, 4220
0.179502, 915, 179, 2236, -1309, 56, 4220
0.179637, 915, 179, 2236, -1309, 56, 4220
0.179771, 915, 179, 2236, -1309, 56, 4220
0.179906, 915, 179, 2236, -1309, 56, 4220
0.180040, 1806, 143, 2299, -1285, -143, 3209
0.180175, 1806, 143, 2299, -1285, -143, 3209
0.180309, 1806, 143, 2299, -1285, -143, 3209
0.180444, 1806, 143, 2299, -1285, -143, 3209
0.180578, 1806, 143, 2299, -1285, -143, 3209
0.180713, 1806, 143, 2299, -1285, -143, 3209
0.180847, 1806, 143, 2299, -1285, -143, 3209
0.180982, 2681, 93, 2439, -1136, -227, 1755
0.181117, 2681, 93, 2439, -1136, -227, 1755
0.181251, 2681, 93, 2439, -1136, -227, 1755
0.181386, 2681, 93, 2439, -1136, -227, 1755
0.181520, 2681, 93, 2439, -1136, -227, 1755
0.181655, 2681, 93, 2439, -1136, -227, 1755
0.181789, 2681, 93, 2439, -1136, -227, 1755
0.181924, 2681, 93, 2439, -1136, -227, 1755
0.182058, 5149, -4, 2846, -684, -280, -474
0.182193, 5149, -4, 2846, -684, -280, -474
0.182327, 5149, -4, 2846, -684, -280, -474
0.182462, 5149, -4, 2846, -684, -280, -474
0.182596, 5149, -4, 2846, -684, -280, -474
0.182731, 5149, -4, 2846, -684, -280, -474
0.182866, 5149, -4, 2846, -684, -280, -474
0.183000, 5149, -4, 2846, -684, -280, -474
0.183135, 7298, -106, 2618, -18, -81, -4289
0.183270, 7298, -106, 2618, -18, -81, -4289
0.183405, 7298, -106, 2618, -18, -81, -4289
0.183539, 7298, -106, 2618, -18, -81, -4289
0.183674, 7298, -106, 2618, -18, -81, -4289
0.183809, 7298, -106, 2618, -18, -81, -4289
0.183943, 7298, -106, 2618, -18, -81, -4289
0.184078, 5500, 75, 2536, 718, 713, -8618
0.184213, 5500, 75, 2536, 718, 713, -8618
0.184348, 5500, 75, 2536, 718, 713, -8618
0.184486, 5500, 75, 2536, 718, 713, -8618
0.184621, 5500, 75, 2536, 718, 713, -8618
0.184756, 5500, 75, 2536, 718, 713, -8618
0.184891, 5500, 75, 2536, 718, 713, -8618
0.185025, 5500, 75, 2536, 718, 713, -8618
0.185160, 1771, 577, 3407, 1941, 1941, -11122
0.185295, 1771, 577, 3407, 1941, 1941, -11122
0.185430, 1771, 577, 3407, 1941, 1941, -11122
0.185564, 1771, 577, 3407, 1941, 1941, -11122
0.185699, 1771, 577, 3407, 1941, 1941, -11122
0.185834, 1771, 577, 3407, 1941, 1941, -11122
0.185968, 1771, 577, 3407, 1941, 1941, -11122
0.186103, -2754, 350, 2528, 3390, 3121, -11175
0.186238, -2754, 350, 2528, 3390, 3121, -11175
0.186372, -2754, 350, 2528, 3390, 3121, -11175
0.186507, -2754, 350, 2528, 3390, 3121, -11175
0.186642, -2754, 350, 2528, 3390, 3121, -11175
0.186777, -2754, 350, 2528, 3390, 3121, -11175
0.186912, -2754, 350, 2528, 3390, 3121, -11175
0.187046, -2754, 350, 2528, 3390, 3121, -11175
0.187181, -7487, -319, 352, 4115, 3600, -8523
0.187316, -7487, -319, 352, 4115, 3600, -8523
0.187451, -7487, -319, 352, 4115, 3600, -8523
0.187585, -7487, -319, 352, 4115, 3600, -8523
0.187720, -7487, -319, 352, 4115, 3600, -8523
0.187855, -7487, -319, 352, 4115, 3600, -8523
0.187989, -7487, -319, 352, 4115, 3600, -8523
0.188124, -8158, 89, -414, 3655, 3051, -3652
0.188259, -8158, 89, -414, 3655, 3051, -3652
0.188393, -8158, 89, -414, 3655, 3051, -3652
0.188528, -8158, 89, -414, 3655, 3051, -3652
0.188663, -8158, 89, -414, 3655, 3051, -3652
0.188797, -8158, 89, -414, 3655, 3051, -3652
0.188932, -8158, 89, -414, 3655, 3051, -3652
0.189067, -8158, 89, -414, 3655, 3051, -3652
0.189201, -5359, 602, 573, 2207, 2069, 826
0.189336, -5359, 602, 573, 2207, 2069, 826
0.189471, -5359, 602, 573, 2207, 2069, 826
0.189606, -5359, 602, 573, 2207, 2069, 826
0.189740, -5359, 602, 573, 2207, 2069, 826
0.189875, -5359, 602, 573, 2207, 2069, 826
0.190009, -5359, 602, 573, 2207, 2069, 826
0.190144, -3089, 383, 2082, 806, 1154, 3511
0.190279, -3089, 383, 2082, 806, 1154, 3511
0.190414, -3089, 383, 2082, 806, 1154, 3511
0.190548, -3089, 383, 2082, 806, 1154, 3511
0.190684, -3089, 383, 2082, 806, 1154, 3511
0.190818, -3089, 383, 2082, 806, 1154, 3511
0.190953, -3089, 383, 2082, 806, 1154, 3511
0.191087, -3089, 383, 2082, 806, 1154, 3511
0.191224, -1760, 190, 2333, -7, 165, 4965
0.191359, -1760, 190, 2333, -7, 165, 4965
0.191493, -1760, 190, 2333, -7, 165, 4965
0.191628, -1760, 190, 2333, -7, 165, 4965
0.191763, -1760, 190, 2333, -7, 165, 4965
0.191897, -1760, 190, 2333, -7, 165, 4965
0.192032, -1760, 190, 2333, -7, 165, 4965
0.192167, -827, 193, 1992, -484, -976, 5598
0.192302, -827, 193, 1992, -484, -976, 5598
0.192436, -827, 193, 1992, -484, -976, 5598
0.192571, -827, 193, 1992, -484, -976, 5598
0.192706, -827, 193, 1992, -484, -976, 5598
0.192840, -827, 193, 1992, -484, -976, 5598
0.192975, -827, 193, 1992, -484, -976, 5598
0.193110, -827, 193, 1992, -484, -976, 5598
0.193244, -482, 198, 2050, -734, -2156, 5731
0.193379, -482, 198, 2050, -734, -2156, 5731
0.193514, -482, 198, 2050, -734, -2156, 5731
0.193648, -482, 198, 2050, -734, -2156, 5731
0.193783, -482, 198, 2050, -734, -2156, 5731
0.193918, -482, 198, 2050, -734, -2156, 5731
0.194052, -482, 198, 2050, -734, -2156, 5731
0.194187, -366, 166, 2053, -795, -3222, 5718
0.194322, -366, 166, 2053, -795, -3222, 5718
0.194456, -366, 166, 2053, -795, -3222, 5718
0.194591, -366, 166, 2053, -795, -3222, 5718
0.194726, -366, 166, 2053, -795, -3222, 5718
0.194861, -366, 166, 2053, -795, -3222, 5718
0.194996, -366, 166, 2053, -795, -3222, 5718
0.195130, -366, 166, 2053, -795, -3222, 5718
0.195265, -177, 168, 2026, -747, -3906, 5607
0.195400, -177, 168, 2026, -747, -3906, 5607
0.195535, -177, 168, 2026, -747, -3906, 5607
0.195669, -177, 168, 2026, -747, -3906, 5607
0.195804, -177, 168, 2026, -747, -3906, 5607
0.195938, -177, 168, 2026, -747, -3906, 5607
0.196073, -177, 168, 2026, -747, -3906, 5607
0.196208, -12, 188, 2090, -710, -3975, 5402
0.196342, -12, 188, 2090, -710, -3975, 5402
0.196477, -12, 188, 2090, -710, -3975, 5402
0.196612, -12, 188, 2090, -710, -3975, 5402
0.196746, -12, 188, 2090, -710, -3975, 5402
0.196885, -12, 188, 2090, -710, -3975, 5402
0.197020, -12, 188, 2090, -710, -3975, 5402
0.197155, -12, 188, 2090, -710, -3975, 5402
0.197289, 116, 192, 2151, -750, -3424, 5156
0.197424, 116, 192, 2151, -750, -3424, 5156
0.197559, 116, 192, 2151, -750, -3424, 5156
0.197693, 116, 192, 2151, -750, -3424, 5156
0.197828, 116, 192, 2151, -750, -3424, 5156
0.197963, 116, 192, 2151, -750, -3424, 5156
0.198097, 116, 192, 2151, -750, -3424, 5156
0.198232, 405, 199, 2204, -858, -2442, 4827
0.198367, 405, 199, 2204, -858, -2442, 4827
0.198502, 405, 199, 2204, -858, -2442, 4827
0.198640, 405, 199, 2204, -858, -2442, 4827
0.198774, 405, 199, 2204, -858, -2442, 4827
0.198909, 405, 199, 2204, -858, -2442, 4827
0.199044, 405, 199, 2204, -858, -2442, 4827
0.199178, 405, 199, 2204, -858, -2442, 4827
0.199313, 1096, 237, 2315, -965, -1319, 4224
0.199448, 1096, 237, 2315, -965, -1319, 4224
0.199583, 1096, 237, 2315, -965, -1319, 4224
0.199717, 1096, 237, 2315, -965, -1319, 4224
0.199852, 1096, 237, 2315, -965, -1319, 4224
0.199987, 1096, 237, 2315, -965, -1319, 4224
0.200121, 1096, 237, 2315, -965, -1319, 4224
0.200256, 2618, 272, 2625, -967, -333, 3021
0.200391, 2618, 272, 2625, -967, -333, 3021
0.200526, 2618, 272, 2625, -967, -333, 3021
0.200660, 2618, 272, 2625, -967, -333, 3021
0.200795, 2618, 272, 2625, -967, -333, 3021
0.200930, 2618, 272, 2625, -967, -333, 3021
0.201064, 2618, 272, 2625, -967, -333, 3021
0.201199, 2618, 272, 2625, -967, -333, 3021
0.201334, 5648, 421, 3256, -638, 375, 598
0.201469, 5648, 421, 3256, -638, 375, 598
0.201603, 5648, 421, 3256, -638, 375, 598
0.201738, 5648, 421, 3256, -638, 375, 598
0.201873, 5648, 421, 3256, -638, 375, 598
0.202007, 5648, 421, 3256, -638, 375, 598
0.202142, 5648, 421, 3256, -638, 375, 598
0.202277, 8496, 594, 3659, 162, 1012, -3711
0.202412, 8496, 594, 3659, 162, 1012, -3711
0.202546, 8496, 594, 3659, 162, 1012, -3711
0.202682, 8496, 594, 3659, 162, 1012, -3711
0.202816, 8496, 594, 3659, 162, 1012, -3711
0.202951, 8496, 594, 3659, 162, 1012, -3711
0.203086, 8496, 594, 3659, 162, 1012, -3711
0.203220, 8496, 594, 3659, 162, 1012, -3711
0.203355, 9661, 1022, 2435, 960, 1820, -9430
0.203490, 9661, 1022, 2435, 960, 1820, -9430
0.203624, 9661, 1022, 2435, 960, 1820, -9430
0.203759, 9661, 1022, 2435, 960, 1820, -9430
0.203894, 9661, 1022, 2435, 960, 1820, -9430
0.204028, 9661, 1022, 2435, 960, 1820, -9430
0.204163, 9661, 1022, 2435, 960, 1820, -9430
0.204298, 7002, 995, 1226, 1200, 2978, -15111
0.204433, 7002, 995, 1226, 1200, 2978, -15111
0.204567, 7002, 995, 1226, 1200, 2978, -15111
0.204702, 7002, 995, 1226, 1200, 2978, -15111
0.204837, 7002, 995, 1226, 1200, 2978, -15111
0.204972, 7002, 995, 1226, 1200, 2978, -15111
0.205106, 7002, 995, 1226, 1200, 2978, -15111
0.205241, 7002, 995, 1226, 1200, 2978, -15111
0.205375, -2501, -706, 1273, 1482, 4515, -17553
0.205510, -2501, -706, 1273, 1482, 4515, -17553
0.205645, -2501, -706, 1273, 1482, 4515, -17553
0.205780, -2501, -706, 1273, 1482, 4515, -17553
0.205914, -2501, -706, 1273, 1482, 4515, -17553
0.206049, -2501, -706, 1273, 1482, 4515, -17553
0.206184, -2501, -706, 1273, 1482, 4515, -17553
0.206318, -11176, -1565, 952, 2211, 5202, -13925
0.206453, -11176, -1565, 952, 2211, 5202, -13925
0.206588, -11176, -1565, 952, 2211, 5202, -13925
0.206723, -11176, -1565, 952, 2211, 5202, -13925
0.206858, -11176, -1565, 952, 2211, 5202, -13925
0.206992, -11176, -1565, 952, 2211, 5202, -13925
0.207127, -11176, -1565, 952, 2211, 5202, -13925
0.207262, -11176, -1565, 952, 2211, 5202, -13925
0.207396, -13271, -499, 1027, 2755, 4490, -6531
0.207531, -13271, -499, 1027, 2755, 4490, -6531
0.207666, -13271, -499, 1027, 2755, 4490, -6531
0.207801, -13271, -499, 1027, 2755, 4490, -6531
0.207935, -13271, -499, 1027, 2755, 4490, -6531
0.208070, -13271, -499, 1027, 2755, 4490, -6531
0.208204, -13271, -499, 1027, 2755, 4490, -6531
0.208339, -13271, -499, 1027, 2755, 4490, -6531
0.208474, -9989, 106, 1033, 2437, 3032, 846
0.208609, -9989, 106, 1033, 2437, 3032, 846
0.208743, -9989, 106, 1033, 2437, 3032, 846
0.208878, -9989, 106, 1033, 2437, 3032, 846
0.209013, -9989, 106, 1033, 2437, 3032, 846
0.209154, -9989, 106, 1033, 2437, 3032, 846
0.209289, -9989, 106, 1033, 2437, 3032, 846
0.209424, -2491, 244, 1441, 1083, 1101, 5146
0.209559, -2491, 244, 1441, 1083, 1101, 5146
0.209693, -2491, 244, 1441, 1083, 1101, 5146
0.209828, -2491, 244, 1441, 1083, 1101, 5146
0.209962, -2491, 244, 1441, 1083, 1101, 5146
0.210097, -2491, 244, 1441, 1083, 1101, 5146
0.210232, -2491, 244, 1441, 1083, 1101, 5146
0.210367, -2491, 244, 1441, 1083, 1101, 5146
0.210501, 970, 410, 2629, -388, -94, 5476
0.210636, 970, 410, 2629, -388, -94, 5476
0.210774, 970, 410, 2629, -388, -94, 5476
0.210908, 970, 410, 2629, -388, -94, 5476
0.211043, 970, 410, 2629, -388, -94, 5476
0.211178, 970, 410, 2629, -388, -94, 5476
0.211312, 970, 410, 2629, -388, -94, 5476
0.211447, -431, 235, 2339, -1257, -687, 5157
0.211582, -431, 235, 2339, -1257, -687, 5157
0.211717, -431, 235, 2339, -1257, -687, 5157
0.211852, -431, 235, 2339, -1257, -687, 5157
0.211986, -431, 235, 2339, -1257, -687, 5157
0.212121, -431, 235, 2339, -1257, -687, 5157
0.212256, -431, 235, 2339, -1257, -687, 5157
0.212390, -431, 235, 2339, -1257, -687, 5157
0.212525, -728, 128, 1758, -1532, -1858, 5609
0.212660, -728, 128, 1758, -1532, -1858, 5609
0.212794, -728, 128, 1758, -1532, -1858, 5609
0.212929, -728, 128, 1758, -1532, -1858, 5609
0.213064, -728, 128, 1758, -1532, -1858, 5609
0.213199, -728, 128, 1758, -1532, -1858, 5609
0.213333, -728, 128, 1758, -1532, -1858, 5609
0.213468, -439, 119, 1789, -1286, -3149, 5699
0.213603, -439, 119, 1789, -1286, -3149, 5699
0.213737, -439, 119, 1789, -1286, -3149, 5699
0.213872, -439, 119, 1789, -1286, -3149, 5699
0.214007, -439, 119, 1789, -1286, -3149, 5699
0.214141, -439, 119, 1789, -1286, -3149, 5699
0.214276, -439, 119, 1789, -1286, -3149, 5699
0.214410, -439, 119, 1789, -1286, -3149, 5699
0.214545, -358, 107, 1850, -861, -4181, 5570
0.214680, -358, 107, 1850, -861, -4181, 5570
0.214815, -358, 107, 1850, -861, -4181, 5570
0.214949, -358, 107, 1850, -861, -4181, 5570
0.215084, -358, 107, 1850, -861, -4181, 5570
0.215218, -358, 107, 1850, -861, -4181, 5570
0.215353, -358, 107, 1850, -861, -4181, 5570
0.215487, -102, 167, 2035, -620, -4537, 5594
0.215622, -102, 167, 2035, -620, -4537, 5594
0.215757, -102, 167, 2035, -620, -4537, 5594
0.215891, -102, 167, 2035, -620, -4537, 5594
0.216025, -102, 167, 2035, -620, -4537, 5594
0.216160, -102, 167, 2035, -620, -4537, 5594
0.216294, -102, 167, 2035, -620, -4537, 5594
0.216429, -102, 167, 2035, -620, -4537, 5594
0.216563, 61, 200, 2153, -609, -3841, 5605
0.216698, 61, 200, 2153, -609, -3841, 5605
0.216833, 61, 200, 2153, -609, -3841, 5605
0.216967, 61, 200, 2153, -609, -3841, 5605
0.217102, 61, 200, 2153, -609, -3841, 5605
0.217237, 61, 200, 2153, -609, -3841, 5605
0.217371, 61, 200, 2153, -609, -3841, 5605
0.217506, 69, 239, 2227, -716, -2495, 5492
0.217641, 69, 239, 2227, -716, -2495, 5492
0.217775, 69, 239, 2227, -716, -2495, 5492
0.217910, 69, 239, 2227, -716, -2495, 5492
0.218045, 69, 239, 2227, -716, -2495, 5492
0.218179, 69, 239, 2227, -716, -2495, 5492
0.218314, 69, 239, 2227, -716, -2495, 5492
0.218449, 69, 239, 2227, -716, -2495, 5492
0.218583, -6, 254, 2221, -879, -983, 5261
0.218719, -6, 254, 2221, -879, -983, 5261
0.218854, -6, 254, 2221, -879, -983, 5261
0.218988, -6, 254, 2221, -879, -983, 5261
0.219123, -6, 254, 2221, -879, -983, 5261
0.219257, -6, 254, 2221, -879, -983, 5261
0.219392, -6, 254, 2221, -879, -983, 5261
0.219527, -125, 249, 2164, -1048, 216, 4971
0.219662, -125, 249, 2164, -1048, 216, 4971
0.219796, -125, 249, 2164, -1048, 216, 4971
0.219931, -125, 249, 2164, -1048, 216, 4971
0.220066, -125, 249, 2164, -1048, 216, 4971
0.220200, -125, 249, 2164, -1048, 216, 4971
0.220335, -125, 249, 2164, -1048, 216, 4971
0.220470, -125, 249, 2164, -1048, 216, 4971
0.220604, -232, 257, 2147, -1229, 800, 4712
0.220739, -232, 257, 2147, -1229, 800, 4712
0.220874, -232, 257, 2147, -1229, 800, 4712
0.221009, -232, 257, 2147, -1229, 800, 4712
0.221143, -232, 257, 2147, -1229, 800, 4712
0.221278, -232, 257, 2147, -1229, 800, 4712
0.221412, -232, 257, 2147, -1229, 800, 4712
0.221552, -309, 252, 2114, -1425, 803, 4518
0.221689, -309, 252, 2114, -1425, 803, 4518
0.221823, -309, 252, 2114, -1425, 803, 4518
0.221958, -309, 252, 2114, -1425, 803, 4518
0.222093, -309, 252, 2114, -1425, 803, 4518
0.222227, -309, 252, 2114, -1425, 803, 4518
0.222362, -309, 252, 2114, -1425, 803, 4518
0.222496, -309, 252, 2114, -1425, 803, 4518
0.222631, -318, 244, 2094, -1609, 447, 4366
0.222766, -318, 244, 2094, -1609, 447, 4366
0.222901, -318, 244, 2094, -1609, 447, 4366
0.223036, -318, 244, 2094, -1609, 447, 4366
0.223170, -318, 244, 2094, -1609, 447, 4366
0.223305, -318, 244, 2094, -1609, 447, 4366
0.223439, -318, 244, 2094, -1609, 447, 4366
0.223574, -266, 233, 2095, -1763, 4, 4233
0.223709, -266, 233, 2095, -1763, 4, 4233
0.223844, -266, 233, 2095, -1763, 4, 4233
0.223978, -266, 233, 2095, -1763, 4, 4233
0.224113, -266, 233, 2095, -1763, 4, 4233
0.224248, -266, 233, 2095, -1763, 4, 4233
0.224382, -266, 233, 2095, -1763, 4, 4233
0.224517, -266, 233, 2095, -1763, 4, 4233
0.224652, -169, 211, 2100, -1867, -375, 4112
0.224787, -169, 211, 2100, -1867, -375, 4112
0.224921, -169, 211, 2100, -1867, -375, 4112
0.225056, -169, 211, 2100, -1867, -375, 4112
0.225191, -169, 211, 2100, -1867, -375, 4112
0.225325, -169, 211, 2100, -1867, -375, 4112
0.225460, -169, 211, 2100, -1867, -375, 4112
0.225595, -18, 187, 2117, -1915, -630, 3982
0.225729, -18, 187, 2117, -1915, -630, 3982
0.225864, -18, 187, 2117, -1915, -630, 3982
0.225999, -18, 187, 2117, -1915, -630, 3982
0.226133, -18, 187, 2117, -1915, -630, 3982
0.226268, -18, 187, 2117, -1915, -630, 3982
0.226403, -18, 187, 2117, -1915, -630, 3982
0.226537, -18, 187, 2117, -1915, -630, 3982
0.226673, 207, 167, 2156, -1887, -737, 3807
0.226808, 207, 167, 2156, -1887, -737, 3807
0.226942, 207, 167, 2156, -1887, -737, 3807
0.227077, 207, 167, 2156, -1887, -737, 3807
0.227211, 207, 167, 2156, -1887, -737, 3807
0.227346, 207, 167, 2156, -1887, -737, 3807
0.227481, 207, 167, 2156, -1887, -737, 3807
0.227615, 615, 155, 2284, -1748, -701, 3508
0.227750, 615, 155, 2284, -1748, -701, 3508
0.227885, 615, 155, 2284, -1748, -701, 3508
0.228019, 615, 155, 2284, -1748, -701, 3508
0.228154, 615, 155, 2284, -1748, -701, 3508
0.228289, 615, 155, 2284, -1748, -701, 3508
0.228423, 615, 155, 2284, -1748, -701, 3508
0.228558, 615, 155, 2284, -1748, -701, 3508
0.228693, 1642, 128, 2676, -1422, -554, 2898
0.228828, 1642, 128, 2676, -1422, -554, 2898
0.228962, 1642, 128, 2676, -1422, -554, 2898
0.229097, 1642, 128, 2676, -1422, -554, 2898
0.229232, 1642, 128, 2676, -1422, -554, 2898
0.229366, 1642, 128, 2676, -1422, -554, 2898
0.229501, 1642, 128, 2676, -1422, -554, 2898
0.229635, 5211, 231, 4348, -521, -430, 1266
0.229770, 5211, 231, 4348, -521, -430, 1266
0.229905, 5211, 231, 4348, -521, -430, 1266
0.230039, 5211, 231, 4348, -521, -430, 1266
0.230174, 5211, 231, 4348, -521, -430, 1266
0.230309, 5211, 231, 4348, -521, -430, 1266
0.230443, 5211, 231, 4348, -521, -430, 1266
0.230578, 5211, 231, 4348, -521, -430, 1266
0.230713, 11041, 483, 6866, 1939, -349, -3177
0.230848, 11041, 483, 6866, 1939, -349, -3177
0.230983, 11041, 483, 6866, 1939, -349, -3177
0.231118, 11041, 483, 6866, 1939, -349, -3177
0.231252, 11041, 483, 6866, 1939, -349, -3177
0.231387, 11041, 483, 6866, 1939, -349, -3177
0.231521, 11041, 483, 6866, 1939, -349, -3177
0.231656, 11041, 483, 6866, 1939, -349, -3177
0.231791, 11856, -61, 3250, 4795, -84, -10555
0.231926, 11856, -61, 3250, 4795, -84, -10555
0.232061, 11856, -61, 3250, 4795, -84, -10555
0.232196, 11856, -61, 3250, 4795, -84, -10555
0.232330, 11856, -61, 3250, 4795, -84, -10555
0.232465, 11856, -61, 3250, 4795, -84, -10555
0.232600, 11856, -61, 3250, 4795, -84, -10555
0.232734, 5488, -461, -4419, 4561, 516, -16719
0.232869, 5488, -461, -4419, 4561, 516, -16719
0.233004, 5488, -461, -4419, 4561, 516, -16719
0.233139, 5488, -461, -4419, 4561, 516, -16719
0.233273, 5488, -461, -4419, 4561, 516, -16719
0.233408, 5488, -461, -4419, 4561, 516, -16719
0.233543, 5488, -461, -4419, 4561, 516, -16719
0.233677, 5488, -461, -4419, 4561, 516, -16719
0.233812, -1348, 142, -2700, 1861, 1816, -18283
0.233951, -1348, 142, -2700, 1861, 1816, -18283
0.234086, -1348, 142, -2700, 1861, 1816, -18283
0.234221, -1348, 142, -2700, 1861, 1816, -18283
0.234356, -1348, 142, -2700, 1861, 1816, -18283
0.234490, -1348, 142, -2700, 1861, 1816, -18283
0.234625, -1348, 142, -2700, 1861, 1816, -18283
0.234760, -5284, 240, 3868, 1266, 3585, -16119
0.234895, -5284, 240, 3868, 1266, 3585, -16119
0.235029, -5284, 240, 3868, 1266, 3585, -16119
0.235164, -5284, 240, 3868, 1266, 3585, -16119
0.235299, -5284, 240, 3868, 1266, 3585, -16119
0.235433, -5284, 240, 3868, 1266, 3585, -16119
0.235568, -5284, 240, 3868, 1266, 3585, -16119
0.235702, -5284, 240, 3868, 1266, 3585, -16119
0.235837, -7280, 42, 2991, 3062, 4453, -12367
0.235972, -7280, 42, 2991, 3062, 4453, -12367
0.236106, -7280, 42, 2991, 3062, 4453, -12367
0.236241, -7280, 42, 2991, 3062, 4453, -12367
0.236376, -7280, 42, 2991, 3062, 4453, -12367
0.236510, -7280, 42, 2991, 3062, 4453, -12367
0.236645, -7280, 42, 2991, 3062, 4453, -12367
0.236779, -9614, 2, -953, 3402, 4163, -7814
0.236914, -9614, 2, -953, 3402, 4163, -7814
0.237049, -9614, 2, -953, 3402, 4163, -7814
0.237183, -9614, 2, -953, 3402, 4163, -7814
0.237318, -9614, 2, -953, 3402, 4163, -7814
0.237453, -9614, 2, -953, 3402, 4163, -7814
0.237587, -9614, 2, -953, 3402, 4163, -7814
0.237722, -9614, 2, -953, 3402, 4163, -7814
0.237856, -10248, 45, 528, 1981, 3532, -1749
0.237991, -10248, 45, 528, 1981, 3532, -1749
0.238126, -10248, 45, 528, 1981, 3532, -1749
0.238261, -10248, 45, 528, 1981, 3532, -1749
0.238395, -10248, 45, 528, 1981, 3532, -1749
0.238530, -10248, 45, 528, 1981, 3532, -1749
0.238665, -10248, 45, 528, 1981, 3532, -1749
0.238799, -5460, 136, 3615, 1018, 2307, 4010
0.238934, -5460, 136, 3615, 1018, 2307, 4010
0.239069, -5460, 136, 3615, 1018, 2307, 4010
0.239203, -5460, 136, 3615, 1018, 2307, 4010
0.239338, -5460, 136, 3615, 1018, 2307, 4010
0.239472, -5460, 136, 3615, 1018, 2307, 4010
0.239607, -5460, 136, 3615, 1018, 2307, 4010
0.239742, -5460, 136, 3615, 1018, 2307, 4010
0.239876, -265, 190, 2793, 653, 288, 5961
0.240011, -265, 190, 2793, 653, 288, 5961
0.240146, -265, 190, 2793, 653, 288, 5961
0.240280, -265, 190, 2793, 653, 288, 5961
0.240415, -265, 190, 2793, 653, 288, 5961
0.240550, -265, 190, 2793, 653, 288, 5961
0.240684, -265, 190, 2793, 653, 288, 5961
0.240819, 276, 237, 1750, 161, -1671, 5291
0.240954, 276, 237, 1750, 161, -1671, 5291
0.241088, 276, 237, 1750, 161, -1671, 5291
0.241223, 276, 237, 1750, 161, -1671, 5291
0.241357, 276, 237, 1750, 161, -1671, 5291
0.241492, 276, 237, 1750, 161, -1671, 5291
0.241627, 276, 237, 1750, 161, -1671, 5291
0.241761, 276, 237, 1750, 161, -1671, 5291
0.241896, -474, 184, 2090, -374, -3316, 5067
0.242031, -474, 184, 2090, -374, -3316, 5067
0.242165, -474, 184, 2090, -374, -3316, 5067
0.242300, -474, 184, 2090, -374, -3316, 5067
0.242434, -474, 184, 2090, -374, -3316, 5067
0.242569, -474, 184, 2090, -374, -3316, 5067
0.242704, -474, 184, 2090, -374, -3316, 5067
0.242839, -318, 161, 2033, -613, -4836, 5241
0.242973, -318, 161, 2033, -613, -4836, 5241
0.243108, -318, 161, 2033, -613, -4836, 5241
0.243242, -318, 161, 2033, -613, -4836, 5241
0.243377, -318, 161, 2033, -613, -4836, 5241
0.243512, -318, 161, 2033, -613, -4836, 5241
0.243646, -318, 161, 2033, -613, -4836, 5241
0.243781, -318, 161, 2033, -613, -4836, 5241
0.243916, -275, 155, 1938, -550, -5803, 5098
0.244050, -275, 155, 1938, -550, -5803, 5098
0.244185, -275, 155, 1938, -550, -5803, 5098
0.244319, -275, 155, 1938, -550, -5803, 5098
0.244454, -275, 155, 1938, -550, -5803, 5098
0.244589, -275, 155, 1938, -550, -5803, 5098
0.244723, -275, 155, 1938, -550, -5803, 5098
0.244858, -210, 177, 2075, -411, -5727, 4920
0.244993, -210, 177, 2075, -411, -5727, 4920
0.245127, -210, 177, 2075, -411, -5727, 4920
0.245262, -210, 177, 2075, -411, -5727, 4920
0.245397, -210, 177, 2075, -411, -5727, 4920
0.245531, -210, 177, 2075, -411, -5727, 4920
0.245666, -210, 177, 2075, -411, -5727, 4920
0.245800, -210, 177, 2075, -411, -5727, 4920
0.245935, -91, 205, 2186, -415, -4641, 4862
0.246070, -91, 205, 2186, -415, -4641, 4862
0.246208, -91, 205, 2186, -415, -4641, 4862
0.246343, -91, 205, 2186, -415, -4641, 4862
0.246478, -91, 205, 2186, -415, -4641, 4862
0.246613, -91, 205, 2186, -415, -4641, 4862
0.246748, -91, 205, 2186, -415, -4641, 4862
0.246882, -88, 211, 2194, -546, -3081, 4804
0.247017, -88, 211, 2194, -546, -3081, 4804
0.247152, -88, 211, 2194, -546, -3081, 4804
0.247286, -88, 211, 2194, -546, -3081, 4804
0.247422, -88, 211, 2194, -546, -3081, 4804
0.247556, -88, 211, 2194, -546, -3081, 4804
0.247691, -88, 211, 2194, -546, -3081, 4804
0.247825, -88, 211, 2194, -546, -3081, 4804
0.247960, -144, 210, 2175, -697, -1620, 4674
0.248094, -144, 210, 2175, -697, -1620, 4674
0.248229, -144, 210, 2175, -697, -1620, 4674
0.248363, -144, 210, 2175, -697, -1620, 4674
0.248498, -144, 210, 2175, -697, -1620, 4674
0.248632, -144, 210, 2175, -697, -1620, 4674
0.248767, -144, 210, 2175, -697, -1620, 4674
0.248901, -206, 205, 2155, -830, -552, 4501
0.249036, -206, 205, 2155, -830, -552, 4501
0.249171, -206, 205, 2155, -830, -552, 4501
0.249305, -206, 205, 2155, -830, -552, 4501
0.249440, -206, 205, 2155, -830, -552, 4501
0.249574, -206, 205, 2155, -830, -552, 4501
0.249709, -206, 205, 2155, -830, -552, 4501
0.249843, -206, 205, 2155, -830, -552, 4501
0.249978, -262, 201, 2115, -947, 15, 4358
0.250112, -262, 201, 2115, -947, 15, 4358
0.250247, -262, 201, 2115, -947, 15, 4358
0.250381, -262, 201, 2115, -947, 15, 4358
0.250516, -262, 201, 2115, -947, 15, 4358
0.250651, -262, 201, 2115, -947, 15, 4358
0.250786, -262, 201, 2115, -947, 15, 4358
0.250920, -288, 200, 2072, -1047, 99, 4273
0.251055, -288, 200, 2072, -1047, 99, 4273
0.251190, -288, 200, 2072, -1047, 99, 4273
0.251325, -288, 200, 2072, -1047, 99, 4273
0.251459, -288, 200, 2072, -1047, 99, 4273
0.251594, -288, 200, 2072, -1047, 99, 4273
0.251729, -288, 200, 2072, -1047, 99, 4273
0.251864, -288, 200, 2072, -1047, 99, 4273
0.251998, -283, 197, 2047, -1133, -170, 4221
0.252133, -283, 197, 2047, -1133, -170, 4221
0.252268, -283, 197, 2047, -1133, -170, 4221
0.252402, -283, 197, 2047, -1133, -170, 4221
0.252537, -283, 197, 2047, -1133, -170, 4221
0.252672, -283, 197, 2047, -1133, -170, 4221
0.252807, -283, 197, 2047, -1133, -170, 4221
0.252941, -283, 197, 2047, -1133, -170, 4221
0.253076, -264, 190, 2032, -1193, -592, 4185
0.253211, -264, 190, 2032, -1193, -592, 4185
0.253346, -264, 190, 2032, -1193, -592, 4185
0.253480, -264, 190, 2032, -1193, -592, 4185
0.253615, -264, 190, 2032, -1193, -592, 4185
0.253750, -264, 190, 2032, -1193, -592, 4185
0.253884, -264, 190, 2032, -1193, -592, 4185
0.254019, -241, 181, 2017, -1220, -968, 4183
0.254154, -241, 181, 2017, -1220, -968, 4183
0.254289, -241, 181, 2017, -1220, -968, 4183
0.254423, -241, 181, 2017, -1220, -968, 4183
0.254558, -241, 181, 2017, -1220, -968, 4183
0.254693, -241, 181, 2017, -1220, -968, 4183
0.254827, -241, 181, 2017, -1220, -968, 4183
0.254961, -241, 181, 2017, -1220, -968, 4183
0.255095, -217, 175, 2009, -1211, -1201, 4223
0.255230, -217, 175, 2009, -1211, -1201, 4223
0.255364, -217, 175, 2009, -1211, -1201, 4223
0.255499, -217, 175, 2009, -1211, -1201, 4223
0.255633, -217, 175, 2009, -1211, -1201, 4223
0.255768, -217, 175, 2009, -1211, -1201, 4223
0.255902, -217, 175, 2009, -1211, -1201, 4223
0.256037, -199, 171, 2003, -1163, -1293, 4292
0.256171, -199, 171, 2003, -1163, -1293, 4292
0.256306, -199, 171, 2003, -1163, -1293, 4292
0.256440, -199, 171, 2003, -1163, -1293, 4292
0.256575, -199, 171, 2003, -1163, -1293, 4292
0.256709, -199, 171, 2003, -1163, -1293, 4292
0.256843, -199, 171, 2003, -1163, -1293, 4292
0.256978, -199, 171, 2003, -1163, -1293, 4292
0.257112, -190, 169, 1993, -1075, -1276, 4373
0.257247, -190, 169, 1993, -1075, -1276, 4373
0.257382, -190, 169, 1993, -1075, -1276, 4373
0.257516, -190, 169, 1993, -1075, -1276, 4373
0.257651, -190, 169, 1993, -1075, -1276, 4373
0.257785, -190, 169, 1993, -1075, -1276, 4373
0.257920, -190, 169, 1993, -1075, -1276, 4373
0.258054, -182, 165, 1983, -965, -1180, 4451
0.258189, -182, 165, 1983, -965, -1180, 4451
0.258323, -182, 165, 1983, -965, -1180, 4451
0.258458, -182, 165, 1983, -965, -1180, 4451
0.258599, -182, 165, 1983, -965, -1180, 4451
0.258735, -182, 165, 1983, -965, -1180, 4451
0.258869, -182, 165, 1983, -965, -1180, 4451
0.259004, -182, 165, 1983, -965, -1180, 4451
0.259138, -179, 158, 1984, -844, -1044, 4521
0.259273, -179, 158, 1984, -844, -1044, 4521
0.259407, -179, 158, 1984, -844, -1044, 4521
0.259542, -179, 158, 1984, -844, -1044, 4521
0.259682, -179, 158, 1984, -844, -1044, 4521
0.259827, -179, 158, 1984, -844, -1044, 4521
0.259967, -179, 158, 1984, -844, -1044, 4521
0.260107, -185, 156, 1994, -720, -916, 4576
0.260250, -185, 156, 1994, -720, -916, 4576
0.260391, -185, 156, 1994, -720, -916, 4576
0.260531, -185, 156, 1994, -720, -916, 4576
0.260671, -185, 156, 1994, -720, -916, 4576
0.260810, -185, 156, 1994, -720, -916, 4576
0.260954, -185, 156, 1994, -720, -916, 4576
0.261095, -193, 163, 2008, -616, -825, 4608
0.261237, -193, 163, 2008, -616, -825, 4608
0.261378, -193, 163, 2008, -616, -825, 4608
0.261524, -193, 163, 2008, -616, -825, 4608
0.261663, -193, 163, 2008, -616, -825, 4608
0.261802, -193, 163, 2008, -616, -825, 4608
0.261944, -193, 163, 2008, -616, -825, 4608
0.262088, -196, 174, 2024, -547, -761, 4616
0.262235, -196, 174, 2024, -547, -761, 4616
0.262376, -196, 174, 2024, -547, -761, 4616
0.262518, -196, 174, 2024, -547, -761, 4616
0.262665, -196, 174, 2024, -547, -761, 4616
0.262805, -196, 174, 2024, -547, -761, 4616
0.262945, -196, 174, 2024, -547, -761, 4616
0.263086, -199, 181, 2040, -513, -715, 4600
0.263222, -199, 181, 2040, -513, -715, 4600
0.263362, -199, 181, 2040, -513, -715, 4600
0.263500, -199, 181, 2040, -513, -715, 4600
0.263641, -199, 181, 2040, -513, -715, 4600
0.263781, -199, 181, 2040, -513, -715, 4600
0.263920, -199, 181, 2040, -513, -715, 4600
0.264060, -199, 181, 2040, -513, -715, 4600
0.264198, -213, 186, 2053, -517, -719, 4551
0.264337, -213, 186, 2053, -517, -719, 4551
0.264475, -213, 186, 2053, -517, -719, 4551
0.264615, -213, 186, 2053, -517, -719, 4551
0.264754, -213, 186, 2053, -517, -719, 4551
0.264893, -213, 186, 2053, -517, -719, 4551
0.265034, -213, 186, 2053, -517, -719, 4551
0.265173, -225, 191, 2064, -563, -842, 4472
0.265311, -225, 191, 2064, -563, -842, 4472
0.265450, -225, 191, 2064, -563, -842, 4472
0.265591, -225, 191, 2064, -563, -842, 4472
0.265730, -225, 191, 2064, -563, -842, 4472
0.265869, -225, 191, 2064, -563, -842, 4472
0.266009, -225, 191, 2064, -563, -842, 4472
0.266150, -220, 199, 2080, -647, -1006, 4367
0.266292, -220, 199, 2080, -647, -1006, 4367
0.266430, -220, 199, 2080, -647, -1006, 4367
0.266570, -220, 199, 2080, -647, -1006, 4367
0.266708, -220, 199, 2080, -647, -1006, 4367
0.266848, -220, 199, 2080, -647, -1006, 4367
0.266987, -220, 199, 2080, -647, -1006, 4367
0.267126, -220, 199, 2080, -647, -1006, 4367
0.267265, -210, 202, 2094, -739, -1051, 4244
0.267406, -210, 202, 2094, -739, -1051, 4244
0.267544, -210, 202, 2094, -739, -1051, 4244
0.267683, -210, 202, 2094, -739, -1051, 4244
0.267822, -210, 202, 2094, -739, -1051, 4244
0.267964, -210, 202, 2094, -739, -1051, 4244
0.268105, -210, 202, 2094, -739, -1051, 4244
0.268242, -208, 202, 2094, -833, -1057, 4134
0.268378, -208, 202, 2094, -833, -1057, 4134
0.268513, -208, 202, 2094, -833, -1057, 4134
0.268648, -208, 202, 2094, -833, -1057, 4134
0.268783, -208, 202, 2094, -833, -1057, 4134
0.268924, -208, 202, 2094, -833, -1057, 4134
0.269064, -208, 202, 2094, -833, -1057, 4134
0.269205, -202, 200, 2087, -939, -1119, 4048
0.269352, -202, 200, 2087, -939, -1119, 4048
0.269492, -202, 200, 2087, -939, -1119, 4048
0.269625, -202, 200, 2087, -939, -1119, 4048
0.269758, -202, 200, 2087, -939, -1119, 4048
0.269895, -202, 200, 2087, -939, -1119, 4048
0.270030, -202, 200, 2087, -939, -1119, 4048
0.270164, -202, 200, 2087, -939, -1119, 4048
0.270299, -175, 190, 2077, -1031, -1168, 3966
0.270433, -175, 190, 2077, -1031, -1168, 3966
0.270568, -175, 190, 2077, -1031, -1168, 3966
0.270703, -175, 190, 2077, -1031, -1168, 3966
0.270837, -175, 190, 2077, -1031, -1168, 3966
0.270972, -175, 190, 2077, -1031, -1168, 3966
0.271106, -175, 190, 2077, -1031, -1168, 3966
0.271240, -112, 177, 2076, -1079, -1190, 3877
0.271402, -112, 177, 2076, -1079, -1190, 3877
0.271539, -112, 177, 2076, -1079, -1190, 3877
0.271673, -112, 177, 2076, -1079, -1190, 3877
0.271808, -112, 177, 2076, -1079, -1190, 3877
0.271942, -112, 177, 2076, -1079, -1190, 3877
0.272077, -112, 177, 2076, -1079, -1190, 3877
0.272211, 42, 158, 2093, -1086, -1203, 3748
0.272346, 42, 158, 2093, -1086, -1203, 3748
0.272480, 42, 158, 2093, -1086, -1203, 3748
0.272615, 42, 158, 2093, -1086, -1203, 3748
0.272749, 42, 158, 2093, -1086, -1203, 3748
0.272883, 42, 158, 2093, -1086, -1203, 3748
0.273018, 42, 158, 2093, -1086, -1203, 3748
0.273152, 42, 158, 2093, -1086, -1203, 3748
0.273287, 571, 118, 2172, -1040, -1200, 3484
0.273421, 571, 118, 2172, -1040, -1200, 3484
0.273550, 571, 118, 2172, -1040, -1200, 3484
0.273681, 571, 118, 2172, -1040, -1200, 3484
0.273818, 571, 118, 2172, -1040, -1200, 3484
0.273955, 571, 118, 2172, -1040, -1200, 3484
0.274089, 571, 118, 2172, -1040, -1200, 3484
0.274224, 571, 118, 2172, -1040, -1200, 3484
0.274358, 2164, 33, 2430, -858, -1136, 2735
0.274493, 2164, 33, 2430, -858, -1136, 2735
0.274627, 2164, 33, 2430, -858, -1136, 2735
0.274762, 2164, 33, 2430, -858, -1136, 2735
0.274897, 2164, 33, 2430, -858, -1136, 2735
0.275032, 2164, 33, 2430, -858, -1136, 2735
0.275167, 2164, 33, 2430, -858, -1136, 2735
0.275301, 3735, -86, 2387, -539, -849, 947
0.275436, 3735, -86, 2387, -539, -849, 947
0.275571, 3735, -86, 2387, -539, -849, 947
0.275705, 3735, -86, 2387, -539, -849, 947
0.275839, 3735, -86, 2387, -539, -849, 947
0.275974, 3735, -86, 2387, -539, -849, 947
0.276108, 3735, -86, 2387, -539, -849, 947
0.276243, 3735, -86, 2387, -539, -849, 947
0.276377, 3040, -244, 1465, -408, -253, -1367
0.276512, 3040, -244, 1465, -408, -253, -1367
0.276646, 3040, -244, 1465, -408, -253, -1367
0.276781, 3040, -244, 1465, -408, -253, -1367
0.276915, 3040, -244, 1465, -408, -253, -1367
0.277050, 3040, -244, 1465, -408, -253, -1367
0.277184, 3040, -244, 1465, -408, -253, -1367
0.277319, 2282, -311, 1058, -663, 513, -2940
0.277453, 2282, -311, 1058, -663, 513, -2940
0.277588, 2282, -311, 1058, -663, 513, -2940
0.277722, 2282, -311, 1058, -663, 513, -2940
0.277857, 2282, -311, 1058, -663, 513, -2940
0.277991, 2282, -311, 1058, -663, 513, -2940
0.278125, 2282, -311, 1058, -663, 513, -2940
0.278260, 2282, -311, 1058, -663, 513, -2940
0.278394, 6660, -334, 3241, -479, 1331, -4996
0.278529, 6660, -334, 3241, -479, 1331, -4996
0.278664, 6660, -334, 3241, -479, 1331, -4996
0.278798, 6660, -334, 3241, -479, 1331, -4996
0.278932, 6660, -334, 3241, -479, 1331, -4996
0.279067, 6660, -334, 3241, -479, 1331, -4996
0.279201, 6660, -334, 3241, -479, 1331, -4996
0.279336, 14125, -599, 5336, 1011, 2543, -10849
0.279470, 14125, -599, 5336, 1011, 2543, -10849
0.279605, 14125, -599, 5336, 1011, 2543, -10849
0.279739, 14125, -599, 5336, 1011, 2543, -10849
0.279874, 14125, -599, 5336, 1011, 2543, -10849
0.280008, 14125, -599, 5336, 1011, 2543, -10849
0.280142, 14125, -599, 5336, 1011, 2543, -10849
0.280277, 14125, -599, 5336, 1011, 2543, -10849
0.280411, 14972, -771, 2701, 2645, 4515, -20267
0.280546, 14972, -771, 2701, 2645, 4515, -20267
0.280680, 14972, -771, 2701, 2645, 4515, -20267
0.280815, 14972, -771, 2701, 2645, 4515, -20267
0.280949, 14972, -771, 2701, 2645, 4515, -20267
0.281083, 14972, -771, 2701, 2645, 4515, -20267
0.281218, 14972, -771, 2701, 2645, 4515, -20267
0.281352, 7480, 81, -284, 2970, 6655, -28155
0.281482, 7480, 81, -284, 2970, 6655, -28155
0.281618, 7480, 81, -284, 2970, 6655, -28155
0.281753, 7480, 81, -284, 2970, 6655, -28155
0.281887, 7480, 81, -284, 2970, 6655, -28155
0.282022, 7480, 81, -284, 2970, 6655, -28155
0.282156, 7480, 81, -284, 2970, 6655, -28155
0.282291, 7480, 81, -284, 2970, 6655, -28155
0.282425, -837, 947, 2507, 3435, 8196, -30797
0.282560, -837, 947, 2507, 3435, 8196, -30797
0.282695, -837, 947, 2507, 3435, 8196, -30797
0.282829, -837, 947, 2507, 3435, 8196, -30797
0.282963, -837, 947, 2507, 3435, 8196, -30797
0.283097, -837, 947, 2507, 3435, 8196, -30797
0.283232, -837, 947, 2507, 3435, 8196, -30797
0.283366, -5919, 504, 6062, 6300, 8765, -29051
0.283509, -5919, 504, 6062, 6300, 8765, -29051
0.283644, -5919, 504, 6062, 6300, 8765, -29051
0.283778, -5919, 504, 6062, 6300, 8765, -29051
0.283913, -5919, 504, 6062, 6300, 8765, -29051
0.284047, -5919, 504, 6062, 6300, 8765, -29051
0.284181, -5919, 504, 6062, 6300, 8765, -29051
0.284315, -5919, 504, 6062, 6300, 8765, -29051
0.284449, -8567, -53, 2507, 9627, 8292, -25011
0.284584, -8567, -53, 2507, 9627, 8292, -25011
0.284718, -8567, -53, 2507, 9627, 8292, -25011
0.284853, -8567, -53, 2507, 9627, 8292, -25011
0.284987, -8567, -53, 2507, 9627, 8292, -25011
0.285122, -8567, -53, 2507, 9627, 8292, -25011
0.285256, -8567, -53, 2507, 9627, 8292, -25011
0.285390, -10003, -78, -4076, 9064, 7289, -19535
0.285525, -10003, -78, -4076, 9064, 7289, -19535
0.285661, -10003, -78, -4076, 9064, 7289, -19535
0.285792, -10003, -78, -4076, 9064, 7289, -19535
0.285927, -10003, -78, -4076, 9064, 7289, -19535
0.286061, -10003, -78, -4076, 9064, 7289, -19535
0.286195, -10003, -78, -4076, 9064, 7289, -19535
0.286330, -10003, -78, -4076, 9064, 7289, -19535
0.286464, -11197, 349, -2673, 5302, 6311, -12764
0.286599, -11197, 349, -2673, 5302, 6311, -12764
0.286734, -11197, 349, -2673, 5302, 6311, -12764
0.286868, -11197, 349, -2673, 5302, 6311, -12764
0.287002, -11197, 349, -2673, 5302, 6311, -12764
0.287137, -11197, 349, -2673, 5302, 6311, -12764
0.287271, -11197, 349, -2673, 5302, 6311, -12764
0.287406, -11197, 349, -2673, 5302, 6311, -12764
0.287540, -11618, 643, 3047, 2770, 5223, -5042
0.287675, -11618, 643, 3047, 2770, 5223, -5042
0.287809, -11618, 643, 3047, 2770, 5223, -5042
0.287944, -11618, 643, 3047, 2770, 5223, -5042
0.288078, -11618, 643, 3047, 2770, 5223, -5042
0.288212, -11618, 643, 3047, 2770, 5223, -5042
0.288347, -11618, 643, 3047, 2770, 5223, -5042
0.288481, -8222, 319, 3204, 2344, 3047, 1816
0.288616, -8222, 319, 3204, 2344, 3047, 1816
0.288751, -8222, 319, 3204, 2344, 3047, 1816
0.288885, -8222, 319, 3204, 2344, 3047, 1816
0.289019, -8222, 319, 3204, 2344, 3047, 1816
0.289154, -8222, 319, 3204, 2344, 3047, 1816
0.289288, -8222, 319, 3204, 2344, 3047, 1816
0.289422, -8222, 319, 3204, 2344, 3047, 1816
0.289557, -2752, 196, 1464, 2032, 82, 5269
0.289692, -2752, 196, 1464, 2032, 82, 5269
0.289826, -2752, 196, 1464, 2032, 82, 5269
0.289960, -2752, 196, 1464, 2032, 82, 5269
0.290095, -2752, 196, 1464, 2032, 82, 5269
0.290229, -2752, 196, 1464, 2032, 82, 5269
0.290364, -2752, 196, 1464, 2032, 82, 5269
0.290498, -205, 371, 2178, 1210, -2171, 5760
0.290633, -205, 371, 2178, 1210, -2171, 5760
0.290769, -205, 371, 2178, 1210, -2171, 5760
0.290903, -205, 371, 2178, 1210, -2171, 5760
0.291038, -205, 371, 2178, 1210, -2171, 5760
0.291173, -205, 371, 2178, 1210, -2171, 5760
0.291307, -205, 371, 2178, 1210, -2171, 5760
0.291442, -205, 371, 2178, 1210, -2171, 5760
0.291577, -338, 339, 2547, 452, -3752, 5779
0.291711, -338, 339, 2547, 452, -3752, 5779
0.291846, -338, 339, 2547, 452, -3752, 5779
0.291981, -338, 339, 2547, 452, -3752, 5779
0.292115, -338, 339, 2547, 452, -3752, 5779
0.292250, -338, 339, 2547, 452, -3752, 5779
0.292384, -338, 339, 2547, 452, -3752, 5779
0.292519, -495, 183, 2018, 120, -5040, 5988
0.292654, -495, 183, 2018, 120, -5040, 5988
0.292788, -495, 183, 2018, 120, -5040, 5988
0.292923, -495, 183, 2018, 120, -5040, 5988
0.293058, -495, 183, 2018, 120, -5040, 5988
0.293192, -495, 183, 2018, 120, -5040, 5988
0.293327, -495, 183, 2018, 120, -5040, 5988
0.293461, -495, 183, 2018, 120, -5040, 5988
0.293596, -193, 153, 1929, 189, -5532, 5849
0.293731, -193, 153, 1929, 189, -5532, 5849
0.293865, -193, 153, 1929, 189, -5532, 5849
0.294000, -193, 153, 1929, 189, -5532, 5849
0.294135, -193, 153, 1929, 189, -5532, 5849
0.294269, -193, 153, 1929, 189, -5532, 5849
0.294404, -193, 153, 1929, 189, -5532, 5849
0.294538, 148, 203, 2087, 329, -5040, 5433
0.294674, 148, 203, 2087, 329, -5040, 5433
0.294809, 148, 203, 2087, 329, -5040, 5433
0.294943, 148, 203, 2087, 329, -5040, 5433
0.295078, 148, 203, 2087, 329, -5040, 5433
0.295213, 148, 203, 2087, 329, -5040, 5433
0.295347, 148, 203, 2087, 329, -5040, 5433
0.295482, 148, 203, 2087, 329, -5040, 5433
0.295623, 710, 219, 2166, 292, -3804, 4934
0.295762, 710, 219, 2166, 292, -3804, 4934
0.295896, 710, 219, 2166, 292, -3804, 4934
0.296031, 710, 219, 2166, 292, -3804, 4934
0.296166, 710, 219, 2166, 292, -3804, 4934
0.296300, 710, 219, 2166, 292, -3804, 4934
0.296435, 710, 219, 2166, 292, -3804, 4934
0.296569, 1945, 219, 2291, 142, -2172, 4067
0.296704, 1945, 219, 2291, 142, -2172, 4067
0.296839, 1945, 219, 2291, 142, -2172, 4067
0.296974, 1945, 219, 2291, 142, -2172, 4067
0.297108, 1945, 219, 2291, 142, -2172, 4067
0.297243, 1945, 219, 2291, 142, -2172, 4067
0.297377, 1945, 219, 2291, 142, -2172, 4067
0.297512, 1945, 219, 2291, 142, -2172, 4067
0.297646, 4308, 298, 2612, 59, -511, 2167
0.297781, 4308, 298, 2612, 59, -511, 2167
0.297916, 4308, 298, 2612, 59, -511, 2167
0.298050, 4308, 298, 2612, 59, -511, 2167
0.298185, 4308, 298, 2612, 59, -511, 2167
0.298320, 4308, 298, 2612, 59, -511, 2167
0.298454, 4308, 298, 2612, 59, -511, 2167
0.298589, 6259, 442, 2834, 174, 1051, -1235
0.298724, 6259, 442, 2834, 174, 1051, -1235
0.298859, 6259, 442, 2834, 174, 1051, -1235
0.298993, 6259, 442, 2834, 174, 1051, -1235
0.299128, 6259, 442, 2834, 174, 1051, -1235
0.299257, 6259, 442, 2834, 174, 1051, -1235
0.299393, 6259, 442, 2834, 174, 1051, -1235
0.299529, 6259, 442, 2834, 174, 1051, -1235
0.299664, 6189, 651, 2554, 482, 2446, -5381
0.299800, 6189, 651, 2554, 482, 2446, -5381
0.299934, 6189, 651, 2554, 482, 2446, -5381
0.300069, 6189, 651, 2554, 482, 2446, -5381
0.300203, 6189, 651, 2554, 482, 2446, -5381
0.300338, 6189, 651, 2554, 482, 2446, -5381
0.300472, 6189, 651, 2554, 482, 2446, -5381
0.300607, 5704, 1016, 2028, 820, 3414, -9211
0.300737, 5704, 1016, 2028, 820, 3414, -9211
0.300872, 5704, 1016, 2028, 820, 3414, -9211
0.301006, 5704, 1016, 2028, 820, 3414, -9211
0.301141, 5704, 1016, 2028, 820, 3414, -9211
0.301276, 5704, 1016, 2028, 820, 3414, -9211
0.301410, 5704, 1016, 2028, 820, 3414, -9211
0.301545, 5704, 1016, 2028, 820, 3414, -9211
0.301679, 4342, 942, 1730, 1089, 4014, -12640
0.301814, 4342, 942, 1730, 1089, 4014, -12640
0.301949, 4342, 942, 1730, 1089, 4014, -12640
0.302083, 4342, 942, 1730, 1089, 4014, -12640
0.302218, 4342, 942, 1730, 1089, 4014, -12640
0.302352, 4342, 942, 1730, 1089, 4014, -12640
0.302487, 4342, 942, 1730, 1089, 4014, -12640
0.302621, -878, -389, 1363, 1346, 4596, -14379
0.302756, -878, -389, 1363, 1346, 4596, -14379
0.302891, -878, -389, 1363, 1346, 4596, -14379
0.303026, -878, -389, 1363, 1346, 4596, -14379
0.303160, -878, -389, 1363, 1346, 4596, -14379
0.303295, -878, -389, 1363, 1346, 4596, -14379
0.303430, -878, -389, 1363, 1346, 4596, -14379
0.303564, -878, -389, 1363, 1346, 4596, -14379
0.303699, -4763, -742, 622, 1544, 4731, -12628
0.303834, -4763, -742, 622, 1544, 4731, -12628
0.303968, -4763, -742, 622, 1544, 4731, -12628
0.304103, -4763, -742, 622, 1544, 4731, -12628
0.304237, -4763, -742, 622, 1544, 4731, -12628
0.304372, -4763, -742, 622, 1544, 4731, -12628
0.304506, -4763, -742, 622, 1544, 4731, -12628
0.304641, -2712, 511, 1102, 1373, 4174, -9808
0.304776, -2712, 511, 1102, 1373, 4174, -9808
0.304911, -2712, 511, 1102, 1373, 4174, -9808
0.305045, -2712, 511, 1102, 1373, 4174, -9808
0.305180, -2712, 511, 1102, 1373, 4174, -9808
0.305314, -2712, 511, 1102, 1373, 4174, -9808
0.305449, -2712, 511, 1102, 1373, 4174, -9808
0.305584, -2712, 511, 1102, 1373, 4174, -9808
0.305718, -2571, 219, 3567, 1449, 3771, -8487
0.305853, -2571, 219, 3567, 1449, 3771, -8487
0.305988, -2571, 219, 3567, 1449, 3771, -8487
0.306122, -2571, 219, 3567, 1449, 3771, -8487
0.306257, -2571, 219, 3567, 1449, 3771, -8487
0.306391, -2571, 219, 3567, 1449, 3771, -8487
0.306526, -2571, 219, 3567, 1449, 3771, -8487
0.306661, -2571, 219, 3567, 1449, 3771, -8487
0.306795, -6698, -550, 4570, 2695, 3482, -6213
0.306930, -6698, -550, 4570, 2695, 3482, -6213
0.307065, -6698, -550, 4570, 2695, 3482, -6213
0.307199, -6698, -550, 4570, 2695, 3482, -6213
0.307334, -6698, -550, 4570, 2695, 3482, -6213
0.307468, -6698, -550, 4570, 2695, 3482, -6213
0.307603, -6698, -550, 4570, 2695, 3482, -6213
0.307738, -8169, -268, 1894, 3675, 2529, -1579
0.307888, -8169, -268, 1894, 3675, 2529, -1579
0.308024, -8169, -268, 1894, 3675, 2529, -1579
0.308159, -8169, -268, 1894, 3675, 2529, -1579
0.308293, -8169, -268, 1894, 3675, 2529, -1579
0.308428, -8169, -268, 1894, 3675, 2529, -1579
0.308562, -8169, -268, 1894, 3675, 2529, -1579
0.308697, -5374, -168, -428, 2773, 772, 2852
0.308832, -5374, -168, -428, 2773, 772, 2852
0.308967, -5374, -168, -428, 2773, 772, 2852
0.309101, -5374, -168, -428, 2773, 772, 2852
0.309236, -5374, -168, -428, 2773, 772, 2852
0.309370, -5374, -168, -428, 2773, 772, 2852
0.309505, -5374, -168, -428, 2773, 772, 2852
0.309640, -5374, -168, -428, 2773, 772, 2852
0.309774, -1784, -59, 856, 1080, -1268, 5039
0.309909, -1784, -59, 856, 1080, -1268, 5039
0.310044, -1784, -59, 856, 1080, -1268, 5039
0.310178, -1784, -59, 856, 1080, -1268, 5039
0.310313, -1784, -59, 856, 1080, -1268, 5039
0.310447, -1784, -59, 856, 1080, -1268, 5039
0.310582, -1784, -59, 856, 1080, -1268, 5039
0.310717, -1784, -59, 856, 1080, -1268, 5039
0.310852, -155, 237, 2531, 157, -2766, 5409
0.310986, -155, 237, 2531, 157, -2766, 5409
0.311121, -155, 237, 2531, 157, -2766, 5409
0.311256, -155, 237, 2531, 157, -2766, 5409
0.311390, -155, 237, 2531, 157, -2766, 5409
0.311525, -155, 237, 2531, 157, -2766, 5409
0.311659, -155, 237, 2531, 157, -2766, 5409
0.311794, -206, 239, 2238, -43, -3561, 5341
0.311929, -206, 239, 2238, -43, -3561, 5341
0.312063, -206, 239, 2238, -43, -3561, 5341
0.312198, -206, 239, 2238, -43, -3561, 5341
0.312332, -206, 239, 2238, -43, -3561, 5341
0.312467, -206, 239, 2238, -43, -3561, 5341
0.312602, -206, 239, 2238, -43, -3561, 5341
0.312736, -206, 239, 2238, -43, -3561, 5341
0.312871, -263, 135, 1854, -28, -3813, 5367
0.313006, -263, 135, 1854, -28, -3813, 5367
0.313141, -263, 135, 1854, -28, -3813, 5367
0.313275, -263, 135, 1854, -28, -3813, 5367
0.313410, -263, 135, 1854, -28, -3813, 5367
0.313544, -263, 135, 1854, -28, -3813, 5367
0.313679, -263, 135, 1854, -28, -3813, 5367
0.313813, -67, 167, 2044, 99, -3547, 5317
0.313948, -67, 167, 2044, 99, -3547, 5317
0.314083, -67, 167, 2044, 99, -3547, 5317
0.314217, -67, 167, 2044, 99, -3547, 5317
0.314352, -67, 167, 2044, 99, -3547, 5317
0.314487, -67, 167, 2044, 99, -3547, 5317
0.314621, -67, 167, 2044, 99, -3547, 5317
0.314756, -67, 167, 2044, 99, -3547, 5317
0.314891, -16, 201, 2112, 239, -2998, 5192
0.315025, -16, 201, 2112, 239, -2998, 5192
0.315160, -16, 201, 2112, 239, -2998, 5192
0.315295, -16, 201, 2112, 239, -2998, 5192
0.315429, -16, 201, 2112, 239, -2998, 5192
0.315564, -16, 201, 2112, 239, -2998, 5192
0.315698, -16, 201, 2112, 239, -2998, 5192
0.315833, 4, 220, 2121, 288, -2309, 5075
0.315968, 4, 220, 2121, 288, -2309, 5075
0.316103, 4, 220, 2121, 288, -2309, 5075
0.316237, 4, 220, 2121, 288, -2309, 5075
0.316372, 4, 220, 2121, 288, -2309, 5075
0.316507, 4, 220, 2121, 288, -2309, 5075
0.316641, 4, 220, 2121, 288, -2309, 5075
0.316776, 4, 220, 2121, 288, -2309, 5075
0.316910, 47, 250, 2204, 235, -1474, 4927
0.317045, 47, 250, 2204, 235, -1474, 4927
0.317180, 47, 250, 2204, 235, -1474, 4927
0.317314, 47, 250, 2204, 235, -1474, 4927
0.317449, 47, 250, 2204, 235, -1474, 4927
0.317584, 47, 250, 2204, 235, -1474, 4927
0.317718, 47, 250, 2204, 235, -1474, 4927
0.317853, 5, 276, 2250, 104, -627, 4716
0.317987, 5, 276, 2250, 104, -627, 4716
0.318122, 5, 276, 2250, 104, -627, 4716
0.318257, 5, 276, 2250, 104, -627, 4716
0.318391, 5, 276, 2250, 104, -627, 4716
0.318526, 5, 276, 2250, 104, -627, 4716
0.318661, 5, 276, 2250, 104, -627, 4716
0.318796, 5, 276, 2250, 104, -627, 4716
0.318931, -201, 269, 2150, -86, 26, 4507
0.319066, -201, 269, 2150, -86, 26, 4507
0.319200, -201, 269, 2150, -86, 26, 4507
0.319335, -201, 269, 2150, -86, 26, 4507
0.319470, -201, 269, 2150, -86, 26, 4507
0.319604, -201, 269, 2150, -86, 26, 4507
0.319739, -201, 269, 2150, -86, 26, 4507
0.319873, -381, 252, 2051, -324, 324, 4384
0.320008, -381, 252, 2051, -324, 324, 4384
0.320143, -381, 252, 2051, -324, 324, 4384
0.320277, -381, 252, 2051, -324, 324, 4384
0.320412, -381, 252, 2051, -324, 324, 4384
0.320547, -381, 252, 2051, -324, 324, 4384
0.320686, -381, 252, 2051, -324, 324, 4384
0.320821, -381, 252, 2051, -324, 324, 4384
0.320956, -326, 258, 2120, -569, 253, 4296
0.321091, -326, 258, 2120, -569, 253, 4296
0.321225, -326, 258, 2120, -569, 253, 4296
0.321360, -326, 258, 2120, -569, 253, 4296
0.321494, -326, 258, 2120, -569, 253, 4296
0.321629, -326, 258, 2120, -569, 253, 4296
0.321764, -326, 258, 2120, -569, 253, 4296
0.321898, -161, 257, 2222, -755, -40, 4148
0.322033, -161, 257, 2222, -755, -40, 4148
0.322168, -161, 257, 2222, -755, -40, 4148
0.322302, -161, 257, 2222, -755, -40, 4148
0.322437, -161, 257, 2222, -755, -40, 4148
0.322571, -161, 257, 2222, -755, -40, 4148
0.322706, -161, 257, 2222, -755, -40, 4148
0.322841, -161, 257, 2222, -755, -40, 4148
0.322975, 55, 234, 2303, -839, -364, 3927
0.323110, 55, 234, 2303, -839, -364, 3927
0.323245, 55, 234, 2303, -839, -364, 3927
0.323380, 55, 234, 2303, -839, -364, 3927
0.323514, 55, 234, 2303, -839, -364, 3927
0.323649, 55, 234, 2303, -839, -364, 3927
0.323783, 55, 234, 2303, -839, -364, 3927
0.323918, 838, 238, 2721, -721, -608, 3544
0.324053, 838, 238, 2721, -721, -608, 3544
0.324187, 838, 238, 2721, -721, -608, 3544
0.324322, 838, 238, 2721, -721, -608, 3544
0.324457, 838, 238, 2721, -721, -608, 3544
0.324591, 838, 238, 2721, -721, -608, 3544
0.324726, 838, 238, 2721, -721, -608, 3544
0.324861, 838, 238, 2721, -721, -608, 3544
0.324995, 3201, 526, 4032, -13, -768, 2438
0.325130, 3201, 526, 4032, -13, -768, 2438
0.325265, 3201, 526, 4032, -13, -768, 2438
0.325399, 3201, 526, 4032, -13, -768, 2438
0.325534, 3201, 526, 4032, -13, -768, 2438
0.325669, 3201, 526, 4032, -13, -768, 2438
0.325803, 3201, 526, 4032, -13, -768, 2438
0.325938, 4565, 378, 3973, 1344, -639, -126
0.326073, 4565, 378, 3973, 1344, -639, -126
0.326208, 4565, 378, 3973, 1344, -639, -126
0.326342, 4565, 378, 3973, 1344, -639, -126
0.326477, 4565, 378, 3973, 1344, -639, -126
0.326612, 4565, 378, 3973, 1344, -639, -126
0.326747, 4565, 378, 3973, 1344, -639, -126
0.326881, 4565, 378, 3973, 1344, -639, -126
0.327016, 394, -538, 80, 1776, -77, -2380
0.327151, 394, -538, 80, 1776, -77, -2380
0.327286, 394, -538, 80, 1776, -77, -2380
0.327420, 394, -538, 80, 1776, -77, -2380
0.327555, 394, -538, 80, 1776, -77, -2380
0.327690, 394, -538, 80, 1776, -77, -2380
0.327824, 394, -538, 80, 1776, -77, -2380
0.327959, -4543, -382, -1671, 558, 330, -1374
0.328094, -4543, -382, -1671, 558, 330, -1374
0.328229, -4543, -382, -1671, 558, 330, -1374
0.328363, -4543, -382, -1671, 558, 330, -1374
0.328498, -4543, -382, -1671, 558, 330, -1374
0.328633, -4543, -382, -1671, 558, 330, -1374
0.328767, -4543, -382, -1671, 558, 330, -1374
0.328902, -4543, -382, -1671, 558, 330, -1374
0.329036, -4208, 545, 1462, -415, 370, 1608
0.329171, -4208, 545, 1462, -415, 370, 1608
0.329306, -4208, 545, 1462, -415, 370, 1608
0.329441, -4208, 545, 1462, -415, 370, 1608
0.329576, -4208, 545, 1462, -415, 370, 1608
0.329710, -4208, 545, 1462, -415, 370, 1608
0.329845, -4208, 545, 1462, -415, 370, 1608
0.329979, -2010, 492, 2673, -329, 216, 3567
0.330114, -2010, 492, 2673, -329, 216, 3567
0.330249, -2010, 492, 2673, -329, 216, 3567
0.330383, -2010, 492, 2673, -329, 216, 3567
0.330518, -2010, 492, 2673, -329, 216, 3567
0.330653, -2010, 492, 2673, -329, 216, 3567
0.330788, -2010, 492, 2673, -329, 216, 3567
0.330922, -2010, 492, 2673, -329, 216, 3567
0.331057, -678, 152, 1830, -132, -106, 4232
0.331192, -678, 152, 1830, -132, -106, 4232
0.331326, -678, 152, 1830, -132, -106, 4232
0.331461, -678, 152, 1830, -132, -106, 4232
0.331596, -678, 152, 1830, -132, -106, 4232
0.331730, -678, 152, 1830, -132, -106, 4232
0.331865, -678, 152, 1830, -132, -106, 4232
0.332000, -678, 152, 1830, -132, -106, 4232
0.332134, -17, 205, 2044, -310, -18, 4464
0.332269, -17, 205, 2044, -310, -18, 4464
0.332404, -17, 205, 2044, -310, -18, 4464
0.332538, -17, 205, 2044, -310, -18, 4464
0.332673, -17, 205, 2044, -310, -18, 4464
0.332808, -17, 205, 2044, -310, -18, 4464
0.332942, -17, 205, 2044, -310, -18, 4464
0.333077, -50, 242, 2212, -607, 217, 4633
0.333212, -50, 242, 2212, -607, 217, 4633
0.333350, -50, 242, 2212, -607, 217, 4633
0.333485, -50, 242, 2212, -607, 217, 4633
0.333620, -50, 242, 2212, -607, 217, 4633
0.333754, -50, 242, 2212, -607, 217, 4633
0.333889, -50, 242, 2212, -607, 217, 4633
0.334024, -50, 242, 2212, -607, 217, 4633
0.334158, -89, 177, 2005, -714, -115, 4657
0.334293, -89, 177, 2005, -714, -115, 4657
0.334428, -89, 177, 2005, -714, -115, 4657
0.334562, -89, 177, 2005, -714, -115, 4657
0.334697, -89, 177, 2005, -714, -115, 4657
0.334832, -89, 177, 2005, -714, -115, 4657
0.334967, -89, 177, 2005, -714, -115, 4657
0.335101, 216, 130, 1917, -612, -742, 4400
0.335236, 216, 130, 1917, -612, -742, 4400
0.335371, 216, 130, 1917, -612, -742, 4400
0.335505, 216, 130, 1917, -612, -742, 4400
0.335640, 216, 130, 1917, -612, -742, 4400
0.335774, 216, 130, 1917, -612, -742, 4400
0.335909, 216, 130, 1917, -612, -742, 4400
0.336044, 216, 130, 1917, -612, -742, 4400
0.336178, 1318, 143, 1976, -520, -1299, 3825
0.336313, 1318, 143, 1976, -520, -1299, 3825
0.336448, 1318, 143, 1976, -520, -1299, 3825
0.336582, 1318, 143, 1976, -520, -1299, 3825
0.336717, 1318, 143, 1976, -520, -1299, 3825
0.336851, 1318, 143, 1976, -520, -1299, 3825
0.336986, 1318, 143, 1976, -520, -1299, 3825
0.337120, 4395, 359, 2098, -596, -1620, 2324
0.337255, 4395, 359, 2098, -596, -1620, 2324
0.337390, 4395, 359, 2098, -596, -1620, 2324
0.337524, 4395, 359, 2098, -596, -1620, 2324
0.337659, 4395, 359, 2098, -596, -1620, 2324
0.337794, 4395, 359, 2098, -596, -1620, 2324
0.337928, 4395, 359, 2098, -596, -1620, 2324
0.338063, 4395, 359, 2098, -596, -1620, 2324
0.338197, 8705, 338, 2791, -601, -1381, -1400
0.338332, 8705, 338, 2791, -601, -1381, -1400
0.338467, 8705, 338, 2791, -601, -1381, -1400
0.338601, 8705, 338, 2791, -601, -1381, -1400
0.338736, 8705, 338, 2791, -601, -1381, -1400
0.338870, 8705, 338, 2791, -601, -1381, -1400
0.339004, 8705, 338, 2791, -601, -1381, -1400
0.339138, 11065, 331, 3317, -93, -252, -7465
0.339272, 11065, 331, 3317, -93, -252, -7465
0.339407, 11065, 331, 3317, -93, -252, -7465
0.339541, 11065, 331, 3317, -93, -252, -7465
0.339676, 11065, 331, 3317, -93, -252, -7465
0.339810, 11065, 331, 3317, -93, -252, -7465
0.339944, 11065, 331, 3317, -93, -252, -7465
0.340079, 11065, 331, 3317, -93, -252, -7465
0.340213, 8661, 522, 2719, 691, 1615, -14010
0.340347, 8661, 522, 2719, 691, 1615, -14010
0.340482, 8661, 522, 2719, 691, 1615, -14010
0.340616, 8661, 522, 2719, 691, 1615, -14010
0.340751, 8661, 522, 2719, 691, 1615, -14010
0.340888, 8661, 522, 2719, 691, 1615, -14010
0.341022, 8661, 522, 2719, 691, 1615, -14010
0.341157, 2420, 483, 2266, 1719, 3714, -18176
0.341292, 2420, 483, 2266, 1719, 3714, -18176
0.341422, 2420, 483, 2266, 1719, 3714, -18176
0.341557, 2420, 483, 2266, 1719, 3714, -18176
0.341691, 2420, 483, 2266, 1719, 3714, -18176
0.341826, 2420, 483, 2266, 1719, 3714, -18176
0.341960, 2420, 483, 2266, 1719, 3714, -18176
0.342094, 2420, 483, 2266, 1719, 3714, -18176
0.342229, -2451, 1017, 1143, 2873, 5223, -18424
0.342363, -2451, 1017, 1143, 2873, 5223, -18424
0.342498, -2451, 1017, 1143, 2873, 5223, -18424
0.342632, -2451, 1017, 1143, 2873, 5223, -18424
0.342771, -2451, 1017, 1143, 2873, 5223, -18424
0.342905, -2451, 1017, 1143, 2873, 5223, -18424
0.343040, -2451, 1017, 1143, 2873, 5223, -18424
0.343175, -5005, 556, -479, 2705, 5719, -16409
0.343310, -5005, 556, -479, 2705, 5719, -16409
0.343444, -5005, 556, -479, 2705, 5719, -16409
0.343579, -5005, 556, -479, 2705, 5719, -16409
0.343713, -5005, 556, -479, 2705, 5719, -16409
0.343848, -5005, 556, -479, 2705, 5719, -16409
0.343983, -5005, 556, -479, 2705, 5719, -16409
0.344117, -5005, 556, -479, 2705, 5719, -16409
0.344252, -8475, -884, 1072, 1872, 5828, -12926
0.344387, -8475, -884, 1072, 1872, 5828, -12926
0.344521, -8475, -884, 1072, 1872, 5828, -12926
0.344656, -8475, -884, 1072, 1872, 5828, -12926
0.344791, -8475, -884, 1072, 1872, 5828, -12926
0.344925, -8475, -884, 1072, 1872, 5828, -12926
0.345060, -8475, -884, 1072, 1872, 5828, -12926
0.345194, -11400, -808, 2970, 1916, 5523, -6794
0.345329, -11400, -808, 2970, 1916, 5523, -6794
0.345464, -11400, -808, 2970, 1916, 5523, -6794
0.345605, -11400, -808, 2970, 1916, 5523, -6794
0.345740, -11400, -808, 2970, 1916, 5523, -6794
0.345874, -11400, -808, 2970, 1916, 5523, -6794
0.346009, -11400, -808, 2970, 1916, 5523, -6794
0.346143, -11400, -808, 2970, 1916, 5523, -6794
0.346278, -9606, -270, 1876, 1853, 4009, 344
0.346413, -9606, -270, 1876, 1853, 4009, 344
0.346547, -9606, -270, 1876, 1853, 4009, 344
0.346683, -9606, -270, 1876, 1853, 4009, 344
0.346818, -9606, -270, 1876, 1853, 4009, 344
0.346952, -9606, -270, 1876, 1853, 4009, 344
0.347087, -9606, -270, 1876, 1853, 4009, 344
0.347221, -3849, 52, 1741, 1053, 1584, 4812
0.347356, -3849, 52, 1741, 1053, 1584, 4812
0.347491, -3849, 52, 1741, 1053, 1584, 4812
0.347625, -3849, 52, 1741, 1053, 1584, 4812
0.347760, -3849, 52, 1741, 1053, 1584, 4812
0.347895, -3849, 52, 1741, 1053, 1584, 4812
0.348029, -3849, 52, 1741, 1053, 1584, 4812
0.348164, -3849, 52, 1741, 1053, 1584, 4812
0.348298, -96, 403, 2712, 141, -634, 5666
0.348433, -96, 403, 2712, 141, -634, 5666
0.348568, -96, 403, 2712, 141, -634, 5666
0.348702, -96, 403, 2712, 141, -634, 5666
0.348837, -96, 403, 2712, 141, -634, 5666
0.348972, -96, 403, 2712, 141, -634, 5666
0.349106, -96, 403, 2712, 141, -634, 5666
0.349241, -209, 334, 2410, -581, -2278, 5328
0.349376, -209, 334, 2410, -581, -2278, 5328
0.349511, -209, 334, 2410, -581, -2278, 5328
0.349646, -209, 334, 2410, -581, -2278, 5328
0.349780, -209, 334, 2410, -581, -2278, 5328
0.349915, -209, 334, 2410, -581, -2278, 5328
0.350049, -209, 334, 2410, -581, -2278, 5328
0.350184, -209, 334, 2410, -581, -2278, 5328
0.350319, -637, 171, 1983, -938, -3652, 5421
0.350454, -637, 171, 1983, -938, -3652, 5421
0.350588, -637, 171, 1983, -938, -3652, 5421
0.350723, -637, 171, 1983, -938, -3652, 5421
0.350858, -637, 171, 1983, -938, -3652, 5421
0.350992, -637, 171, 1983, -938, -3652, 5421
0.351127, -637, 171, 1983, -938, -3652, 5421
0.351261, -637, 171, 1983, -938, -3652, 5421
0.351396, -322, 141, 1937, -845, -4668, 5480
0.351531, -322, 141, 1937, -845, -4668, 5480
0.351665, -322, 141, 1937, -845, -4668, 5480
0.351800, -322, 141, 1937, -845, -4668, 5480
0.351934, -322, 141, 1937, -845, -4668, 5480
0.352069, -322, 141, 1937, -845, -4668, 5480
0.352203, -322, 141, 1937, -845, -4668, 5480
0.352338, -97, 147, 1931, -555, -4975, 5310
0.352473, -97, 147, 1931, -555, -4975, 5310
0.352607, -97, 147, 1931, -555, -4975, 5310
0.352742, -97, 147, 1931, -555, -4975, 5310
0.352876, -97, 147, 1931, -555, -4975, 5310
0.353011, -97, 147, 1931, -555, -4975, 5310
0.353145, -97, 147, 1931, -555, -4975, 5310
0.353280, -97, 147, 1931, -555, -4975, 5310
0.353415, 94, 167, 1980, -370, -4367, 5180
0.353549, 94, 167, 1980, -370, -4367, 5180
0.353684, 94, 167, 1980, -370, -4367, 5180
0.353819, 94, 167, 1980, -370, -4367, 5180
0.353953, 94, 167, 1980, -370, -4367, 5180
0.354088, 94, 167, 1980, -370, -4367, 5180
0.354222, 94, 167, 1980, -370, -4367, 5180
0.354357, 240, 192, 2066, -361, -3002, 5070
0.354492, 240, 192, 2066, -361, -3002, 5070
0.354626, 240, 192, 2066, -361, -3002, 5070
0.354761, 240, 192, 2066, -361, -3002, 5070
0.354896, 240, 192, 2066, -361, -3002, 5070
0.355030, 240, 192, 2066, -361, -3002, 5070
0.355165, 240, 192, 2066, -361, -3002, 5070
0.355299, 240, 192, 2066, -361, -3002, 5070
0.355434, 268, 224, 2153, -457, -1379, 4867
0.355569, 268, 224, 2153, -457, -1379, 4867
0.355703, 268, 224, 2153, -457, -1379, 4867
0.355838, 268, 224, 2153, -457, -1379, 4867
0.355972, 268, 224, 2153, -457, -1379, 4867
0.356107, 268, 224, 2153, -457, -1379, 4867
0.356241, 268, 224, 2153, -457, -1379, 4867
0.356376, 270, 253, 2206, -565, 56, 4553
0.356511, 270, 253, 2206, -565, 56, 4553
0.356646, 270, 253, 2206, -565, 56, 4553
0.356780, 270, 253, 2206, -565, 56, 4553
0.356915, 270, 253, 2206, -565, 56, 4553
0.357049, 270, 253, 2206, -565, 56, 4553
0.357184, 270, 253, 2206, -565, 56, 4553
0.357318, 270, 253, 2206, -565, 56, 4553
0.357453, 388, 304, 2291, -631, 1025, 4141
0.357588, 388, 304, 2291, -631, 1025, 4141
0.357722, 388, 304, 2291, -631, 1025, 4141
0.357857, 388, 304, 2291, -631, 1025, 4141
0.357991, 388, 304, 2291, -631, 1025, 4141
0.358132, 388, 304, 2291, -631, 1025, 4141
0.358267, 388, 304, 2291, -631, 1025, 4141
0.358402, 970, 400, 2532, -632, 1418, 3564
0.358537, 970, 400, 2532, -632, 1418, 3564
0.358671, 970, 400, 2532, -632, 1418, 3564
0.358806, 970, 400, 2532, -632, 1418, 3564
0.358941, 970, 400, 2532, -632, 1418, 3564
0.359075, 970, 400, 2532, -632, 1418, 3564
0.359210, 970, 400, 2532, -632, 1418, 3564
0.359344, 970, 400, 2532, -632, 1418, 3564
0.359479, 2957, 724, 3146, -379, 1282, 2346
0.359614, 2957, 724, 3146, -379, 1282, 2346
0.359748, 2957, 724, 3146, -379, 1282, 2346
0.359883, 2957, 724, 3146, -379, 1282, 2346
0.360017, 2957, 724, 3146, -379, 1282, 2346
0.360152, 2957, 724, 3146, -379, 1282, 2346
0.360287, 2957, 724, 3146, -379, 1282, 2346
0.360421, 2926, 641, 3075, 109, 1125, 75
0.360556, 2926, 641, 3075, 109, 1125, 75
0.360690, 2926, 641, 3075, 109, 1125, 75
0.360825, 2926, 641, 3075, 109, 1125, 75
0.360960, 2926, 641, 3075, 109, 1125, 75
0.361094, 2926, 641, 3075, 109, 1125, 75
0.361229, 2926, 641, 3075, 109, 1125, 75
0.361363, 2926, 641, 3075, 109, 1125, 75
0.361498, -2793, -281, 1084, 127, 1310, -914
0.361632, -2793, -281, 1084, 127, 1310, -914
