Time, ax, ay, az, gx, gy, gz
0.000046, -318, 172, 1899, -1234, -506, 512
0.000213, -318, 172, 1899, -1234, -506, 512
0.000351, -318, 172, 1899, -1234, -506, 512
0.000489, 614, 135, 1786, -1414, -718, 414
0.000626, 614, 135, 1786, -1414, -718, 414
0.000765, 614, 135, 1786, -1414, -718, 414
0.000898, 614, 135, 1786, -1414, -718, 414
0.001036, 614, 135, 1786, -1414, -718, 414
0.001169, 614, 135, 1786, -1414, -718, 414
0.001305, 614, 135, 1786, -1414, -718, 414
0.001442, 1472, 114, 2065, -1508, -883, -335
0.001579, 1472, 114, 2065, -1508, -883, -335
0.001716, 1472, 114, 2065, -1508, -883, -335
0.001848, 1472, 114, 2065, -1508, -883, -335
0.001985, 1472, 114, 2065, -1508, -883, -335
0.002121, 1472, 114, 2065, -1508, -883, -335
0.002258, 1472, 114, 2065, -1508, -883, -335
0.002396, 1472, 114, 2065, -1508, -883, -335
0.002533, 1978, 297, 2357, -1331, -926, -1509
0.002670, 1978, 297, 2357, -1331, -926, -1509
0.002807, 1978, 297, 2357, -1331, -926, -1509
0.002944, 1978, 297, 2357, -1331, -926, -1509
0.003081, 1978, 297, 2357, -1331, -926, -1509
0.003217, 1978, 297, 2357, -1331, -926, -1509
0.003354, 1978, 297, 2357, -1331, -926, -1509
0.003491, 1326, 371, 2222, -1010, -703, -2797
0.003628, 1326, 371, 2222, -1010, -703, -2797
0.003765, 1326, 371, 2222, -1010, -703, -2797
0.003902, 1326, 371, 2222, -1010, -703, -2797
0.004039, 1326, 371, 2222, -1010, -703, -2797
0.004176, 1326, 371, 2222, -1010, -703, -2797
0.004313, 1326, 371, 2222, -1010, -703, -2797
0.004450, 1326, 371, 2222, -1010, -703, -2797
0.004586, -1619, 95, 1814, -736, -145, -3120
0.004724, -1619, 95, 1814, -736, -145, -3120
0.004861, -1619, 95, 1814, -736, -145, -3120
0.004997, -1619, 95, 1814, -736, -145, -3120
0.005134, -1619, 95, 1814, -736, -145, -3120
0.005273, -1619, 95, 1814, -736, -145, -3120
0.005410, -1619, 95, 1814, -736, -145, -3120
0.005547, -3624, 19, 1540, -509, 394, -1445
0.005684, -3624, 19, 1540, -509, 394, -1445
0.005821, -3624, 19, 1540, -509, 394, -1445
0.005958, -3624, 19, 1540, -509, 394, -1445
0.006095, -3624, 19, 1540, -509, 394, -1445
0.006232, -3624, 19, 1540, -509, 394, -1445
0.006370, -3624, 19, 1540, -509, 394, -1445
0.006503, -3624, 19, 1540, -509, 394, -1445
0.006640, -1977, 199, 1756, -395, 491, 783
0.006777, -1977, 199, 1756, -395, 491, 783
0.006914, -1977, 199, 1756, -395, 491, 783
0.007050, -1977, 199, 1756, -395, 491, 783
0.007187, -1977, 199, 1756, -395, 491, 783
0.007324, -1977, 199, 1756, -395, 491, 783
0.007461, -1977, 199, 1756, -395, 491, 783
0.007598, 159, 227, 2249, -434, 217, 1600
0.007735, 159, 227, 2249, -434, 217, 1600
0.007871, 159, 227, 2249, -434, 217, 1600
0.008008, 159, 227, 2249, -434, 217, 1600
0.008145, 159, 227, 2249, -434, 217, 1600
0.008282, 159, 227, 2249, -434, 217, 1600
0.008418, 159, 227, 2249, -434, 217, 1600
0.008555, 497, 220, 2315, -619, -149, 1344
0.008692, 497, 220, 2315, -619, -149, 1344
0.008829, 497, 220, 2315, -619, -149, 1344
0.008966, 497, 220, 2315, -619, -149, 1344
0.009103, 497, 220, 2315, -619, -149, 1344
0.009240, 497, 220, 2315, -619, -149, 1344
0.009376, 497, 220, 2315, -619, -149, 1344
0.009513, 497, 220, 2315, -619, -149, 1344
0.009650, 253, 280, 2092, -942, -479, 994
0.009787, 253, 280, 2092, -942, -479, 994
0.009924, 253, 280, 2092, -942, -479, 994
0.010061, 253, 280, 2092, -942, -479, 994
0.010197, 253, 280, 2092, -942, -479, 994
0.010335, 253, 280, 2092, -942, -479, 994
0.010472, 253, 280, 2092, -942, -479, 994
0.010608, -78, 236, 2029, -1192, -758, 747
0.010745, -78, 236, 2029, -1192, -758, 747
0.010882, -78, 236, 2029, -1192, -758, 747
0.011019, -78, 236, 2029, -1192, -758, 747
0.011155, -78, 236, 2029, -1192, -758, 747
0.011292, -78, 236, 2029, -1192, -758, 747
0.011429, -78, 236, 2029, -1192, -758, 747
0.011565, -78, 236, 2029, -1192, -758, 747
0.011702, -427, 128, 1975, -1225, -1050, 684
0.011839, -427, 128, 1975, -1225, -1050, 684
0.011976, -427, 128, 1975, -1225, -1050, 684
0.012113, -427, 128, 1975, -1225, -1050, 684
0.012250, -427, 128, 1975, -1225, -1050, 684
0.012387, -427, 128, 1975, -1225, -1050, 684
0.012524, -427, 128, 1975, -1225, -1050, 684
0.012661, -300, 175, 1828, -1201, -1365, 792
0.012839, -300, 175, 1828, -1201, -1365, 792
0.012982, -300, 175, 1828, -1201, -1365, 792
0.013119, -300, 175, 1828, -1201, -1365, 792
0.013256, -300, 175, 1828, -1201, -1365, 792
0.013393, -300, 175, 1828, -1201, -1365, 792
0.013530, -300, 175, 1828, -1201, -1365, 792
0.013666, 175, 212, 1834, -1274, -1584, 774
0.013804, 175, 212, 1834, -1274, -1584, 774
0.013940, 175, 212, 1834, -1274, -1584, 774
0.014077, 175, 212, 1834, -1274, -1584, 774
0.014214, 175, 212, 1834, -1274, -1584, 774
0.014351, 175, 212, 1834, -1274, -1584, 774
0.014488, 175, 212, 1834, -1274, -1584, 774
0.014625, 568, 154, 2075, -1340, -1571, 494
0.014762, 568, 154, 2075, -1340, -1571, 494
0.014899, 568, 154, 2075, -1340, -1571, 494
0.015036, 568, 154, 2075, -1340, -1571, 494
0.015172, 568, 154, 2075, -1340, -1571, 494
0.015309, 568, 154, 2075, -1340, -1571, 494
0.015446, 568, 154, 2075, -1340, -1571, 494
0.015583, 568, 154, 2075, -1340, -1571, 494
0.015720, 1111, 232, 2136, -1271, -1325, -4
0.015857, 1111, 232, 2136, -1271, -1325, -4
0.015994, 1111, 232, 2136, -1271, -1325, -4
0.016130, 1111, 232, 2136, -1271, -1325, -4
0.016267, 1111, 232, 2136, -1271, -1325, -4
0.016404, 1111, 232, 2136, -1271, -1325, -4
0.016541, 1111, 232, 2136, -1271, -1325, -4
0.016677, 1033, 204, 1974, -1207, -1012, -767
0.016815, 1033, 204, 1974, -1207, -1012, -767
0.016952, 1033, 204, 1974, -1207, -1012, -767
0.017088, 1033, 204, 1974, -1207, -1012, -767
0.017225, 1033, 204, 1974, -1207, -1012, -767
0.017362, 1033, 204, 1974, -1207, -1012, -767
0.017499, 1033, 204, 1974, -1207, -1012, -767
0.017635, 1033, 204, 1974, -1207, -1012, -767
0.017772, -572, -29, 2144, -1079, -627, -1122
0.017909, -572, -29, 2144, -1079, -627, -1122
0.018046, -572, -29, 2144, -1079, -627, -1122
0.018183, -572, -29, 2144, -1079, -627, -1122
0.018320, -572, -29, 2144, -1079, -627, -1122
0.018457, -572, -29, 2144, -1079, -627, -1122
0.018594, -572, -29, 2144, -1079, -627, -1122
0.018726, -940, 31, 2385, -696, -184, -490
0.018864, -940, 31, 2385, -696, -184, -490
0.019002, -940, 31, 2385, -696, -184, -490
0.019139, -940, 31, 2385, -696, -184, -490
0.019275, -940, 31, 2385, -696, -184, -490
0.019412, -940, 31, 2385, -696, -184, -490
0.019549, -940, 31, 2385, -696, -184, -490
0.019686, 1186, 242, 2423, -284, 18, -239
0.019823, 1186, 242, 2423, -284, 18, -239
0.019960, 1186, 242, 2423, -284, 18, -239
0.020094, 1186, 242, 2423, -284, 18, -239
0.020231, 1186, 242, 2423, -284, 18, -239
0.020368, 1186, 242, 2423, -284, 18, -239
0.020504, 1186, 242, 2423, -284, 18, -239
0.020641, 1186, 242, 2423, -284, 18, -239
0.020778, 1520, 179, 2517, 28, 9, -1241
0.020915, 1520, 179, 2517, 28, 9, -1241
0.021052, 1520, 179, 2517, 28, 9, -1241
0.021189, 1520, 179, 2517, 28, 9, -1241
0.021325, 1520, 179, 2517, 28, 9, -1241
0.021462, 1520, 179, 2517, 28, 9, -1241
0.021599, 1520, 179, 2517, 28, 9, -1241
0.021735, -859, 107, 2255, 247, 114, -1820
0.021872, -859, 107, 2255, 247, 114, -1820
0.022009, -859, 107, 2255, 247, 114, -1820
0.022146, -859, 107, 2255, 247, 114, -1820
0.022283, -859, 107, 2255, 247, 114, -1820
0.022420, -859, 107, 2255, 247, 114, -1820
0.022557, -859, 107, 2255, 247, 114, -1820
0.022694, -859, 107, 2255, 247, 114, -1820
0.022830, -3009, 189, 1776, 178, 346, -800
0.022967, -3009, 189, 1776, 178, 346, -800
0.023104, -3009, 189, 1776, 178, 346, -800
0.023241, -3009, 189, 1776, 178, 346, -800
0.023378, -3009, 189, 1776, 178, 346, -800
0.023514, -3009, 189, 1776, 178, 346, -800
0.023651, -3009, 189, 1776, 178, 346, -800
0.023788, -3591, 265, 1820, -100, 453, 1245
0.023925, -3591, 265, 1820, -100, 453, 1245
0.024062, -3591, 265, 1820, -100, 453, 1245
0.024199, -3591, 265, 1820, -100, 453, 1245
0.024335, -3591, 265, 1820, -100, 453, 1245
0.024472, -3591, 265, 1820, -100, 453, 1245
0.024609, -3591, 265, 1820, -100, 453, 1245
0.024746, -3591, 265, 1820, -100, 453, 1245
0.024882, -2517, 268, 2197, -295, 204, 3196
0.025019, -2517, 268, 2197, -295, 204, 3196
0.025156, -2517, 268, 2197, -295, 204, 3196
0.025293, -2517, 268, 2197, -295, 204, 3196
0.025430, -2517, 268, 2197, -295, 204, 3196
0.025566, -2517, 268, 2197, -295, 204, 3196
0.025711, -2517, 268, 2197, -295, 204, 3196
0.025849, -1601, 235, 2266, -527, -325, 4359
0.025986, -1601, 235, 2266, -527, -325, 4359
0.026123, -1601, 235, 2266, -527, -325, 4359
0.026260, -1601, 235, 2266, -527, -325, 4359
0.026397, -1601, 235, 2266, -527, -325, 4359
0.026534, -1601, 235, 2266, -527, -325, 4359
0.026670, -1601, 235, 2266, -527, -325, 4359
0.026807, -1283, 217, 2095, -1012, -871, 5114
0.026944, -1283, 217, 2095, -1012, -871, 5114
0.027081, -1283, 217, 2095, -1012, -871, 5114
0.027217, -1283, 217, 2095, -1012, -871, 5114
0.027354, -1283, 217, 2095, -1012, -871, 5114
0.027491, -1283, 217, 2095, -1012, -871, 5114
0.027627, -1283, 217, 2095, -1012, -871, 5114
0.027764, -1283, 217, 2095, -1012, -871, 5114
0.027901, -395, 195, 2137, -1567, -1320, 5584
0.028038, -395, 195, 2137, -1567, -1320, 5584
0.028174, -395, 195, 2137, -1567, -1320, 5584
0.028311, -395, 195, 2137, -1567, -1320, 5584
0.028448, -395, 195, 2137, -1567, -1320, 5584
0.028585, -395, 195, 2137, -1567, -1320, 5584
0.028721, -395, 195, 2137, -1567, -1320, 5584
0.028858, 380, 175, 2271, -1936, -1652, 5437
0.028995, 380, 175, 2271, -1936, -1652, 5437
0.029132, 380, 175, 2271, -1936, -1652, 5437
0.029268, 380, 175, 2271, -1936, -1652, 5437
0.029405, 380, 175, 2271, -1936, -1652, 5437
0.029542, 380, 175, 2271, -1936, -1652, 5437
0.029679, 380, 175, 2271, -1936, -1652, 5437
0.029815, 380, 175, 2271, -1936, -1652, 5437
0.029952, 746, 138, 2274, -2088, -1930, 4901
0.030089, 746, 138, 2274, -2088, -1930, 4901
0.030226, 746, 138, 2274, -2088, -1930, 4901
0.030363, 746, 138, 2274, -2088, -1930, 4901
0.030500, 746, 138, 2274, -2088, -1930, 4901
0.030637, 746, 138, 2274, -2088, -1930, 4901
0.030773, 746, 138, 2274, -2088, -1930, 4901
0.030910, 1569, 18, 2288, -2065, -2166, 4107
0.031047, 1569, 18, 2288, -2065, -2166, 4107
0.031184, 1569, 18, 2288, -2065, -2166, 4107
0.031320, 1569, 18, 2288, -2065, -2166, 4107
0.031457, 1569, 18, 2288, -2065, -2166, 4107
0.031594, 1569, 18, 2288, -2065, -2166, 4107
0.031730, 1569, 18, 2288, -2065, -2166, 4107
0.031867, 3144, -140, 2351, -1835, -2222, 2650
0.032004, 3144, -140, 2351, -1835, -2222, 2650
0.032141, 3144, -140, 2351, -1835, -2222, 2650
0.032278, 3144, -140, 2351, -1835, -2222, 2650
0.032414, 3144, -140, 2351, -1835, -2222, 2650
0.032551, 3144, -140, 2351, -1835, -2222, 2650
0.032688, 3144, -140, 2351, -1835, -2222, 2650
0.032825, 3144, -140, 2351, -1835, -2222, 2650
0.032961, 4083, -223, 2110, -1449, -2017, 272
0.033098, 4083, -223, 2110, -1449, -2017, 272
0.033235, 4083, -223, 2110, -1449, -2017, 272
0.033372, 4083, -223, 2110, -1449, -2017, 272
0.033509, 4083, -223, 2110, -1449, -2017, 272
0.033646, 4083, -223, 2110, -1449, -2017, 272
0.033782, 4083, -223, 2110, -1449, -2017, 272
0.033919, 3365, -181, 1623, -1108, -1563, -2304
0.034056, 3365, -181, 1623, -1108, -1563, -2304
0.034193, 3365, -181, 1623, -1108, -1563, -2304
0.034329, 3365, -181, 1623, -1108, -1563, -2304
0.034466, 3365, -181, 1623, -1108, -1563, -2304
0.034603, 3365, -181, 1623, -1108, -1563, -2304
0.034740, 3365, -181, 1623, -1108, -1563, -2304
0.034876, 3365, -181, 1623, -1108, -1563, -2304
0.035013, 2557, -80, 1639, -742, -902, -4208
0.035150, 2557, -80, 1639, -742, -902, -4208
0.035287, 2557, -80, 1639, -742, -902, -4208
0.035424, 2557, -80, 1639, -742, -902, -4208
0.035560, 2557, -80, 1639, -742, -902, -4208
0.035697, 2557, -80, 1639, -742, -902, -4208
0.035834, 2557, -80, 1639, -742, -902, -4208
0.035971, 2126, 22, 2225, -7, -33, -5569
0.036108, 2126, 22, 2225, -7, -33, -5569
0.036245, 2126, 22, 2225, -7, -33, -5569
0.036381, 2126, 22, 2225, -7, -33, -5569
0.036518, 2126, 22, 2225, -7, -33, -5569
0.036655, 2126, 22, 2225, -7, -33, -5569
0.036791, 2126, 22, 2225, -7, -33, -5569
0.036928, 1405, 148, 2413, 1041, 937, -6514
0.037065, 1405, 148, 2413, 1041, 937, -6514
0.037202, 1405, 148, 2413, 1041, 937, -6514
0.037339, 1405, 148, 2413, 1041, 937, -6514
0.037475, 1405, 148, 2413, 1041, 937, -6514
0.037612, 1405, 148, 2413, 1041, 937, -6514
0.037749, 1405, 148, 2413, 1041, 937, -6514
0.037885, 1405, 148, 2413, 1041, 937, -6514
0.038027, 346, 94, 1976, 1857, 1697, -6936
0.038165, 346, 94, 1976, 1857, 1697, -6936
0.038303, 346, 94, 1976, 1857, 1697, -6936
0.038440, 346, 94, 1976, 1857, 1697, -6936
0.038577, 346, 94, 1976, 1857, 1697, -6936
0.038713, 346, 94, 1976, 1857, 1697, -6936
0.038850, 346, 94, 1976, 1857, 1697, -6936
0.038987, -2045, 67, 2151, 2325, 2214, -6448
0.039124, -2045, 67, 2151, 2325, 2214, -6448
0.039260, -2045, 67, 2151, 2325, 2214, -6448
0.039397, -2045, 67, 2151, 2325, 2214, -6448
0.039534, -2045, 67, 2151, 2325, 2214, -6448
0.039671, -2045, 67, 2151, 2325, 2214, -6448
0.039807, -2045, 67, 2151, 2325, 2214, -6448
0.039944, -2045, 67, 2151, 2325, 2214, -6448
0.040081, -4250, 309, 2589, 2848, 2623, -4337
0.040218, -4250, 309, 2589, 2848, 2623, -4337
0.040355, -4250, 309, 2589, 2848, 2623, -4337
0.040491, -4250, 309, 2589, 2848, 2623, -4337
0.040628, -4250, 309, 2589, 2848, 2623, -4337
0.040765, -4250, 309, 2589, 2848, 2623, -4337
0.040901, -4250, 309, 2589, 2848, 2623, -4337
0.041038, -3844, 339, 1405, 2827, 2605, -1398
0.041175, -3844, 339, 1405, 2827, 2605, -1398
0.041312, -3844, 339, 1405, 2827, 2605, -1398
0.041449, -3844, 339, 1405, 2827, 2605, -1398
0.041585, -3844, 339, 1405, 2827, 2605, -1398
0.041722, -3844, 339, 1405, 2827, 2605, -1398
0.041859, -3844, 339, 1405, 2827, 2605, -1398
0.041995, -2527, 215, 303, 1459, 1755, 729
0.042132, -2527, 215, 303, 1459, 1755, 729
0.042269, -2527, 215, 303, 1459, 1755, 729
0.042406, -2527, 215, 303, 1459, 1755, 729
0.042543, -2527, 215, 303, 1459, 1755, 729
0.042680, -2527, 215, 303, 1459, 1755, 729
0.042817, -2527, 215, 303, 1459, 1755, 729
0.042953, -2527, 215, 303, 1459, 1755, 729
0.043090, -2389, 276, 1497, -263, 490, 1967
0.043227, -2389, 276, 1497, -263, 490, 1967
0.043364, -2389, 276, 1497, -263, 490, 1967
0.043501, -2389, 276, 1497, -263, 490, 1967
0.043637, -2389, 276, 1497, -263, 490, 1967
0.043774, -2389, 276, 1497, -263, 490, 1967
0.043911, -2389, 276, 1497, -263, 490, 1967
0.044047, -3154, 410, 2765, -1143, -357, 3310
0.044184, -3154, 410, 2765, -1143, -357, 3310
0.044321, -3154, 410, 2765, -1143, -357, 3310
0.044458, -3154, 410, 2765, -1143, -357, 3310
0.044595, -3154, 410, 2765, -1143, -357, 3310
0.044731, -3154, 410, 2765, -1143, -357, 3310
0.044868, -3154, 410, 2765, -1143, -357, 3310
0.045005, -3154, 410, 2765, -1143, -357, 3310
0.045141, -2733, 432, 2561, -1414, -866, 4971
0.045279, -2733, 432, 2561, -1414, -866, 4971
0.045415, -2733, 432, 2561, -1414, -866, 4971
0.045552, -2733, 432, 2561, -1414, -866, 4971
0.045689, -2733, 432, 2561, -1414, -866, 4971
0.045825, -2733, 432, 2561, -1414, -866, 4971
0.045962, -2733, 432, 2561, -1414, -866, 4971
0.046099, -715, 290, 2200, -1702, -1500, 5950
0.046236, -715, 290, 2200, -1702, -1500, 5950
0.046373, -715, 290, 2200, -1702, -1500, 5950
0.046510, -715, 290, 2200, -1702, -1500, 5950
0.046646, -715, 290, 2200, -1702, -1500, 5950
0.046783, -715, 290, 2200, -1702, -1500, 5950
0.046920, -715, 290, 2200, -1702, -1500, 5950
0.047057, 647, 159, 2234, -2173, -2098, 5739
0.047194, 647, 159, 2234, -2173, -2098, 5739
0.047330, 647, 159, 2234, -2173, -2098, 5739
0.047467, 647, 159, 2234, -2173, -2098, 5739
0.047604, 647, 159, 2234, -2173, -2098, 5739
0.047741, 647, 159, 2234, -2173, -2098, 5739
0.047877, 647, 159, 2234, -2173, -2098, 5739
0.048014, 647, 159, 2234, -2173, -2098, 5739
0.048151, 992, 105, 2237, -2615, -2503, 4970
0.048288, 992, 105, 2237, -2615, -2503, 4970
0.048425, 992, 105, 2237, -2615, -2503, 4970
0.048561, 992, 105, 2237, -2615, -2503, 4970
0.048698, 992, 105, 2237, -2615, -2503, 4970
0.048835, 992, 105, 2237, -2615, -2503, 4970
0.048971, 992, 105, 2237, -2615, -2503, 4970
0.049108, 1192, 70, 2148, -2824, -2606, 4052
0.049245, 1192, 70, 2148, -2824, -2606, 4052
0.049382, 1192, 70, 2148, -2824, -2606, 4052
0.049519, 1192, 70, 2148, -2824, -2606, 4052
0.049655, 1192, 70, 2148, -2824, -2606, 4052
0.049792, 1192, 70, 2148, -2824, -2606, 4052
0.049929, 1192, 70, 2148, -2824, -2606, 4052
0.050065, 1192, 70, 2148, -2824, -2606, 4052
0.050202, 1069, 76, 2052, -2834, -2213, 3113
0.050339, 1069, 76, 2052, -2834, -2213, 3113
0.050480, 1069, 76, 2052, -2834, -2213, 3113
0.050617, 1069, 76, 2052, -2834, -2213, 3113
0.050754, 1069, 76, 2052, -2834, -2213, 3113
0.050891, 1069, 76, 2052, -2834, -2213, 3113
0.051027, 1069, 76, 2052, -2834, -2213, 3113
0.051164, 842, 92, 1960, -2786, -1524, 2416
0.051301, 842, 92, 1960, -2786, -1524, 2416
0.051438, 842, 92, 1960, -2786, -1524, 2416
0.051575, 842, 92, 1960, -2786, -1524, 2416
0.051712, 842, 92, 1960, -2786, -1524, 2416
0.051848, 842, 92, 1960, -2786, -1524, 2416
0.051985, 842, 92, 1960, -2786, -1524, 2416
0.052122, 916, 97, 2028, -2691, -843, 1907
0.052259, 916, 97, 2028, -2691, -843, 1907
0.052396, 916, 97, 2028, -2691, -843, 1907
0.052532, 916, 97, 2028, -2691, -843, 1907
0.052669, 916, 97, 2028, -2691, -843, 1907
0.052806, 916, 97, 2028, -2691, -843, 1907
0.052943, 916, 97, 2028, -2691, -843, 1907
0.053079, 916, 97, 2028, -2691, -843, 1907
0.053216, 978, 134, 2312, -2417, -223, 1348
0.053353, 978, 134, 2312, -2417, -223, 1348
0.053490, 978, 134, 2312, -2417, -223, 1348
0.053627, 978, 134, 2312, -2417, -223, 1348
0.053762, 978, 134, 2312, -2417, -223, 1348
0.053896, 978, 134, 2312, -2417, -223, 1348
0.054031, 978, 134, 2312, -2417, -223, 1348
0.054165, 900, 140, 2306, -2005, 307, 787
0.054301, 900, 140, 2306, -2005, 307, 787
0.054435, 900, 140, 2306, -2005, 307, 787
0.054570, 900, 140, 2306, -2005, 307, 787
0.054705, 900, 140, 2306, -2005, 307, 787
0.054839, 900, 140, 2306, -2005, 307, 787
0.054974, 900, 140, 2306, -2005, 307, 787
0.055108, 900, 140, 2306, -2005, 307, 787
0.055243, 872, 88, 1682, -1799, 649, 337
0.055378, 872, 88, 1682, -1799, 649, 337
0.055512, 872, 88, 1682, -1799, 649, 337
0.055647, 872, 88, 1682, -1799, 649, 337
0.055782, 872, 88, 1682, -1799, 649, 337
0.055916, 872, 88, 1682, -1799, 649, 337
0.056051, 872, 88, 1682, -1799, 649, 337
0.056186, 550, 33, 1246, -1997, 720, -95
0.056320, 550, 33, 1246, -1997, 720, -95
0.056455, 550, 33, 1246, -1997, 720, -95
0.056590, 550, 33, 1246, -1997, 720, -95
0.056724, 550, 33, 1246, -1997, 720, -95
0.056859, 550, 33, 1246, -1997, 720, -95
0.056993, 550, 33, 1246, -1997, 720, -95
0.057128, 550, 33, 1246, -1997, 720, -95
0.057263, -973, 96, 1604, -2245, 658, -139
0.057397, -973, 96, 1604, -2245, 658, -139
0.057532, -973, 96, 1604, -2245, 658, -139
0.057667, -973, 96, 1604, -2245, 658, -139
0.057802, -973, 96, 1604, -2245, 658, -139
0.057936, -973, 96, 1604, -2245, 658, -139
0.058071, -973, 96, 1604, -2245, 658, -139
0.058206, -2050, 268, 2135, -2127, 584, 833
0.058341, -2050, 268, 2135, -2127, 584, 833
0.058475, -2050, 268, 2135, -2127, 584, 833
0.058609, -2050, 268, 2135, -2127, 584, 833
0.058743, -2050, 268, 2135, -2127, 584, 833
0.058877, -2050, 268, 2135, -2127, 584, 833
0.059011, -2050, 268, 2135, -2127, 584, 833
0.059145, -2050, 268, 2135, -2127, 584, 833
0.059279, -1022, 242, 2176, -1798, 366, 2017
0.059413, -1022, 242, 2176, -1798, 366, 2017
0.059548, -1022, 242, 2176, -1798, 366, 2017
0.059683, -1022, 242, 2176, -1798, 366, 2017
0.059817, -1022, 242, 2176, -1798, 366, 2017
0.059952, -1022, 242, 2176, -1798, 366, 2017
0.060086, -1022, 242, 2176, -1798, 366, 2017
0.060221, -1022, 242, 2176, -1798, 366, 2017
0.060355, -301, 114, 1983, -1686, 42, 2448
0.060490, -301, 114, 1983, -1686, 42, 2448
0.060624, -301, 114, 1983, -1686, 42, 2448
0.060759, -301, 114, 1983, -1686, 42, 2448
0.060894, -301, 114, 1983, -1686, 42, 2448
0.061028, -301, 114, 1983, -1686, 42, 2448
0.061163, -301, 114, 1983, -1686, 42, 2448
0.061297, -880, 120, 2001, -1833, -248, 2761
0.061432, -880, 120, 2001, -1833, -248, 2761
0.061566, -880, 120, 2001, -1833, -248, 2761
0.061700, -880, 120, 2001, -1833, -248, 2761
0.061835, -880, 120, 2001, -1833, -248, 2761
0.061969, -880, 120, 2001, -1833, -248, 2761
0.062104, -880, 120, 2001, -1833, -248, 2761
0.062238, -880, 120, 2001, -1833, -248, 2761
0.062373, -633, 145, 2030, -2042, -545, 3330
0.062508, -633, 145, 2030, -2042, -545, 3330
0.062642, -633, 145, 2030, -2042, -545, 3330
0.062777, -633, 145, 2030, -2042, -545, 3330
0.062911, -633, 145, 2030, -2042, -545, 3330
0.063046, -633, 145, 2030, -2042, -545, 3330
0.063180, -633, 145, 2030, -2042, -545, 3330
0.063324, 743, 65, 1925, -2265, -895, 3354
0.063459, 743, 65, 1925, -2265, -895, 3354
0.063594, 743, 65, 1925, -2265, -895, 3354
0.063728, 743, 65, 1925, -2265, -895, 3354
0.063863, 743, 65, 1925, -2265, -895, 3354
0.063998, 743, 65, 1925, -2265, -895, 3354
0.064133, 743, 65, 1925, -2265, -895, 3354
0.064269, 743, 65, 1925, -2265, -895, 3354
0.064403, 1385, -42, 1902, -2513, -1220, 2514
0.064538, 1385, -42, 1902, -2513, -1220, 2514
0.064673, 1385, -42, 1902, -2513, -1220, 2514
0.064808, 1385, -42, 1902, -2513, -1220, 2514
0.064942, 1385, -42, 1902, -2513, -1220, 2514
0.065077, 1385, -42, 1902, -2513, -1220, 2514
0.065212, 1385, -42, 1902, -2513, -1220, 2514
0.065346, 1282, -41, 2065, -2690, -1405, 1482
0.065476, 1282, -41, 2065, -2690, -1405, 1482
0.065611, 1282, -41, 2065, -2690, -1405, 1482
0.065745, 1282, -41, 2065, -2690, -1405, 1482
0.065880, 1282, -41, 2065, -2690, -1405, 1482
0.066015, 1282, -41, 2065, -2690, -1405, 1482
0.066149, 1282, -41, 2065, -2690, -1405, 1482
0.066284, 1282, -41, 2065, -2690, -1405, 1482
0.066419, 2116, 19, 2398, -2589, -1440, 418
0.066554, 2116, 19, 2398, -2589, -1440, 418
0.066689, 2116, 19, 2398, -2589, -1440, 418
0.066824, 2116, 19, 2398, -2589, -1440, 418
0.066958, 2116, 19, 2398, -2589, -1440, 418
0.067093, 2116, 19, 2398, -2589, -1440, 418
0.067228, 2116, 19, 2398, -2589, -1440, 418
0.067362, 3884, 24, 2907, -2017, -1348, -1406
0.067497, 3884, 24, 2907, -2017, -1348, -1406
0.067632, 3884, 24, 2907, -2017, -1348, -1406
0.067766, 3884, 24, 2907, -2017, -1348, -1406
0.067901, 3884, 24, 2907, -2017, -1348, -1406
0.068035, 3884, 24, 2907, -2017, -1348, -1406
0.068170, 3884, 24, 2907, -2017, -1348, -1406
0.068305, 3884, 24, 2907, -2017, -1348, -1406
0.068439, 4926, -52, 3810, -679, -1002, -4256
0.068574, 4926, -52, 3810, -679, -1002, -4256
0.068709, 4926, -52, 3810, -679, -1002, -4256
0.068843, 4926, -52, 3810, -679, -1002, -4256
0.068978, 4926, -52, 3810, -679, -1002, -4256
0.069113, 4926, -52, 3810, -679, -1002, -4256
0.069247, 4926, -52, 3810, -679, -1002, -4256
0.069382, 3680, 57, 4502, 1453, -134, -7164
0.069517, 3680, 57, 4502, 1453, -134, -7164
0.069652, 3680, 57, 4502, 1453, -134, -7164
0.069786, 3680, 57, 4502, 1453, -134, -7164
0.069921, 3680, 57, 4502, 1453, -134, -7164
0.070055, 3680, 57, 4502, 1453, -134, -7164
0.070190, 3680, 57, 4502, 1453, -134, -7164
0.070325, 3680, 57, 4502, 1453, -134, -7164
0.070459, 1274, 283, 3933, 3765, 1147, -8775
0.070594, 1274, 283, 3933, 3765, 1147, -8775
0.070729, 1274, 283, 3933, 3765, 1147, -8775
0.070864, 1274, 283, 3933, 3765, 1147, -8775
0.070998, 1274, 283, 3933, 3765, 1147, -8775
0.071133, 1274, 283, 3933, 3765, 1147, -8775
0.071267, 1274, 283, 3933, 3765, 1147, -8775
0.071402, -879, 150, 1978, 5237, 2235, -8890
0.071537, -879, 150, 1978, 5237, 2235, -8890
0.071671, -879, 150, 1978, 5237, 2235, -8890
0.071806, -879, 150, 1978, 5237, 2235, -8890
0.071940, -879, 150, 1978, 5237, 2235, -8890
0.072075, -879, 150, 1978, 5237, 2235, -8890
0.072209, -879, 150, 1978, 5237, 2235, -8890
0.072344, -879, 150, 1978, 5237, 2235, -8890
0.072479, -4509, 51, -366, 4787, 2800, -7455
0.072614, -4509, 51, -366, 4787, 2800, -7455
0.072748, -4509, 51, -366, 4787, 2800, -7455
0.072883, -4509, 51, -366, 4787, 2800, -7455
0.073018, -4509, 51, -366, 4787, 2800, -7455
0.073152, -4509, 51, -366, 4787, 2800, -7455
0.073287, -4509, 51, -366, 4787, 2800, -7455
0.073421, -8011, 367, -972, 2670, 2873, -3588
0.073556, -8011, 367, -972, 2670, 2873, -3588
0.073691, -8011, 367, -972, 2670, 2873, -3588
0.073826, -8011, 367, -972, 2670, 2873, -3588
0.073960, -8011, 367, -972, 2670, 2873, -3588
0.074095, -8011, 367, -972, 2670, 2873, -3588
0.074229, -8011, 367, -972, 2670, 2873, -3588
0.074364, -8011, 367, -972, 2670, 2873, -3588
0.074499, -6971, 538, 576, 494, 2453, 1584
0.074634, -6971, 538, 576, 494, 2453, 1584
0.074769, -6971, 538, 576, 494, 2453, 1584
0.074903, -6971, 538, 576, 494, 2453, 1584
0.075038, -6971, 538, 576, 494, 2453, 1584
0.075172, -6971, 538, 576, 494, 2453, 1584
0.075307, -6971, 538, 576, 494, 2453, 1584
0.075442, -2939, 361, 2184, -779, 1606, 5074
0.075585, -2939, 361, 2184, -779, 1606, 5074
0.075721, -2939, 361, 2184, -779, 1606, 5074
0.075856, -2939, 361, 2184, -779, 1606, 5074
0.075990, -2939, 361, 2184, -779, 1606, 5074
0.076125, -2939, 361, 2184, -779, 1606, 5074
0.076260, -2939, 361, 2184, -779, 1606, 5074
0.076394, -2939, 361, 2184, -779, 1606, 5074
0.076529, -325, 185, 2535, -1477, 513, 6074
0.076664, -325, 185, 2535, -1477, 513, 6074
0.076794, -325, 185, 2535, -1477, 513, 6074
0.076928, -325, 185, 2535, -1477, 513, 6074
0.077063, -325, 185, 2535, -1477, 513, 6074
0.077197, -325, 185, 2535, -1477, 513, 6074
0.077332, -325, 185, 2535, -1477, 513, 6074
0.077467, 737, 97, 2269, -2170, -600, 5840
0.077602, 737, 97, 2269, -2170, -600, 5840
0.077736, 737, 97, 2269, -2170, -600, 5840
0.077871, 737, 97, 2269, -2170, -600, 5840
0.078000, 737, 97, 2269, -2170, -600, 5840
0.078135, 737, 97, 2269, -2170, -600, 5840
0.078270, 737, 97, 2269, -2170, -600, 5840
0.078405, 737, 97, 2269, -2170, -600, 5840
0.078540, 2082, 14, 2044, -2835, -1681, 4828
0.078675, 2082, 14, 2044, -2835, -1681, 4828
0.078810, 2082, 14, 2044, -2835, -1681, 4828
0.078944, 2082, 14, 2044, -2835, -1681, 4828
0.079079, 2082, 14, 2044, -2835, -1681, 4828
0.079214, 2082, 14, 2044, -2835, -1681, 4828
0.079348, 2082, 14, 2044, -2835, -1681, 4828
0.079483, 2082, 14, 2044, -2835, -1681, 4828
0.079618, 3291, -21, 1902, -3193, -2758, 2772
0.079752, 3291, -21, 1902, -3193, -2758, 2772
0.079887, 3291, -21, 1902, -3193, -2758, 2772
0.080022, 3291, -21, 1902, -3193, -2758, 2772
0.080156, 3291, -21, 1902, -3193, -2758, 2772
0.080291, 3291, -21, 1902, -3193, -2758, 2772
0.080426, 3291, -21, 1902, -3193, -2758, 2772
0.080560, 3039, 27, 1981, -3067, -3486, 252
0.080695, 3039, 27, 1981, -3067, -3486, 252
0.080830, 3039, 27, 1981, -3067, -3486, 252
0.080964, 3039, 27, 1981, -3067, -3486, 252
0.081099, 3039, 27, 1981, -3067, -3486, 252
0.081234, 3039, 27, 1981, -3067, -3486, 252
0.081368, 3039, 27, 1981, -3067, -3486, 252
0.081503, 3039, 27, 1981, -3067, -3486, 252
0.081637, 1285, 12, 1806, -2545, -3364, -1520
0.081772, 1285, 12, 1806, -2545, -3364, -1520
0.081907, 1285, 12, 1806, -2545, -3364, -1520
0.082042, 1285, 12, 1806, -2545, -3364, -1520
0.082176, 1285, 12, 1806, -2545, -3364, -1520
0.082311, 1285, 12, 1806, -2545, -3364, -1520
0.082446, 1285, 12, 1806, -2545, -3364, -1520
0.082580, -344, -60, 1247, -2092, -2390, -1868
0.082715, -344, -60, 1247, -2092, -2390, -1868
0.082850, -344, -60, 1247, -2092, -2390, -1868
0.082985, -344, -60, 1247, -2092, -2390, -1868
0.083119, -344, -60, 1247, -2092, -2390, -1868
0.083254, -344, -60, 1247, -2092, -2390, -1868
0.083384, -344, -60, 1247, -2092, -2390, -1868
0.083519, -344, -60, 1247, -2092, -2390, -1868
0.083654, 205, -6, 1232, -1950, -1043, -1463
0.083789, 205, -6, 1232, -1950, -1043, -1463
0.083924, 205, -6, 1232, -1950, -1043, -1463
0.084059, 205, -6, 1232, -1950, -1043, -1463
0.084194, 205, -6, 1232, -1950, -1043, -1463
0.084332, 205, -6, 1232, -1950, -1043, -1463
0.084470, 205, -6, 1232, -1950, -1043, -1463
0.084601, 1304, 94, 1728, -1953, 312, -1594
0.084736, 1304, 94, 1728, -1953, 312, -1594
0.084871, 1304, 94, 1728, -1953, 312, -1594
0.085006, 1304, 94, 1728, -1953, 312, -1594
0.085141, 1304, 94, 1728, -1953, 312, -1594
0.085276, 1304, 94, 1728, -1953, 312, -1594
0.085411, 1304, 94, 1728, -1953, 312, -1594
0.085545, 1304, 94, 1728, -1953, 312, -1594
0.085680, 465, 53, 2195, -1933, 1514, -2019
0.085815, 465, 53, 2195, -1933, 1514, -2019
0.085950, 465, 53, 2195, -1933, 1514, -2019
0.086084, 465, 53, 2195, -1933, 1514, -2019
0.086219, 465, 53, 2195, -1933, 1514, -2019
0.086354, 465, 53, 2195, -1933, 1514, -2019
0.086488, 465, 53, 2195, -1933, 1514, -2019
0.086623, -460, -184, 2646, -1611, 2303, -1824
0.086758, -460, -184, 2646, -1611, 2303, -1824
0.086892, -460, -184, 2646, -1611, 2303, -1824
0.087027, -460, -184, 2646, -1611, 2303, -1824
0.087162, -460, -184, 2646, -1611, 2303, -1824
0.087296, -460, -184, 2646, -1611, 2303, -1824
0.087431, -460, -184, 2646, -1611, 2303, -1824
0.087566, -460, -184, 2646, -1611, 2303, -1824
0.087701, -8, -298, 2650, -990, 2523, -1487
0.087848, -8, -298, 2650, -990, 2523, -1487
0.087984, -8, -298, 2650, -990, 2523, -1487
0.088118, -8, -298, 2650, -990, 2523, -1487
0.088253, -8, -298, 2650, -990, 2523, -1487
0.088388, -8, -298, 2650, -990, 2523, -1487
0.088522, -8, -298, 2650, -990, 2523, -1487
0.088657, -90, -106, 2343, -531, 2268, -1591
0.088792, -90, -106, 2343, -531, 2268, -1591
0.088926, -90, -106, 2343, -531, 2268, -1591
0.089061, -90, -106, 2343, -531, 2268, -1591
0.089195, -90, -106, 2343, -531, 2268, -1591
0.089330, -90, -106, 2343, -531, 2268, -1591
0.089464, -90, -106, 2343, -531, 2268, -1591
0.089599, -90, -106, 2343, -531, 2268, -1591
0.089734, -1778, 201, 2277, -356, 1800, -1338
0.089863, -1778, 201, 2277, -356, 1800, -1338
0.089993, -1778, 201, 2277, -356, 1800, -1338
0.090128, -1778, 201, 2277, -356, 1800, -1338
0.090262, -1778, 201, 2277, -356, 1800, -1338
0.090398, -1778, 201, 2277, -356, 1800, -1338
0.090533, -1778, 201, 2277, -356, 1800, -1338
0.090667, -2516, 391, 2178, -330, 1280, -81
0.090802, -2516, 391, 2178, -330, 1280, -81
0.090937, -2516, 391, 2178, -330, 1280, -81
0.091071, -2516, 391, 2178, -330, 1280, -81
0.091206, -2516, 391, 2178, -330, 1280, -81
0.091341, -2516, 391, 2178, -330, 1280, -81
0.091475, -2516, 391, 2178, -330, 1280, -81
0.091610, -2516, 391, 2178, -330, 1280, -81
0.091744, -1278, 267, 2116, -468, 601, 1100
0.091879, -1278, 267, 2116, -468, 601, 1100
0.092014, -1278, 267, 2116, -468, 601, 1100
0.092148, -1278, 267, 2116, -468, 601, 1100
0.092283, -1278, 267, 2116, -468, 601, 1100
0.092418, -1278, 267, 2116, -468, 601, 1100
0.092552, -1278, 267, 2116, -468, 601, 1100
0.092687, -743, 166, 2218, -721, -102, 1518
0.092822, -743, 166, 2218, -721, -102, 1518
0.092956, -743, 166, 2218, -721, -102, 1518
0.093091, -743, 166, 2218, -721, -102, 1518
0.093225, -743, 166, 2218, -721, -102, 1518
0.093360, -743, 166, 2218, -721, -102, 1518
0.093495, -743, 166, 2218, -721, -102, 1518
0.093629, -743, 166, 2218, -721, -102, 1518
0.093764, -714, 212, 2292, -993, -583, 1858
0.093899, -714, 212, 2292, -993, -583, 1858
0.094033, -714, 212, 2292, -993, -583, 1858
0.094168, -714, 212, 2292, -993, -583, 1858
0.094303, -714, 212, 2292, -993, -583, 1858
0.094438, -714, 212, 2292, -993, -583, 1858
0.094572, -714, 212, 2292, -993, -583, 1858
0.094707, 285, 137, 2289, -1203, -864, 2010
0.094842, 285, 137, 2289, -1203, -864, 2010
0.094976, 285, 137, 2289, -1203, -864, 2010
0.095111, 285, 137, 2289, -1203, -864, 2010
0.095245, 285, 137, 2289, -1203, -864, 2010
0.095380, 285, 137, 2289, -1203, -864, 2010
0.095515, 285, 137, 2289, -1203, -864, 2010
0.095649, 285, 137, 2289, -1203, -864, 2010
0.095784, 1021, 70, 2211, -1307, -931, 1480
0.095919, 1021, 70, 2211, -1307, -931, 1480
0.096053, 1021, 70, 2211, -1307, -931, 1480
0.096188, 1021, 70, 2211, -1307, -931, 1480
0.096323, 1021, 70, 2211, -1307, -931, 1480
0.096457, 1021, 70, 2211, -1307, -931, 1480
0.096592, 1021, 70, 2211, -1307, -931, 1480
0.096726, 831, 105, 2075, -1341, -760, 696
0.096861, 831, 105, 2075, -1341, -760, 696
0.096996, 831, 105, 2075, -1341, -760, 696
0.097130, 831, 105, 2075, -1341, -760, 696
0.097265, 831, 105, 2075, -1341, -760, 696
0.097399, 831, 105, 2075, -1341, -760, 696
0.097534, 831, 105, 2075, -1341, -760, 696
0.097668, 831, 105, 2075, -1341, -760, 696
0.097803, 186, 197, 1881, -1389, -383, 240
0.097938, 186, 197, 1881, -1389, -383, 240
0.098072, 186, 197, 1881, -1389, -383, 240
0.098207, 186, 197, 1881, -1389, -383, 240
0.098342, 186, 197, 1881, -1389, -383, 240
0.098476, 186, 197, 1881, -1389, -383, 240
0.098611, 186, 197, 1881, -1389, -383, 240
0.098746, 186, 197, 1881, -1389, -383, 240
0.098880, -92, 219, 1938, -1415, 133, 191
0.099015, -92, 219, 1938, -1415, 133, 191
0.099150, -92, 219, 1938, -1415, 133, 191
0.099284, -92, 219, 1938, -1415, 133, 191
0.099419, -92, 219, 1938, -1415, 133, 191
0.099553, -92, 219, 1938, -1415, 133, 191
0.099688, -92, 219, 1938, -1415, 133, 191
0.099823, 442, 121, 2208, -1231, 600, 150
0.099957, 442, 121, 2208, -1231, 600, 150
0.100092, 442, 121, 2208, -1231, 600, 150
0.100226, 442, 121, 2208, -1231, 600, 150
0.100367, 442, 121, 2208, -1231, 600, 150
0.100501, 442, 121, 2208, -1231, 600, 150
0.100636, 442, 121, 2208, -1231, 600, 150
0.100771, 442, 121, 2208, -1231, 600, 150
0.100905, 906, 121, 2135, -942, 900, -225
0.101040, 906, 121, 2135, -942, 900, -225
0.101175, 906, 121, 2135, -942, 900, -225
0.101309, 906, 121, 2135, -942, 900, -225
0.101444, 906, 121, 2135, -942, 900, -225
0.101579, 906, 121, 2135, -942, 900, -225
0.101713, 906, 121, 2135, -942, 900, -225
0.101848, 572, 155, 1781, -881, 1053, -750
0.101983, 572, 155, 1781, -881, 1053, -750
0.102117, 572, 155, 1781, -881, 1053, -750
0.102252, 572, 155, 1781, -881, 1053, -750
0.102387, 572, 155, 1781, -881, 1053, -750
0.102521, 572, 155, 1781, -881, 1053, -750
0.102651, 572, 155, 1781, -881, 1053, -750
0.102787, 572, 155, 1781, -881, 1053, -750
0.102921, -713, 116, 1698, -1000, 1184, -842
0.103056, -713, 116, 1698, -1000, 1184, -842
0.103191, -713, 116, 1698, -1000, 1184, -842
0.103326, -713, 116, 1698, -1000, 1184, -842
0.103460, -713, 116, 1698, -1000, 1184, -842
0.103595, -713, 116, 1698, -1000, 1184, -842
0.103729, -713, 116, 1698, -1000, 1184, -842
0.103864, -1570, 134, 1889, -984, 1294, -117
0.103999, -1570, 134, 1889, -984, 1294, -117
0.104133, -1570, 134, 1889, -984, 1294, -117
0.104268, -1570, 134, 1889, -984, 1294, -117
0.104403, -1570, 134, 1889, -984, 1294, -117
0.104537, -1570, 134, 1889, -984, 1294, -117
0.104672, -1570, 134, 1889, -984, 1294, -117
0.104807, -1570, 134, 1889, -984, 1294, -117
0.104941, -1300, 142, 1882, -909, 1195, 857
0.105076, -1300, 142, 1882, -909, 1195, 857
0.105211, -1300, 142, 1882, -909, 1195, 857
0.105346, -1300, 142, 1882, -909, 1195, 857
0.105480, -1300, 142, 1882, -909, 1195, 857
0.105615, -1300, 142, 1882, -909, 1195, 857
0.105749, -1300, 142, 1882, -909, 1195, 857
0.105884, -1553, 134, 1841, -1022, 914, 1685
0.106019, -1553, 134, 1841, -1022, 914, 1685
0.106154, -1553, 134, 1841, -1022, 914, 1685
0.106288, -1553, 134, 1841, -1022, 914, 1685
0.106423, -1553, 134, 1841, -1022, 914, 1685
0.106558, -1553, 134, 1841, -1022, 914, 1685
0.106693, -1553, 134, 1841, -1022, 914, 1685
0.106827, -1553, 134, 1841, -1022, 914, 1685
0.106962, -1563, 183, 2109, -1203, 539, 2694
0.107097, -1563, 183, 2109, -1203, 539, 2694
0.107231, -1563, 183, 2109, -1203, 539, 2694
0.107366, -1563, 183, 2109, -1203, 539, 2694
0.107501, -1563, 183, 2109, -1203, 539, 2694
0.107635, -1563, 183, 2109, -1203, 539, 2694
0.107770, -1563, 183, 2109, -1203, 539, 2694
0.107904, -285, 170, 2274, -1318, 89, 3398
0.108039, -285, 170, 2274, -1318, 89, 3398
0.108173, -285, 170, 2274, -1318, 89, 3398
0.108308, -285, 170, 2274, -1318, 89, 3398
0.108443, -285, 170, 2274, -1318, 89, 3398
0.108577, -285, 170, 2274, -1318, 89, 3398
0.108712, -285, 170, 2274, -1318, 89, 3398
0.108846, -285, 170, 2274, -1318, 89, 3398
0.108981, 832, 104, 2270, -1402, -345, 3174
0.109116, 832, 104, 2270, -1402, -345, 3174
0.109251, 832, 104, 2270, -1402, -345, 3174
0.109386, 832, 104, 2270, -1402, -345, 3174
0.109520, 832, 104, 2270, -1402, -345, 3174
0.109655, 832, 104, 2270, -1402, -345, 3174
0.109790, 832, 104, 2270, -1402, -345, 3174
0.109924, 1237, 85, 2443, -1368, -675, 2378
0.110059, 1237, 85, 2443, -1368, -675, 2378
0.110194, 1237, 85, 2443, -1368, -675, 2378
0.110329, 1237, 85, 2443, -1368, -675, 2378
0.110463, 1237, 85, 2443, -1368, -675, 2378
0.110598, 1237, 85, 2443, -1368, -675, 2378
0.110732, 1237, 85, 2443, -1368, -675, 2378
0.110867, 1237, 85, 2443, -1368, -675, 2378
0.111002, 1544, 172, 2671, -1099, -817, 1409
0.111137, 1544, 172, 2671, -1099, -817, 1409
0.111271, 1544, 172, 2671, -1099, -817, 1409
0.111406, 1544, 172, 2671, -1099, -817, 1409
0.111540, 1544, 172, 2671, -1099, -817, 1409
0.111675, 1544, 172, 2671, -1099, -817, 1409
0.111810, 1544, 172, 2671, -1099, -817, 1409
0.111944, 2214, 275, 2782, -579, -778, 161
0.112079, 2214, 275, 2782, -579, -778, 161
0.112214, 2214, 275, 2782, -579, -778, 161
0.112349, 2214, 275, 2782, -579, -778, 161
0.112483, 2214, 275, 2782, -579, -778, 161
0.112618, 2214, 275, 2782, -579, -778, 161
0.112753, 2214, 275, 2782, -579, -778, 161
0.112887, 2214, 275, 2782, -579, -778, 161
0.113032, 2268, 134, 2634, 88, -584, -1450
0.113167, 2268, 134, 2634, 88, -584, -1450
0.113302, 2268, 134, 2634, 88, -584, -1450
0.113437, 2268, 134, 2634, 88, -584, -1450
0.113571, 2268, 134, 2634, 88, -584, -1450
0.113706, 2268, 134, 2634, 88, -584, -1450
0.113840, 2268, 134, 2634, 88, -584, -1450
0.113975, 450, -231, 1886, 628, -195, -2691
0.114110, 450, -231, 1886, 628, -195, -2691
0.114245, 450, -231, 1886, 628, -195, -2691
0.114380, 450, -231, 1886, 628, -195, -2691
0.114515, 450, -231, 1886, 628, -195, -2691
0.114649, 450, -231, 1886, 628, -195, -2691
0.114784, 450, -231, 1886, 628, -195, -2691
0.114918, 450, -231, 1886, 628, -195, -2691
0.115053, -2131, -280, 1105, 798, 222, -2429
0.115188, -2131, -280, 1105, 798, 222, -2429
0.115323, -2131, -280, 1105, 798, 222, -2429
0.115458, -2131, -280, 1105, 798, 222, -2429
0.115592, -2131, -280, 1105, 798, 222, -2429
0.115727, -2131, -280, 1105, 798, 222, -2429
0.115862, -2131, -280, 1105, 798, 222, -2429
0.115996, -2447, 68, 1325, 755, 395, -840
0.116131, -2447, 68, 1325, 755, 395, -840
0.116266, -2447, 68, 1325, 755, 395, -840
0.116400, -2447, 68, 1325, 755, 395, -840
0.116535, -2447, 68, 1325, 755, 395, -840
0.116670, -2447, 68, 1325, 755, 395, -840
0.116804, -2447, 68, 1325, 755, 395, -840
0.116939, -2447, 68, 1325, 755, 395, -840
0.117074, -527, 105, 1729, 726, 311, 341
0.117209, -527, 105, 1729, 726, 311, 341
0.117343, -527, 105, 1729, 726, 311, 341
0.117478, -527, 105, 1729, 726, 311, 341
0.117613, -527, 105, 1729, 726, 311, 341
0.117747, -527, 105, 1729, 726, 311, 341
0.117882, -527, 105, 1729, 726, 311, 341
0.118017, 650, -18, 1162, 313, 0, 365
0.118152, 650, -18, 1162, 313, 0, 365
0.118287, 650, -18, 1162, 313, 0, 365
0.118422, 650, -18, 1162, 313, 0, 365
0.118556, 650, -18, 1162, 313, 0, 365
0.118691, 650, -18, 1162, 313, 0, 365
0.118825, 650, -18, 1162, 313, 0, 365
0.118960, 650, -18, 1162, 313, 0, 365
0.119095, 1366, -57, 762, -734, -581, -223
0.119230, 1366, -57, 762, -734, -581, -223
0.119365, 1366, -57, 762, -734, -581, -223
0.119499, 1366, -57, 762, -734, -581, -223
0.119634, 1366, -57, 762, -734, -581, -223
0.119769, 1366, -57, 762, -734, -581, -223
0.119903, 1366, -57, 762, -734, -581, -223
0.120038, 1598, -165, 1429, -1702, -1037, -1270
0.120173, 1598, -165, 1429, -1702, -1037, -1270
0.120307, 1598, -165, 1429, -1702, -1037, -1270
0.120442, 1598, -165, 1429, -1702, -1037, -1270
0.120577, 1598, -165, 1429, -1702, -1037, -1270
0.120711, 1598, -165, 1429, -1702, -1037, -1270
0.120846, 1598, -165, 1429, -1702, -1037, -1270
0.120981, 1598, -165, 1429, -1702, -1037, -1270
0.121115, 71, 25, 2102, -1890, -943, -2085
0.121250, 71, 25, 2102, -1890, -943, -2085
0.121385, 71, 25, 2102, -1890, -943, -2085
0.121520, 71, 25, 2102, -1890, -943, -2085
0.121654, 71, 25, 2102, -1890, -943, -2085
0.121789, 71, 25, 2102, -1890, -943, -2085
0.121924, 71, 25, 2102, -1890, -943, -2085
0.122058, 71, 25, 2102, -1890, -943, -2085
0.122193, -1456, 278, 2330, -1376, -528, -1784
0.122328, -1456, 278, 2330, -1376, -528, -1784
0.122462, -1456, 278, 2330, -1376, -528, -1784
0.122597, -1456, 278, 2330, -1376, -528, -1784
0.122732, -1456, 278, 2330, -1376, -528, -1784
0.122866, -1456, 278, 2330, -1376, -528, -1784
0.123001, -1456, 278, 2330, -1376, -528, -1784
0.123136, -1614, 301, 2501, -594, -108, -714
0.123271, -1614, 301, 2501, -594, -108, -714
0.123405, -1614, 301, 2501, -594, -108, -714
0.123540, -1614, 301, 2501, -594, -108, -714
0.123675, -1614, 301, 2501, -594, -108, -714
0.123809, -1614, 301, 2501, -594, -108, -714
0.123944, -1614, 301, 2501, -594, -108, -714
0.124079, -1614, 301, 2501, -594, -108, -714
0.124213, -818, 241, 2480, 29, 114, 282
0.124348, -818, 241, 2480, 29, 114, 282
0.124483, -818, 241, 2480, 29, 114, 282
0.124618, -818, 241, 2480, 29, 114, 282
0.124752, -818, 241, 2480, 29, 114, 282
0.124887, -818, 241, 2480, 29, 114, 282
0.125021, -818, 241, 2480, 29, 114, 282
0.125156, 150, 184, 2243, 228, 21, 655
0.125291, 150, 184, 2243, 228, 21, 655
0.125426, 150, 184, 2243, 228, 21, 655
0.125560, 150, 184, 2243, 228, 21, 655
0.125695, 150, 184, 2243, 228, 21, 655
0.125834, 150, 184, 2243, 228, 21, 655
0.125969, 150, 184, 2243, 228, 21, 655
0.126103, 150, 184, 2243, 228, 21, 655
0.126238, 469, 171, 2166, 65, -162, 460
0.126373, 469, 171, 2166, 65, -162, 460
0.126507, 469, 171, 2166, 65, -162, 460
0.126640, 469, 171, 2166, 65, -162, 460
0.126774, 469, 171, 2166, 65, -162, 460
0.126908, 469, 171, 2166, 65, -162, 460
0.127042, 469, 171, 2166, 65, -162, 460
0.127176, 358, 156, 2185, -154, -192, 122
0.127310, 358, 156, 2185, -154, -192, 122
0.127444, 358, 156, 2185, -154, -192, 122
0.127578, 358, 156, 2185, -154, -192, 122
0.127712, 358, 156, 2185, -154, -192, 122
0.127846, 358, 156, 2185, -154, -192, 122
0.127980, 358, 156, 2185, -154, -192, 122
0.128114, 358, 156, 2185, -154, -192, 122
0.128247, -5, 172, 2186, -245, -87, -145
0.128381, -5, 172, 2186, -245, -87, -145
0.128515, -5, 172, 2186, -245, -87, -145
0.128649, -5, 172, 2186, -245, -87, -145
0.128783, -5, 172, 2186, -245, -87, -145
0.128917, -5, 172, 2186, -245, -87, -145
0.129051, -5, 172, 2186, -245, -87, -145
0.129185, -752, 233, 2310, -159, 68, -116
0.129319, -752, 233, 2310, -159, 68, -116
0.129453, -752, 233, 2310, -159, 68, -116
0.129587, -752, 233, 2310, -159, 68, -116
0.129721, -752, 233, 2310, -159, 68, -116
0.129855, -752, 233, 2310, -159, 68, -116
0.129989, -752, 233, 2310, -159, 68, -116
0.130122, -752, 233, 2310, -159, 68, -116
0.130256, -888, 226, 2296, 53, 182, 346
0.130392, -888, 226, 2296, 53, 182, 346
0.130526, -888, 226, 2296, 53, 182, 346
0.130661, -888, 226, 2296, 53, 182, 346
0.130796, -888, 226, 2296, 53, 182, 346
0.130930, -888, 226, 2296, 53, 182, 346
0.131065, -888, 226, 2296, 53, 182, 346
0.131199, 75, 120, 2116, 173, 120, 669
0.131334, 75, 120, 2116, 173, 120, 669
0.131469, 75, 120, 2116, 173, 120, 669
0.131603, 75, 120, 2116, 173, 120, 669
0.131738, 75, 120, 2116, 173, 120, 669
0.131872, 75, 120, 2116, 173, 120, 669
0.132007, 75, 120, 2116, 173, 120, 669
0.132142, 75, 120, 2116, 173, 120, 669
0.132276, 1028, 101, 2044, 125, -92, 291
0.132411, 1028, 101, 2044, 125, -92, 291
0.132546, 1028, 101, 2044, 125, -92, 291
0.132680, 1028, 101, 2044, 125, -92, 291
0.132815, 1028, 101, 2044, 125, -92, 291
0.132949, 1028, 101, 2044, 125, -92, 291
0.133084, 1028, 101, 2044, 125, -92, 291
0.133219, 1133, 154, 2042, -18, -256, -534
0.133354, 1133, 154, 2042, -18, -256, -534
0.133488, 1133, 154, 2042, -18, -256, -534
0.133623, 1133, 154, 2042, -18, -256, -534
0.133757, 1133, 154, 2042, -18, -256, -534
0.133892, 1133, 154, 2042, -18, -256, -534
0.134026, 1133, 154, 2042, -18, -256, -534
0.134161, 1133, 154, 2042, -18, -256, -534
0.134300, 888, 141, 1968, -120, -243, -1313
0.134437, 888, 141, 1968, -120, -243, -1313
0.134572, 888, 141, 1968, -120, -243, -1313
0.134706, 888, 141, 1968, -120, -243, -1313
0.134841, 888, 141, 1968, -120, -243, -1313
0.134977, 888, 141, 1968, -120, -243, -1313
0.135111, 888, 141, 1968, -120, -243, -1313
0.135246, 675, 165, 1767, -133, -76, -1918
0.135381, 675, 165, 1767, -133, -76, -1918
0.135515, 675, 165, 1767, -133, -76, -1918
0.135650, 675, 165, 1767, -133, -76, -1918
0.135784, 675, 165, 1767, -133, -76, -1918
0.135919, 675, 165, 1767, -133, -76, -1918
0.136054, 675, 165, 1767, -133, -76, -1918
0.136188, 675, 165, 1767, -133, -76, -1918
0.136323, 245, 269, 1599, -188, 162, -2305
0.136458, 245, 269, 1599, -188, 162, -2305
0.136592, 245, 269, 1599, -188, 162, -2305
0.136727, 245, 269, 1599, -188, 162, -2305
0.136862, 245, 269, 1599, -188, 162, -2305
0.136996, 245, 269, 1599, -188, 162, -2305
0.137131, 245, 269, 1599, -188, 162, -2305
0.137265, 245, 269, 1599, -188, 162, -2305
0.137400, -658, 193, 1694, -272, 416, -2276
0.137535, -658, 193, 1694, -272, 416, -2276
0.137669, -658, 193, 1694, -272, 416, -2276
0.137804, -658, 193, 1694, -272, 416, -2276
0.137939, -658, 193, 1694, -272, 416, -2276
0.138073, -658, 193, 1694, -272, 416, -2276
0.138208, -658, 193, 1694, -272, 416, -2276
0.138343, -1622, 61, 1902, -178, 684, -1545
0.138478, -1622, 61, 1902, -178, 684, -1545
0.138613, -1622, 61, 1902, -178, 684, -1545
0.138747, -1622, 61, 1902, -178, 684, -1545
0.138882, -1622, 61, 1902, -178, 684, -1545
0.139022, -1622, 61, 1902, -178, 684, -1545
0.139157, -1622, 61, 1902, -178, 684, -1545
0.139292, -1622, 61, 1902, -178, 684, -1545
0.139426, -1136, 152, 1934, -8, 791, -409
0.139561, -1136, 152, 1934, -8, 791, -409
0.139696, -1136, 152, 1934, -8, 791, -409
0.139830, -1136, 152, 1934, -8, 791, -409
0.139965, -1136, 152, 1934, -8, 791, -409
0.140099, -1136, 152, 1934, -8, 791, -409
0.140234, -1136, 152, 1934, -8, 791, -409
0.140368, -89, 88, 2170, 37, 570, 119
0.140503, -89, 88, 2170, 37, 570, 119
0.140638, -89, 88, 2170, 37, 570, 119
0.140773, -89, 88, 2170, 37, 570, 119
0.140907, -89, 88, 2170, 37, 570, 119
0.141042, -89, 88, 2170, 37, 570, 119
0.141176, -89, 88, 2170, 37, 570, 119
0.141311, -89, 88, 2170, 37, 570, 119
0.141445, -1166, -138, 2541, 205, 249, 262
0.141580, -1166, -138, 2541, 205, 249, 262
0.141715, -1166, -138, 2541, 205, 249, 262
0.141850, -1166, -138, 2541, 205, 249, 262
0.141984, -1166, -138, 2541, 205, 249, 262
0.142119, -1166, -138, 2541, 205, 249, 262
0.142254, -1166, -138, 2541, 205, 249, 262
0.142389, -2775, -101, 2278, 473, -56, 1328
0.142523, -2775, -101, 2278, 473, -56, 1328
0.142657, -2775, -101, 2278, 473, -56, 1328
0.142791, -2775, -101, 2278, 473, -56, 1328
0.142925, -2775, -101, 2278, 473, -56, 1328
0.143059, -2775, -101, 2278, 473, -56, 1328
0.143193, -2775, -101, 2278, 473, -56, 1328
0.143327, -2775, -101, 2278, 473, -56, 1328
0.143460, -1659, 89, 1930, 487, -555, 2898
0.143594, -1659, 89, 1930, 487, -555, 2898
0.143728, -1659, 89, 1930, 487, -555, 2898
0.143862, -1659, 89, 1930, 487, -555, 2898
0.143996, -1659, 89, 1930, 487, -555, 2898
0.144130, -1659, 89, 1930, 487, -555, 2898
0.144264, -1659, 89, 1930, 487, -555, 2898
0.144398, 778, 96, 2147, 258, -1167, 3250
0.144532, 778, 96, 2147, 258, -1167, 3250
0.144666, 778, 96, 2147, 258, -1167, 3250
0.144800, 778, 96, 2147, 258, -1167, 3250
0.144934, 778, 96, 2147, 258, -1167, 3250
0.145068, 778, 96, 2147, 258, -1167, 3250
0.145202, 778, 96, 2147, 258, -1167, 3250
0.145336, 778, 96, 2147, 258, -1167, 3250
0.145470, 1669, 13, 2348, -25, -1554, 2282
0.145604, 1669, 13, 2348, -25, -1554, 2282
0.145738, 1669, 13, 2348, -25, -1554, 2282
0.145872, 1669, 13, 2348, -25, -1554, 2282
0.146006, 1669, 13, 2348, -25, -1554, 2282
0.146140, 1669, 13, 2348, -25, -1554, 2282
0.146273, 1669, 13, 2348, -25, -1554, 2282
0.146403, 1803, -23, 2250, -228, -1658, 1033
0.146538, 1803, -23, 2250, -228, -1658, 1033
0.146672, 1803, -23, 2250, -228, -1658, 1033
0.146807, 1803, -23, 2250, -228, -1658, 1033
0.146942, 1803, -23, 2250, -228, -1658, 1033
0.147076, 1803, -23, 2250, -228, -1658, 1033
0.147211, 1803, -23, 2250, -228, -1658, 1033
0.147345, 1803, -23, 2250, -228, -1658, 1033
0.147480, 2022, -84, 2153, -246, -1519, -334
0.147614, 2022, -84, 2153, -246, -1519, -334
0.147749, 2022, -84, 2153, -246, -1519, -334
0.147883, 2022, -84, 2153, -246, -1519, -334
0.148018, 2022, -84, 2153, -246, -1519, -334
0.148152, 2022, -84, 2153, -246, -1519, -334
0.148287, 2022, -84, 2153, -246, -1519, -334
0.148421, 1025, -35, 2150, -22, -1050, -1618
0.148556, 1025, -35, 2150, -22, -1050, -1618
0.148691, 1025, -35, 2150, -22, -1050, -1618
0.148825, 1025, -35, 2150, -22, -1050, -1618
0.148960, 1025, -35, 2150, -22, -1050, -1618
0.149094, 1025, -35, 2150, -22, -1050, -1618
0.149229, 1025, -35, 2150, -22, -1050, -1618
0.149363, 1025, -35, 2150, -22, -1050, -1618
0.149498, -509, 114, 1992, 287, -358, -1985
0.149633, -509, 114, 1992, 287, -358, -1985
0.149767, -509, 114, 1992, 287, -358, -1985
0.149902, -509, 114, 1992, 287, -358, -1985
0.150036, -509, 114, 1992, 287, -358, -1985
0.150171, -509, 114, 1992, 287, -358, -1985
0.150306, -509, 114, 1992, 287, -358, -1985
0.150440, -509, 114, 1992, 287, -358, -1985
0.150575, -622, 165, 1842, 440, 276, -1554
0.150710, -622, 165, 1842, 440, 276, -1554
0.150845, -622, 165, 1842, 440, 276, -1554
0.150979, -622, 165, 1842, 440, 276, -1554
0.151114, -622, 165, 1842, 440, 276, -1554
0.151248, -622, 165, 1842, 440, 276, -1554
0.151383, -622, 165, 1842, 440, 276, -1554
0.151517, -330, 139, 1845, 393, 743, -1220
0.151652, -330, 139, 1845, 393, 743, -1220
0.151791, -330, 139, 1845, 393, 743, -1220
0.151926, -330, 139, 1845, 393, 743, -1220
0.152061, -330, 139, 1845, 393, 743, -1220
0.152195, -330, 139, 1845, 393, 743, -1220
0.152330, -330, 139, 1845, 393, 743, -1220
0.152464, -330, 139, 1845, 393, 743, -1220
0.152599, -1455, 131, 1789, 176, 1056, -787
0.152734, -1455, 131, 1789, 176, 1056, -787
0.152868, -1455, 131, 1789, 176, 1056, -787
0.153003, -1455, 131, 1789, 176, 1056, -787
0.153137, -1455, 131, 1789, 176, 1056, -787
0.153272, -1455, 131, 1789, 176, 1056, -787
0.153406, -1455, 131, 1789, 176, 1056, -787
0.153541, -2187, 108, 1812, -125, 1094, 386
0.153675, -2187, 108, 1812, -125, 1094, 386
0.153810, -2187, 108, 1812, -125, 1094, 386
0.153944, -2187, 108, 1812, -125, 1094, 386
0.154079, -2187, 108, 1812, -125, 1094, 386
0.154213, -2187, 108, 1812, -125, 1094, 386
0.154349, -2187, 108, 1812, -125, 1094, 386
0.154483, -2187, 108, 1812, -125, 1094, 386
0.154618, -1523, 86, 2065, -368, 793, 1632
0.154752, -1523, 86, 2065, -368, 793, 1632
0.154887, -1523, 86, 2065, -368, 793, 1632
0.155021, -1523, 86, 2065, -368, 793, 1632
0.155156, -1523, 86, 2065, -368, 793, 1632
0.155290, -1523, 86, 2065, -368, 793, 1632
0.155425, -1523, 86, 2065, -368, 793, 1632
0.155559, -1245, 133, 2313, -495, 327, 2394
0.155694, -1245, 133, 2313, -495, 327, 2394
0.155829, -1245, 133, 2313, -495, 327, 2394
0.155963, -1245, 133, 2313, -495, 327, 2394
0.156098, -1245, 133, 2313, -495, 327, 2394
0.156232, -1245, 133, 2313, -495, 327, 2394
0.156367, -1245, 133, 2313, -495, 327, 2394
0.156501, -1245, 133, 2313, -495, 327, 2394
0.156636, -1017, 150, 2241, -599, -215, 3024
0.156771, -1017, 150, 2241, -599, -215, 3024
0.156905, -1017, 150, 2241, -599, -215, 3024
0.157040, -1017, 150, 2241, -599, -215, 3024
0.157174, -1017, 150, 2241, -599, -215, 3024
0.157309, -1017, 150, 2241, -599, -215, 3024
0.157443, -1017, 150, 2241, -599, -215, 3024
0.157578, -424, 96, 2049, -784, -811, 3413
0.157713, -424, 96, 2049, -784, -811, 3413
0.157847, -424, 96, 2049, -784, -811, 3413
0.157982, -424, 96, 2049, -784, -811, 3413
0.158116, -424, 96, 2049, -784, -811, 3413
0.158251, -424, 96, 2049, -784, -811, 3413
0.158386, -424, 96, 2049, -784, -811, 3413
0.158520, -424, 96, 2049, -784, -811, 3413
0.158655, -142, 43, 1977, -1013, -1328, 3453
0.158790, -142, 43, 1977, -1013, -1328, 3453
0.158924, -142, 43, 1977, -1013, -1328, 3453
0.159059, -142, 43, 1977, -1013, -1328, 3453
0.159193, -142, 43, 1977, -1013, -1328, 3453
0.159328, -142, 43, 1977, -1013, -1328, 3453
0.159462, -142, 43, 1977, -1013, -1328, 3453
0.159597, 425, 15, 1928, -1222, -1708, 3305
0.159732, 425, 15, 1928, -1222, -1708, 3305
0.159866, 425, 15, 1928, -1222, -1708, 3305
0.160001, 425, 15, 1928, -1222, -1708, 3305
0.160135, 425, 15, 1928, -1222, -1708, 3305
0.160270, 425, 15, 1928, -1222, -1708, 3305
0.160404, 425, 15, 1928, -1222, -1708, 3305
0.160539, 425, 15, 1928, -1222, -1708, 3305
0.160674, 1258, -31, 1957, -1337, -1946, 2728
0.160808, 1258, -31, 1957, -1337, -1946, 2728
0.160943, 1258, -31, 1957, -1337, -1946, 2728
0.161078, 1258, -31, 1957, -1337, -1946, 2728
0.161212, 1258, -31, 1957, -1337, -1946, 2728
0.161347, 1258, -31, 1957, -1337, -1946, 2728
0.161481, 1258, -31, 1957, -1337, -1946, 2728
0.161616, 700, -54, 2112, -1216, -1960, 1873
0.161750, 700, -54, 2112, -1216, -1960, 1873
0.161885, 700, -54, 2112, -1216, -1960, 1873
0.162020, 700, -54, 2112, -1216, -1960, 1873
0.162154, 700, -54, 2112, -1216, -1960, 1873
0.162289, 700, -54, 2112, -1216, -1960, 1873
0.162424, 700, -54, 2112, -1216, -1960, 1873
0.162558, 700, -54, 2112, -1216, -1960, 1873
0.162693, -722, 48, 2279, -779, -1769, 1699
0.162828, -722, 48, 2279, -779, -1769, 1699
0.162962, -722, 48, 2279, -779, -1769, 1699
0.163097, -722, 48, 2279, -779, -1769, 1699
0.163231, -722, 48, 2279, -779, -1769, 1699
0.163366, -722, 48, 2279, -779, -1769, 1699
0.163501, -722, 48, 2279, -779, -1769, 1699
0.163635, -527, 91, 2399, -177, -1533, 2253
0.163770, -527, 91, 2399, -177, -1533, 2253
0.163904, -527, 91, 2399, -177, -1533, 2253
0.164039, -527, 91, 2399, -177, -1533, 2253
0.164182, -527, 91, 2399, -177, -1533, 2253
0.164318, -527, 91, 2399, -177, -1533, 2253
0.164452, -527, 91, 2399, -177, -1533, 2253
0.164587, -527, 91, 2399, -177, -1533, 2253
0.164721, 934, 39, 2487, 389, -1299, 2416
0.164856, 934, 39, 2487, 389, -1299, 2416
0.164990, 934, 39, 2487, 389, -1299, 2416
0.165125, 934, 39, 2487, 389, -1299, 2416
0.165260, 934, 39, 2487, 389, -1299, 2416
0.165394, 934, 39, 2487, 389, -1299, 2416
0.165529, 934, 39, 2487, 389, -1299, 2416
0.165663, 2048, 28, 2427, 830, -1111, 1675
0.165798, 2048, 28, 2427, 830, -1111, 1675
0.165933, 2048, 28, 2427, 830, -1111, 1675
0.166067, 2048, 28, 2427, 830, -1111, 1675
0.166206, 2048, 28, 2427, 830, -1111, 1675
0.166354, 2048, 28, 2427, 830, -1111, 1675
0.166502, 2048, 28, 2427, 830, -1111, 1675
0.166646, 2048, 28, 2427, 830, -1111, 1675
0.166792, 1728, -10, 2234, 1105, -1031, 431
0.166943, 1728, -10, 2234, 1105, -1031, 431
0.167089, 1728, -10, 2234, 1105, -1031, 431
0.167235, 1728, -10, 2234, 1105, -1031, 431
0.167373, 1728, -10, 2234, 1105, -1031, 431
0.167509, 1728, -10, 2234, 1105, -1031, 431
0.167645, 1728, -10, 2234, 1105, -1031, 431
0.167781, -416, 30, 2043, 1305, -920, -281
0.167917, -416, 30, 2043, 1305, -920, -281
0.168052, -416, 30, 2043, 1305, -920, -281
0.168188, -416, 30, 2043, 1305, -920, -281
0.168323, -416, 30, 2043, 1305, -920, -281
0.168460, -416, 30, 2043, 1305, -920, -281
0.168595, -416, 30, 2043, 1305, -920, -281
0.168730, -1950, 236, 1657, 1400, -767, 369
0.168866, -1950, 236, 1657, 1400, -767, 369
0.169001, -1950, 236, 1657, 1400, -767, 369
0.169137, -1950, 236, 1657, 1400, -767, 369
0.169285, -1950, 236, 1657, 1400, -767, 369
0.169421, -1950, 236, 1657, 1400, -767, 369
0.169556, -1950, 236, 1657, 1400, -767, 369
0.169690, -1950, 236, 1657, 1400, -767, 369
0.169825, -786, 294, 1503, 1177, -819, 1470
0.169960, -786, 294, 1503, 1177, -819, 1470
0.170094, -786, 294, 1503, 1177, -819, 1470
0.170229, -786, 294, 1503, 1177, -819, 1470
0.170364, -786, 294, 1503, 1177, -819, 1470
0.170498, -786, 294, 1503, 1177, -819, 1470
0.170633, -786, 294, 1503, 1177, -819, 1470
0.170768, 1249, 80, 2084, 891, -1093, 1448
0.170902, 1249, 80, 2084, 891, -1093, 1448
0.171037, 1249, 80, 2084, 891, -1093, 1448
0.171171, 1249, 80, 2084, 891, -1093, 1448
0.171306, 1249, 80, 2084, 891, -1093, 1448
0.171440, 1249, 80, 2084, 891, -1093, 1448
0.171575, 1249, 80, 2084, 891, -1093, 1448
0.171709, 1249, 80, 2084, 891, -1093, 1448
0.171843, 1892, 31, 2346, 768, -1240, 401
0.171978, 1892, 31, 2346, 768, -1240, 401
0.172112, 1892, 31, 2346, 768, -1240, 401
0.172247, 1892, 31, 2346, 768, -1240, 401
0.172381, 1892, 31, 2346, 768, -1240, 401
0.172516, 1892, 31, 2346, 768, -1240, 401
0.172650, 1892, 31, 2346, 768, -1240, 401
0.172784, 2383, 99, 2036, 581, -1136, -892
0.172919, 2383, 99, 2036, 581, -1136, -892
0.173053, 2383, 99, 2036, 581, -1136, -892
0.173188, 2383, 99, 2036, 581, -1136, -892
0.173322, 2383, 99, 2036, 581, -1136, -892
0.173457, 2383, 99, 2036, 581, -1136, -892
0.173591, 2383, 99, 2036, 581, -1136, -892
0.173725, 2383, 99, 2036, 581, -1136, -892
0.173860, 3018, -4, 2175, 541, -854, -2669
0.173995, 3018, -4, 2175, 541, -854, -2669
0.174129, 3018, -4, 2175, 541, -854, -2669
0.174264, 3018, -4, 2175, 541, -854, -2669
0.174399, 3018, -4, 2175, 541, -854, -2669
0.174534, 3018, -4, 2175, 541, -854, -2669
0.174669, 3018, -4, 2175, 541, -854, -2669
0.174803, 848, -3, 2300, 931, -283, -4363
0.174938, 848, -3, 2300, 931, -283, -4363
0.175072, 848, -3, 2300, 931, -283, -4363
0.175207, 848, -3, 2300, 931, -283, -4363
0.175341, 848, -3, 2300, 931, -283, -4363
0.175476, 848, -3, 2300, 931, -283, -4363
0.175610, 848, -3, 2300, 931, -283, -4363
0.175745, 848, -3, 2300, 931, -283, -4363
0.175879, -2541, 137, 1935, 1468, 395, -4155
0.176014, -2541, 137, 1935, 1468, 395, -4155
0.176149, -2541, 137, 1935, 1468, 395, -4155
0.176283, -2541, 137, 1935, 1468, 395, -4155
0.176418, -2541, 137, 1935, 1468, 395, -4155
0.176552, -2541, 137, 1935, 1468, 395, -4155
0.176687, -2541, 137, 1935, 1468, 395, -4155
0.176822, -2855, 219, 1745, 1864, 769, -2217
0.176956, -2855, 219, 1745, 1864, 769, -2217
0.177119, -2855, 219, 1745, 1864, 769, -2217
0.177254, -2855, 219, 1745, 1864, 769, -2217
0.177389, -2855, 219, 1745, 1864, 769, -2217
0.177523, -2855, 219, 1745, 1864, 769, -2217
0.177658, -2855, 219, 1745, 1864, 769, -2217
0.177792, -2855, 219, 1745, 1864, 769, -2217
0.177927, -924, 182, 1792, 1902, 762, -679
0.178061, -924, 182, 1792, 1902, 762, -679
0.178196, -924, 182, 1792, 1902, 762, -679
0.178331, -924, 182, 1792, 1902, 762, -679
0.178466, -924, 182, 1792, 1902, 762, -679
0.178600, -924, 182, 1792, 1902, 762, -679
0.178735, -924, 182, 1792, 1902, 762, -679
0.178869, 410, 79, 1660, 1408, 452, -410
0.179004, 410, 79, 1660, 1408, 452, -410
0.179138, 410, 79, 1660, 1408, 452, -410
0.179273, 410, 79, 1660, 1408, 452, -410
0.179407, 410, 79, 1660, 1408, 452, -410
0.179542, 410, 79, 1660, 1408, 452, -410
0.179676, 410, 79, 1660, 1408, 452, -410
0.179811, 410, 79, 1660, 1408, 452, -410
0.179945, 799, 33, 1491, 541, 2, -800
0.180080, 799, 33, 1491, 541, 2, -800
0.180214, 799, 33, 1491, 541, 2, -800
0.180349, 799, 33, 1491, 541, 2, -800
0.180483, 799, 33, 1491, 541, 2, -800
0.180618, 799, 33, 1491, 541, 2, -800
0.180752, 799, 33, 1491, 541, 2, -800
0.180887, 880, 69, 1736, -219, -313, -1393
0.181022, 880, 69, 1736, -219, -313, -1393
0.181156, 880, 69, 1736, -219, -313, -1393
0.181291, 880, 69, 1736, -219, -313, -1393
0.181425, 880, 69, 1736, -219, -313, -1393
0.181559, 880, 69, 1736, -219, -313, -1393
0.181694, 880, 69, 1736, -219, -313, -1393
0.181828, 880, 69, 1736, -219, -313, -1393
0.181963, 440, 20, 2271, -366, -370, -2010
0.182098, 440, 20, 2271, -366, -370, -2010
0.182232, 440, 20, 2271, -366, -370, -2010
0.182367, 440, 20, 2271, -366, -370, -2010
0.182501, 440, 20, 2271, -366, -370, -2010
0.182636, 440, 20, 2271, -366, -370, -2010
0.182770, 440, 20, 2271, -366, -370, -2010
0.182905, -1278, 48, 2224, 86, -265, -2100
0.183040, -1278, 48, 2224, 86, -265, -2100
0.183174, -1278, 48, 2224, 86, -265, -2100
0.183309, -1278, 48, 2224, 86, -265, -2100
0.183443, -1278, 48, 2224, 86, -265, -2100
0.183577, -1278, 48, 2224, 86, -265, -2100
0.183712, -1278, 48, 2224, 86, -265, -2100
0.183846, -1278, 48, 2224, 86, -265, -2100
0.183981, -3695, 342, 1604, 455, -286, -804
0.184116, -3695, 342, 1604, 455, -286, -804
0.184250, -3695, 342, 1604, 455, -286, -804
0.184385, -3695, 342, 1604, 455, -286, -804
0.184519, -3695, 342, 1604, 455, -286, -804
0.184654, -3695, 342, 1604, 455, -286, -804
0.184788, -3695, 342, 1604, 455, -286, -804
0.184922, -3912, 416, 1561, 362, -631, 1754
0.185057, -3912, 416, 1561, 362, -631, 1754
0.185192, -3912, 416, 1561, 362, -631, 1754
0.185326, -3912, 416, 1561, 362, -631, 1754
0.185461, -3912, 416, 1561, 362, -631, 1754
0.185595, -3912, 416, 1561, 362, -631, 1754
0.185730, -3912, 416, 1561, 362, -631, 1754
0.185864, -3912, 416, 1561, 362, -631, 1754
0.185999, -1282, 213, 2009, 35, -1192, 3809
0.186133, -1282, 213, 2009, 35, -1192, 3809
0.186268, -1282, 213, 2009, 35, -1192, 3809
0.186403, -1282, 213, 2009, 35, -1192, 3809
0.186537, -1282, 213, 2009, 35, -1192, 3809
0.186672, -1282, 213, 2009, 35, -1192, 3809
0.186806, -1282, 213, 2009, 35, -1192, 3809
0.186941, 1169, 48, 2023, -472, -1765, 4021
0.187075, 1169, 48, 2023, -472, -1765, 4021
0.187210, 1169, 48, 2023, -472, -1765, 4021
0.187345, 1169, 48, 2023, -472, -1765, 4021
0.187479, 1169, 48, 2023, -472, -1765, 4021
0.187614, 1169, 48, 2023, -472, -1765, 4021
0.187748, 1169, 48, 2023, -472, -1765, 4021
0.187883, 1169, 48, 2023, -472, -1765, 4021
0.188017, 1519, 3, 1775, -1156, -2104, 3077
0.188152, 1519, 3, 1775, -1156, -2104, 3077
0.188286, 1519, 3, 1775, -1156, -2104, 3077
0.188421, 1519, 3, 1775, -1156, -2104, 3077
0.188555, 1519, 3, 1775, -1156, -2104, 3077
0.188690, 1519, 3, 1775, -1156, -2104, 3077
0.188824, 1519, 3, 1775, -1156, -2104, 3077
0.188959, 1519, 3, 1775, -1156, -2104, 3077
0.189093, 1430, 31, 1707, -1765, -2116, 2114
0.189228, 1430, 31, 1707, -1765, -2116, 2114
0.189363, 1430, 31, 1707, -1765, -2116, 2114
0.189497, 1430, 31, 1707, -1765, -2116, 2114
0.189632, 1430, 31, 1707, -1765, -2116, 2114
0.189766, 1430, 31, 1707, -1765, -2116, 2114
0.189906, 1430, 31, 1707, -1765, -2116, 2114
0.190041, 2212, -37, 1787, -2044, -1938, 965
0.190176, 2212, -37, 1787, -2044, -1938, 965
0.190311, 2212, -37, 1787, -2044, -1938, 965
0.190445, 2212, -37, 1787, -2044, -1938, 965
0.190579, 2212, -37, 1787, -2044, -1938, 965
0.190714, 2212, -37, 1787, -2044, -1938, 965
0.190848, 2212, -37, 1787, -2044, -1938, 965
0.190983, 2212, -37, 1787, -2044, -1938, 965
0.191117, 2675, -66, 1967, -1892, -1627, -720
0.191252, 2675, -66, 1967, -1892, -1627, -720
0.191386, 2675, -66, 1967, -1892, -1627, -720
0.191521, 2675, -66, 1967, -1892, -1627, -720
0.191656, 2675, -66, 1967, -1892, -1627, -720
0.191790, 2675, -66, 1967, -1892, -1627, -720
0.191925, 2675, -66, 1967, -1892, -1627, -720
0.192059, 2478, -31, 2423, -1321, -1092, -2484
0.192194, 2478, -31, 2423, -1321, -1092, -2484
0.192328, 2478, -31, 2423, -1321, -1092, -2484
0.192463, 2478, -31, 2423, -1321, -1092, -2484
0.192597, 2478, -31, 2423, -1321, -1092, -2484
0.192732, 2478, -31, 2423, -1321, -1092, -2484
0.192866, 2478, -31, 2423, -1321, -1092, -2484
0.193001, 2478, -31, 2423, -1321, -1092, -2484
0.193135, 1266, -6, 2976, -300, -249, -3743
0.193270, 1266, -6, 2976, -300, -249, -3743
0.193405, 1266, -6, 2976, -300, -249, -3743
0.193539, 1266, -6, 2976, -300, -249, -3743
0.193674, 1266, -6, 2976, -300, -249, -3743
0.193808, 1266, -6, 2976, -300, -249, -3743
0.193943, 1266, -6, 2976, -300, -249, -3743
0.194077, -63, 91, 2694, 887, 694, -4089
0.194212, -63, 91, 2694, 887, 694, -4089
0.194347, -63, 91, 2694, 887, 694, -4089
0.194481, -63, 91, 2694, 887, 694, -4089
0.194616, -63, 91, 2694, 887, 694, -4089
0.194750, -63, 91, 2694, 887, 694, -4089
0.194885, -63, 91, 2694, 887, 694, -4089
0.195019, -63, 91, 2694, 887, 694, -4089
0.195154, -1850, 144, 2141, 1639, 1333, -3618
0.195289, -1850, 144, 2141, 1639, 1333, -3618
0.195423, -1850, 144, 2141, 1639, 1333, -3618
0.195558, -1850, 144, 2141, 1639, 1333, -3618
0.195692, -1850, 144, 2141, 1639, 1333, -3618
0.195827, -1850, 144, 2141, 1639, 1333, -3618
0.195961, -1850, 144, 2141, 1639, 1333, -3618
0.196096, -4977, 292, 2285, 1981, 1550, -1703
0.196230, -4977, 292, 2285, 1981, 1550, -1703
0.196365, -4977, 292, 2285, 1981, 1550, -1703
0.196499, -4977, 292, 2285, 1981, 1550, -1703
0.196633, -4977, 292, 2285, 1981, 1550, -1703
0.196768, -4977, 292, 2285, 1981, 1550, -1703
0.196902, -4977, 292, 2285, 1981, 1550, -1703
0.197037, -4977, 292, 2285, 1981, 1550, -1703
0.197171, -5101, 435, 2225, 2057, 1241, 1756
0.197306, -5101, 435, 2225, 2057, 1241, 1756
0.197440, -5101, 435, 2225, 2057, 1241, 1756
0.197575, -5101, 435, 2225, 2057, 1241, 1756
0.197709, -5101, 435, 2225, 2057, 1241, 1756
0.197844, -5101, 435, 2225, 2057, 1241, 1756
0.197978, -5101, 435, 2225, 2057, 1241, 1756
0.198113, -2075, 280, 1882, 1558, 281, 4381
0.198247, -2075, 280, 1882, 1558, 281, 4381
0.198382, -2075, 280, 1882, 1558, 281, 4381
0.198517, -2075, 280, 1882, 1558, 281, 4381
0.198651, -2075, 280, 1882, 1558, 281, 4381
0.198786, -2075, 280, 1882, 1558, 281, 4381
0.198920, -2075, 280, 1882, 1558, 281, 4381
0.199055, -2075, 280, 1882, 1558, 281, 4381
0.199189, -324, 127, 2011, 598, -936, 5068
0.199324, -324, 127, 2011, 598, -936, 5068
0.199458, -324, 127, 2011, 598, -936, 5068
0.199593, -324, 127, 2011, 598, -936, 5068
0.199727, -324, 127, 2011, 598, -936, 5068
0.199862, -324, 127, 2011, 598, -936, 5068
0.199996, -324, 127, 2011, 598, -936, 5068
0.200131, -161, 136, 2271, -336, -1920, 5010
0.200266, -161, 136, 2271, -336, -1920, 5010
0.200400, -161, 136, 2271, -336, -1920, 5010
0.200535, -161, 136, 2271, -336, -1920, 5010
0.200669, -161, 136, 2271, -336, -1920, 5010
0.200804, -161, 136, 2271, -336, -1920, 5010
0.200938, -161, 136, 2271, -336, -1920, 5010
0.201073, -161, 136, 2271, -336, -1920, 5010
0.201207, -196, 142, 2241, -937, -2610, 4869
0.201342, -196, 142, 2241, -937, -2610, 4869
0.201476, -196, 142, 2241, -937, -2610, 4869
0.201611, -196, 142, 2241, -937, -2610, 4869
0.201745, -196, 142, 2241, -937, -2610, 4869
0.201879, -196, 142, 2241, -937, -2610, 4869
0.202014, -196, 142, 2241, -937, -2610, 4869
0.202148, -25, 92, 2103, -1170, -3076, 4609
0.202287, -25, 92, 2103, -1170, -3076, 4609
0.202422, -25, 92, 2103, -1170, -3076, 4609
0.202557, -25, 92, 2103, -1170, -3076, 4609
0.202691, -25, 92, 2103, -1170, -3076, 4609
0.202826, -25, 92, 2103, -1170, -3076, 4609
0.202960, -25, 92, 2103, -1170, -3076, 4609
0.203095, -25, 92, 2103, -1170, -3076, 4609
0.203229, 522, 6, 2042, -1194, -3290, 4210
0.203364, 522, 6, 2042, -1194, -3290, 4210
0.203498, 522, 6, 2042, -1194, -3290, 4210
0.203633, 522, 6, 2042, -1194, -3290, 4210
0.203767, 522, 6, 2042, -1194, -3290, 4210
0.203902, 522, 6, 2042, -1194, -3290, 4210
0.204036, 522, 6, 2042, -1194, -3290, 4210
0.204171, 1505, -58, 2075, -1119, -3229, 3505
0.204305, 1505, -58, 2075, -1119, -3229, 3505
0.204440, 1505, -58, 2075, -1119, -3229, 3505
0.204574, 1505, -58, 2075, -1119, -3229, 3505
0.204709, 1505, -58, 2075, -1119, -3229, 3505
0.204843, 1505, -58, 2075, -1119, -3229, 3505
0.204978, 1505, -58, 2075, -1119, -3229, 3505
0.205112, 1505, -58, 2075, -1119, -3229, 3505
0.205247, 2669, -159, 2178, -958, -2834, 2211
0.205382, 2669, -159, 2178, -958, -2834, 2211
0.205516, 2669, -159, 2178, -958, -2834, 2211
0.205650, 2669, -159, 2178, -958, -2834, 2211
0.205785, 2669, -159, 2178, -958, -2834, 2211
0.205920, 2669, -159, 2178, -958, -2834, 2211
0.206054, 2669, -159, 2178, -958, -2834, 2211
0.206189, 2669, -159, 2178, -958, -2834, 2211
0.206324, 2373, -306, 2174, -700, -2066, 446
0.206459, 2373, -306, 2174, -700, -2066, 446
0.206593, 2373, -306, 2174, -700, -2066, 446
0.206728, 2373, -306, 2174, -700, -2066, 446
0.206862, 2373, -306, 2174, -700, -2066, 446
0.206997, 2373, -306, 2174, -700, -2066, 446
0.207131, 2373, -306, 2174, -700, -2066, 446
0.207265, -340, -35, 1893, -368, -1087, -547
0.207400, -340, -35, 1893, -368, -1087, -547
0.207535, -340, -35, 1893, -368, -1087, -547
0.207669, -340, -35, 1893, -368, -1087, -547
0.207804, -340, -35, 1893, -368, -1087, -547
0.207938, -340, -35, 1893, -368, -1087, -547
0.208073, -340, -35, 1893, -368, -1087, -547
0.208207, -340, -35, 1893, -368, -1087, -547
0.208342, -1846, 463, 1858, -65, -248, 194
0.208476, -1846, 463, 1858, -65, -248, 194
0.208611, -1846, 463, 1858, -65, -248, 194
0.208745, -1846, 463, 1858, -65, -248, 194
0.208880, -1846, 463, 1858, -65, -248, 194
0.209014, -1846, 463, 1858, -65, -248, 194
0.209149, -1846, 463, 1858, -65, -248, 194
0.209283, -701, 386, 2294, 267, 258, 1317
0.209418, -701, 386, 2294, 267, 258, 1317
0.209553, -701, 386, 2294, 267, 258, 1317
0.209687, -701, 386, 2294, 267, 258, 1317
0.209822, -701, 386, 2294, 267, 258, 1317
0.209956, -701, 386, 2294, 267, 258, 1317
0.210091, -701, 386, 2294, 267, 258, 1317
0.210225, -701, 386, 2294, 267, 258, 1317
0.210360, -323, 76, 2373, 600, 442, 1716
0.210495, -323, 76, 2373, 600, 442, 1716
0.210629, -323, 76, 2373, 600, 442, 1716
0.210764, -323, 76, 2373, 600, 442, 1716
0.210898, -323, 76, 2373, 600, 442, 1716
0.211033, -323, 76, 2373, 600, 442, 1716
0.211167, -323, 76, 2373, 600, 442, 1716
0.211302, -909, 142, 2057, 663, 254, 2159
0.211436, -909, 142, 2057, 663, 254, 2159
0.211571, -909, 142, 2057, 663, 254, 2159
0.211705, -909, 142, 2057, 663, 254, 2159
0.211840, -909, 142, 2057, 663, 254, 2159
0.211974, -909, 142, 2057, 663, 254, 2159
0.212109, -909, 142, 2057, 663, 254, 2159
0.212243, -909, 142, 2057, 663, 254, 2159
0.212378, -1152, 266, 1936, 453, -227, 2890
0.212512, -1152, 266, 1936, 453, -227, 2890
0.212647, -1152, 266, 1936, 453, -227, 2890
0.212781, -1152, 266, 1936, 453, -227, 2890
0.212916, -1152, 266, 1936, 453, -227, 2890
0.213050, -1152, 266, 1936, 453, -227, 2890
0.213185, -1152, 266, 1936, 453, -227, 2890
0.213319, -1445, 220, 1857, 151, -823, 3625
0.213454, -1445, 220, 1857, 151, -823, 3625
0.213588, -1445, 220, 1857, 151, -823, 3625
0.213723, -1445, 220, 1857, 151, -823, 3625
0.213857, -1445, 220, 1857, 151, -823, 3625
0.213992, -1445, 220, 1857, 151, -823, 3625
0.214126, -1445, 220, 1857, 151, -823, 3625
0.214261, -1445, 220, 1857, 151, -823, 3625
0.214396, -1235, 183, 1853, -151, -1513, 4383
0.214530, -1235, 183, 1853, -151, -1513, 4383
0.214665, -1235, 183, 1853, -151, -1513, 4383
0.214814, -1235, 183, 1853, -151, -1513, 4383
0.214949, -1235, 183, 1853, -151, -1513, 4383
0.215083, -1235, 183, 1853, -151, -1513, 4383
0.215218, -1235, 183, 1853, -151, -1513, 4383
0.215352, -251, 144, 2095, -385, -2181, 4845
0.215487, -251, 144, 2095, -385, -2181, 4845
0.215622, -251, 144, 2095, -385, -2181, 4845
0.215756, -251, 144, 2095, -385, -2181, 4845
0.215891, -251, 144, 2095, -385, -2181, 4845
0.216025, -251, 144, 2095, -385, -2181, 4845
0.216160, -251, 144, 2095, -385, -2181, 4845
0.216294, -251, 144, 2095, -385, -2181, 4845
0.216429, 816, 41, 2216, -547, -2641, 4647
0.216563, 816, 41, 2216, -547, -2641, 4647
0.216698, 816, 41, 2216, -547, -2641, 4647
0.216832, 816, 41, 2216, -547, -2641, 4647
0.216967, 816, 41, 2216, -547, -2641, 4647
0.217101, 816, 41, 2216, -547, -2641, 4647
0.217236, 816, 41, 2216, -547, -2641, 4647
0.217370, 1461, -14, 2155, -666, -2870, 3824
0.217505, 1461, -14, 2155, -666, -2870, 3824
0.217639, 1461, -14, 2155, -666, -2870, 3824
0.217774, 1461, -14, 2155, -666, -2870, 3824
0.217908, 1461, -14, 2155, -666, -2870, 3824
0.218043, 1461, -14, 2155, -666, -2870, 3824
0.218177, 1461, -14, 2155, -666, -2870, 3824
0.218312, 1461, -14, 2155, -666, -2870, 3824
0.218447, 1324, 58, 2104, -723, -2832, 2743
0.218581, 1324, 58, 2104, -723, -2832, 2743
0.218716, 1324, 58, 2104, -723, -2832, 2743
0.218850, 1324, 58, 2104, -723, -2832, 2743
0.218985, 1324, 58, 2104, -723, -2832, 2743
0.219119, 1324, 58, 2104, -723, -2832, 2743
0.219253, 1324, 58, 2104, -723, -2832, 2743
0.219388, 770, 110, 1993, -693, -2523, 1895
0.219523, 770, 110, 1993, -693, -2523, 1895
0.219657, 770, 110, 1993, -693, -2523, 1895
0.219792, 770, 110, 1993, -693, -2523, 1895
0.219926, 770, 110, 1993, -693, -2523, 1895
0.220061, 770, 110, 1993, -693, -2523, 1895
0.220195, 770, 110, 1993, -693, -2523, 1895
0.220329, 770, 110, 1993, -693, -2523, 1895
0.220464, 614, 73, 1950, -561, -2059, 1392
0.220599, 614, 73, 1950, -561, -2059, 1392
0.220733, 614, 73, 1950, -561, -2059, 1392
0.220868, 614, 73, 1950, -561, -2059, 1392
0.221002, 614, 73, 1950, -561, -2059, 1392
0.221136, 614, 73, 1950, -561, -2059, 1392
0.221271, 614, 73, 1950, -561, -2059, 1392
0.221405, 845, 106, 2069, -317, -1498, 939
0.221540, 845, 106, 2069, -317, -1498, 939
0.221674, 845, 106, 2069, -317, -1498, 939
0.221809, 845, 106, 2069, -317, -1498, 939
0.221943, 845, 106, 2069, -317, -1498, 939
0.222078, 845, 106, 2069, -317, -1498, 939
0.222212, 845, 106, 2069, -317, -1498, 939
0.222347, 845, 106, 2069, -317, -1498, 939
0.222482, 349, 163, 2134, -42, -895, 532
0.222617, 349, 163, 2134, -42, -895, 532
0.222751, 349, 163, 2134, -42, -895, 532
0.222886, 349, 163, 2134, -42, -895, 532
0.223020, 349, 163, 2134, -42, -895, 532
0.223154, 349, 163, 2134, -42, -895, 532
0.223289, 349, 163, 2134, -42, -895, 532
0.223423, 349, 163, 2134, -42, -895, 532
0.223558, -675, 125, 2072, 170, -413, 624
0.223692, -675, 125, 2072, 170, -413, 624
0.223827, -675, 125, 2072, 170, -413, 624
0.223961, -675, 125, 2072, 170, -413, 624
0.224096, -675, 125, 2072, 170, -413, 624
0.224230, -675, 125, 2072, 170, -413, 624
0.224365, -675, 125, 2072, 170, -413, 624
0.224500, -99, 184, 2054, 295, -211, 1079
0.224634, -99, 184, 2054, 295, -211, 1079
0.224769, -99, 184, 2054, 295, -211, 1079
0.224903, -99, 184, 2054, 295, -211, 1079
0.225038, -99, 184, 2054, 295, -211, 1079
0.225172, -99, 184, 2054, 295, -211, 1079
0.225307, -99, 184, 2054, 295, -211, 1079
0.225441, -99, 184, 2054, 295, -211, 1079
0.225575, 748, 196, 2157, 352, -239, 968
0.225710, 748, 196, 2157, 352, -239, 968
0.225845, 748, 196, 2157, 352, -239, 968
0.225979, 748, 196, 2157, 352, -239, 968
0.226114, 748, 196, 2157, 352, -239, 968
0.226248, 748, 196, 2157, 352, -239, 968
0.226383, 748, 196, 2157, 352, -239, 968
0.226517, -615, 98, 1777, 264, -327, 672
0.226652, -615, 98, 1777, 264, -327, 672
0.226786, -615, 98, 1777, 264, -327, 672
0.226921, -615, 98, 1777, 264, -327, 672
0.227055, -615, 98, 1777, 264, -327, 672
0.227190, -615, 98, 1777, 264, -327, 672
0.227324, -615, 98, 1777, 264, -327, 672
0.227459, -615, 98, 1777, 264, -327, 672
0.227597, -986, 199, 742, -336, -586, 1253
0.227734, -986, 199, 742, -336, -586, 1253
0.227869, -986, 199, 742, -336, -586, 1253
0.228003, -986, 199, 742, -336, -586, 1253
0.228138, -986, 199, 742, -336, -586, 1253
0.228272, -986, 199, 742, -336, -586, 1253
0.228407, -986, 199, 742, -336, -586, 1253
0.228541, 3386, 122, 714, -1463, -1124, 1099
0.228676, 3386, 122, 714, -1463, -1124, 1099
0.228810, 3386, 122, 714, -1463, -1124, 1099
0.228945, 3386, 122, 714, -1463, -1124, 1099
0.229079, 3386, 122, 714, -1463, -1124, 1099
0.229214, 3386, 122, 714, -1463, -1124, 1099
0.229348, 3386, 122, 714, -1463, -1124, 1099
0.229483, 3386, 122, 714, -1463, -1124, 1099
0.229617, 7115, -148, 2444, -2087, -1334, -2164
0.229752, 7115, -148, 2444, -2087, -1334, -2164
0.229887, 7115, -148, 2444, -2087, -1334, -2164
0.230021, 7115, -148, 2444, -2087, -1334, -2164
0.230156, 7115, -148, 2444, -2087, -1334, -2164
0.230291, 7115, -148, 2444, -2087, -1334, -2164
0.230425, 7115, -148, 2444, -2087, -1334, -2164
0.230560, 3389, -53, 3480, -1434, -648, -6303
0.230695, 3389, -53, 3480, -1434, -648, -6303
0.230830, 3389, -53, 3480, -1434, -648, -6303
0.230964, 3389, -53, 3480, -1434, -648, -6303
0.231099, 3389, -53, 3480, -1434, -648, -6303
0.231233, 3389, -53, 3480, -1434, -648, -6303
0.231368, 3389, -53, 3480, -1434, -648, -6303
0.231502, 3389, -53, 3480, -1434, -648, -6303
0.231637, -1692, 4, 2693, -80, 430, -7183
0.231771, -1692, 4, 2693, -80, 430, -7183
0.231906, -1692, 4, 2693, -80, 430, -7183
0.232040, -1692, 4, 2693, -80, 430, -7183
0.232175, -1692, 4, 2693, -80, 430, -7183
0.232309, -1692, 4, 2693, -80, 430, -7183
0.232444, -1692, 4, 2693, -80, 430, -7183
0.232578, -1357, -73, 2248, 1243, 1228, -5831
0.232713, -1357, -73, 2248, 1243, 1228, -5831
0.232848, -1357, -73, 2248, 1243, 1228, -5831
0.232982, -1357, -73, 2248, 1243, 1228, -5831
0.233117, -1357, -73, 2248, 1243, 1228, -5831
0.233251, -1357, -73, 2248, 1243, 1228, -5831
0.233386, -1357, -73, 2248, 1243, 1228, -5831
0.233520, -1357, -73, 2248, 1243, 1228, -5831
0.233655, 375, -80, 3046, 2426, 1708, -5332
0.233790, 375, -80, 3046, 2426, 1708, -5332
0.233924, 375, -80, 3046, 2426, 1708, -5332
0.234059, 375, -80, 3046, 2426, 1708, -5332
0.234193, 375, -80, 3046, 2426, 1708, -5332
0.234328, 375, -80, 3046, 2426, 1708, -5332
0.234467, 375, -80, 3046, 2426, 1708, -5332
0.234607, -522, -308, 3054, 3532, 1969, -5453
0.234747, -522, -308, 3054, 3532, 1969, -5453
0.234882, -522, -308, 3054, 3532, 1969, -5453
0.235018, -522, -308, 3054, 3532, 1969, -5453
0.235159, -522, -308, 3054, 3532, 1969, -5453
0.235295, -522, -308, 3054, 3532, 1969, -5453
0.235430, -522, -308, 3054, 3532, 1969, -5453
0.235565, -522, -308, 3054, 3532, 1969, -5453
0.235702, -2479, -306, 1000, 3744, 1873, -4667
0.235839, -2479, -306, 1000, 3744, 1873, -4667
0.235975, -2479, -306, 1000, 3744, 1873, -4667
0.236113, -2479, -306, 1000, 3744, 1873, -4667
0.236249, -2479, -306, 1000, 3744, 1873, -4667
0.236386, -2479, -306, 1000, 3744, 1873, -4667
0.236521, -2479, -306, 1000, 3744, 1873, -4667
0.236657, -2822, 127, -37, 2435, 1237, -2958
0.236792, -2822, 127, -37, 2435, 1237, -2958
0.236930, -2822, 127, -37, 2435, 1237, -2958
0.237068, -2822, 127, -37, 2435, 1237, -2958
0.237205, -2822, 127, -37, 2435, 1237, -2958
0.237340, -2822, 127, -37, 2435, 1237, -2958
0.237476, -2822, 127, -37, 2435, 1237, -2958
0.237611, -2822, 127, -37, 2435, 1237, -2958
0.237746, -1997, 490, 1273, 776, 458, -1402
0.237881, -1997, 490, 1273, 776, 458, -1402
0.238016, -1997, 490, 1273, 776, 458, -1402
0.238151, -1997, 490, 1273, 776, 458, -1402
0.238286, -1997, 490, 1273, 776, 458, -1402
0.238422, -1997, 490, 1273, 776, 458, -1402
0.238558, -1997, 490, 1273, 776, 458, -1402
0.238693, -1337, 445, 1909, -280, -69, -379
0.238828, -1337, 445, 1909, -280, -69, -379
0.238965, -1337, 445, 1909, -280, -69, -379
0.239100, -1337, 445, 1909, -280, -69, -379
0.239235, -1337, 445, 1909, -280, -69, -379
0.239370, -1337, 445, 1909, -280, -69, -379
0.239505, -1337, 445, 1909, -280, -69, -379
0.239640, -1337, 445, 1909, -280, -69, -379
0.239774, 251, 178, 1707, -956, -661, 62
0.239909, 251, 178, 1707, -956, -661, 62
0.240063, 251, 178, 1707, -956, -661, 62
0.240200, 251, 178, 1707, -956, -661, 62
0.240336, 251, 178, 1707, -956, -661, 62
0.240471, 251, 178, 1707, -956, -661, 62
0.240606, 251, 178, 1707, -956, -661, 62
0.240743, 1730, 119, 2319, -1341, -1203, -550
0.240878, 1730, 119, 2319, -1341, -1203, -550
0.241013, 1730, 119, 2319, -1341, -1203, -550
0.241148, 1730, 119, 2319, -1341, -1203, -550
0.241282, 1730, 119, 2319, -1341, -1203, -550
0.241418, 1730, 119, 2319, -1341, -1203, -550
0.241553, 1730, 119, 2319, -1341, -1203, -550
0.241688, 1015, 224, 3127, -1103, -1197, -1644
0.241823, 1015, 224, 3127, -1103, -1197, -1644
0.241959, 1015, 224, 3127, -1103, -1197, -1644
0.242094, 1015, 224, 3127, -1103, -1197, -1644
0.242236, 1015, 224, 3127, -1103, -1197, -1644
0.242374, 1015, 224, 3127, -1103, -1197, -1644
0.242510, 1015, 224, 3127, -1103, -1197, -1644
0.242646, 1015, 224, 3127, -1103, -1197, -1644
0.242781, -108, 288, 3032, -241, -807, -2026
0.242916, -108, 288, 3032, -241, -807, -2026
0.243054, -108, 288, 3032, -241, -807, -2026
0.243192, -108, 288, 3032, -241, -807, -2026
0.243329, -108, 288, 3032, -241, -807, -2026
0.243465, -108, 288, 3032, -241, -807, -2026
0.243601, -108, 288, 3032, -241, -807, -2026
0.243738, 715, 149, 1827, 452, -355, -2015
0.243874, 715, 149, 1827, 452, -355, -2015
0.244010, 715, 149, 1827, 452, -355, -2015
0.244144, 715, 149, 1827, 452, -355, -2015
0.244279, 715, 149, 1827, 452, -355, -2015
0.244413, 715, 149, 1827, 452, -355, -2015
0.244548, 715, 149, 1827, 452, -355, -2015
0.244682, 715, 149, 1827, 452, -355, -2015
0.244816, 1954, -80, 1046, 242, 30, -2774
0.244951, 1954, -80, 1046, 242, 30, -2774
0.245086, 1954, -80, 1046, 242, 30, -2774
0.245220, 1954, -80, 1046, 242, 30, -2774
0.245354, 1954, -80, 1046, 242, 30, -2774
0.245489, 1954, -80, 1046, 242, 30, -2774
0.245623, 1954, -80, 1046, 242, 30, -2774
0.245758, 773, -17, 1741, -367, 465, -3852
0.245892, 773, -17, 1741, -367, 465, -3852
0.246027, 773, -17, 1741, -367, 465, -3852
0.246161, 773, -17, 1741, -367, 465, -3852
0.246306, 773, -17, 1741, -367, 465, -3852
0.246441, 773, -17, 1741, -367, 465, -3852
0.246576, 773, -17, 1741, -367, 465, -3852
0.246710, 773, -17, 1741, -367, 465, -3852
0.246845, -1112, 40, 2458, -421, 1153, -3881
0.246979, -1112, 40, 2458, -421, 1153, -3881
0.247114, -1112, 40, 2458, -421, 1153, -3881
0.247248, -1112, 40, 2458, -421, 1153, -3881
0.247378, -1112, 40, 2458, -421, 1153, -3881
0.247513, -1112, 40, 2458, -421, 1153, -3881
0.247649, -1112, 40, 2458, -421, 1153, -3881
0.247784, -1326, -135, 2529, 133, 1782, -3062
0.247918, -1326, -135, 2529, 133, 1782, -3062
0.248053, -1326, -135, 2529, 133, 1782, -3062
0.248187, -1326, -135, 2529, 133, 1782, -3062
0.248322, -1326, -135, 2529, 133, 1782, -3062
0.248456, -1326, -135, 2529, 133, 1782, -3062
0.248590, -1326, -135, 2529, 133, 1782, -3062
0.248725, -1326, -135, 2529, 133, 1782, -3062
0.248859, -443, -151, 2105, 636, 1930, -2400
0.248994, -443, -151, 2105, 636, 1930, -2400
0.249128, -443, -151, 2105, 636, 1930, -2400
0.249263, -443, -151, 2105, 636, 1930, -2400
0.249397, -443, -151, 2105, 636, 1930, -2400
0.249531, -443, -151, 2105, 636, 1930, -2400
0.249666, -443, -151, 2105, 636, 1930, -2400
0.249800, -216, -4, 1732, 552, 1580, -2214
0.249935, -216, -4, 1732, 552, 1580, -2214
0.250069, -216, -4, 1732, 552, 1580, -2214
0.250204, -216, -4, 1732, 552, 1580, -2214
0.250338, -216, -4, 1732, 552, 1580, -2214
0.250473, -216, -4, 1732, 552, 1580, -2214
0.250607, -216, -4, 1732, 552, 1580, -2214
0.250741, -216, -4, 1732, 552, 1580, -2214
0.250876, -710, 138, 1989, 215, 930, -2006
0.251010, -710, 138, 1989, 215, 930, -2006
0.251145, -710, 138, 1989, 215, 930, -2006
0.251279, -710, 138, 1989, 215, 930, -2006
0.251414, -710, 138, 1989, 215, 930, -2006
0.251548, -710, 138, 1989, 215, 930, -2006
0.251682, -710, 138, 1989, 215, 930, -2006
0.251817, -265, 185, 2320, 155, 336, -1685
0.251951, -265, 185, 2320, 155, 336, -1685
0.252086, -265, 185, 2320, 155, 336, -1685
0.252220, -265, 185, 2320, 155, 336, -1685
0.252355, -265, 185, 2320, 155, 336, -1685
0.252511, -265, 185, 2320, 155, 336, -1685
0.252646, -265, 185, 2320, 155, 336, -1685
0.252781, -265, 185, 2320, 155, 336, -1685
0.252915, -199, 172, 2210, 246, 32, -1652
0.253050, -199, 172, 2210, 246, 32, -1652
0.253184, -199, 172, 2210, 246, 32, -1652
0.253315, -199, 172, 2210, 246, 32, -1652
0.253451, -199, 172, 2210, 246, 32, -1652
0.253588, -199, 172, 2210, 246, 32, -1652
0.253723, -199, 172, 2210, 246, 32, -1652
0.253857, -1275, 159, 1946, 248, -117, -1310
0.253992, -1275, 159, 1946, 248, -117, -1310
0.254126, -1275, 159, 1946, 248, -117, -1310
0.254261, -1275, 159, 1946, 248, -117, -1310
0.254396, -1275, 159, 1946, 248, -117, -1310
0.254531, -1275, 159, 1946, 248, -117, -1310
0.254666, -1275, 159, 1946, 248, -117, -1310
0.254796, -1275, 159, 1946, 248, -117, -1310
0.254931, -1444, 111, 1858, 170, -271, -361
0.255066, -1444, 111, 1858, 170, -271, -361
0.255200, -1444, 111, 1858, 170, -271, -361
0.255335, -1444, 111, 1858, 170, -271, -361
0.255469, -1444, 111, 1858, 170, -271, -361
0.255604, -1444, 111, 1858, 170, -271, -361
0.255738, -1444, 111, 1858, 170, -271, -361
0.255873, -901, 120, 1591, -56, -474, 434
0.256007, -901, 120, 1591, -56, -474, 434
0.256142, -901, 120, 1591, -56, -474, 434
0.256276, -901, 120, 1591, -56, -474, 434
0.256411, -901, 120, 1591, -56, -474, 434
0.256545, -901, 120, 1591, -56, -474, 434
0.256680, -901, 120, 1591, -56, -474, 434
0.256814, -901, 120, 1591, -56, -474, 434
0.256949, -928, 166, 1400, -561, -720, 905
0.257083, -928, 166, 1400, -561, -720, 905
0.257218, -928, 166, 1400, -561, -720, 905
0.257352, -928, 166, 1400, -561, -720, 905
0.257487, -928, 166, 1400, -561, -720, 905
0.257621, -928, 166, 1400, -561, -720, 905
0.257756, -928, 166, 1400, -561, -720, 905
0.257890, -1161, 140, 1901, -1067, -867, 1491
0.258025, -1161, 140, 1901, -1067, -867, 1491
0.258159, -1161, 140, 1901, -1067, -867, 1491
0.258294, -1161, 140, 1901, -1067, -867, 1491
0.258433, -1161, 140, 1901, -1067, -867, 1491
0.258567, -1161, 140, 1901, -1067, -867, 1491
0.258702, -1161, 140, 1901, -1067, -867, 1491
0.258836, -1161, 140, 1901, -1067, -867, 1491
0.258971, -958, 86, 2602, -1132, -826, 2223
0.259105, -958, 86, 2602, -1132, -826, 2223
0.259240, -958, 86, 2602, -1132, -826, 2223
0.259374, -958, 86, 2602, -1132, -826, 2223
0.259509, -958, 86, 2602, -1132, -826, 2223
0.259643, -958, 86, 2602, -1132, -826, 2223
0.259778, -958, 86, 2602, -1132, -826, 2223
0.259912, -958, 86, 2602, -1132, -826, 2223
0.260047, -169, 18, 2760, -784, -758, 2668
0.260181, -169, 18, 2760, -784, -758, 2668
0.260316, -169, 18, 2760, -784, -758, 2668
0.260450, -169, 18, 2760, -784, -758, 2668
0.260580, -169, 18, 2760, -784, -758, 2668
0.260716, -169, 18, 2760, -784, -758, 2668
0.260851, -169, 18, 2760, -784, -758, 2668
0.260986, 411, 6, 2364, -486, -799, 2571
0.261121, 411, 6, 2364, -486, -799, 2571
0.261255, 411, 6, 2364, -486, -799, 2571
0.261390, 411, 6, 2364, -486, -799, 2571
0.261524, 411, 6, 2364, -486, -799, 2571
0.261658, 411, 6, 2364, -486, -799, 2571
0.261793, 411, 6, 2364, -486, -799, 2571
0.261928, 411, 6, 2364, -486, -799, 2571
0.262062, 802, 46, 2008, -550, -914, 2177
0.262197, 802, 46, 2008, -550, -914, 2177
0.262332, 802, 46, 2008, -550, -914, 2177
0.262466, 802, 46, 2008, -550, -914, 2177
0.262601, 802, 46, 2008, -550, -914, 2177
0.262735, 802, 46, 2008, -550, -914, 2177
0.262869, 802, 46, 2008, -550, -914, 2177
0.263004, 1794, -7, 2020, -771, -993, 1408
0.263139, 1794, -7, 2020, -771, -993, 1408
0.263273, 1794, -7, 2020, -771, -993, 1408
0.263408, 1794, -7, 2020, -771, -993, 1408
0.263542, 1794, -7, 2020, -771, -993, 1408
0.263676, 1794, -7, 2020, -771, -993, 1408
0.263811, 1794, -7, 2020, -771, -993, 1408
0.263945, 1794, -7, 2020, -771, -993, 1408
0.264080, 2043, -73, 1979, -889, -882, 37
0.264214, 2043, -73, 1979, -889, -882, 37
0.264349, 2043, -73, 1979, -889, -882, 37
0.264483, 2043, -73, 1979, -889, -882, 37
0.264618, 2043, -73, 1979, -889, -882, 37
0.264752, 2043, -73, 1979, -889, -882, 37
0.264886, 2043, -73, 1979, -889, -882, 37
0.265021, 441, 29, 1767, -901, -570, -1089
0.265155, 441, 29, 1767, -901, -570, -1089
0.265308, 441, 29, 1767, -901, -570, -1089
0.265444, 441, 29, 1767, -901, -570, -1089
0.265579, 441, 29, 1767, -901, -570, -1089
0.265713, 441, 29, 1767, -901, -570, -1089
0.265847, 441, 29, 1767, -901, -570, -1089
0.265982, 441, 29, 1767, -901, -570, -1089
0.266117, -1174, 222, 1939, -750, -199, -984
0.266251, -1174, 222, 1939, -750, -199, -984
0.266386, -1174, 222, 1939, -750, -199, -984
0.266520, -1174, 222, 1939, -750, -199, -984
0.266655, -1174, 222, 1939, -750, -199, -984
0.266789, -1174, 222, 1939, -750, -199, -984
0.266924, -1174, 222, 1939, -750, -199, -984
0.267058, -1370, 259, 2392, -318, 115, -83
0.267193, -1370, 259, 2392, -318, 115, -83
0.267328, -1370, 259, 2392, -318, 115, -83
0.267462, -1370, 259, 2392, -318, 115, -83
0.267596, -1370, 259, 2392, -318, 115, -83
0.267731, -1370, 259, 2392, -318, 115, -83
0.267865, -1370, 259, 2392, -318, 115, -83
0.268000, -1370, 259, 2392, -318, 115, -83
0.268134, -1364, 207, 2440, 177, 225, 826
0.268269, -1364, 207, 2440, 177, 225, 826
0.268404, -1364, 207, 2440, 177, 225, 826
0.268538, -1364, 207, 2440, 177, 225, 826
0.268673, -1364, 207, 2440, 177, 225, 826
0.268807, -1364, 207, 2440, 177, 225, 826
0.268942, -1364, 207, 2440, 177, 225, 826
0.269076, -1636, 224, 2224, 359, 32, 1808
0.269211, -1636, 224, 2224, 359, 32, 1808
0.269345, -1636, 224, 2224, 359, 32, 1808
0.269480, -1636, 224, 2224, 359, 32, 1808
0.269614, -1636, 224, 2224, 359, 32, 1808
0.269749, -1636, 224, 2224, 359, 32, 1808
0.269883, -1636, 224, 2224, 359, 32, 1808
0.270018, -1636, 224, 2224, 359, 32, 1808
0.270152, -1229, 200, 2113, 164, -341, 2863
0.270287, -1229, 200, 2113, 164, -341, 2863
0.270423, -1229, 200, 2113, 164, -341, 2863
0.270557, -1229, 200, 2113, 164, -341, 2863
0.270692, -1229, 200, 2113, 164, -341, 2863
0.270826, -1229, 200, 2113, 164, -341, 2863
0.270961, -1229, 200, 2113, 164, -341, 2863
0.271095, -367, 118, 2101, -209, -722, 3453
0.271230, -367, 118, 2101, -209, -722, 3453
0.271364, -367, 118, 2101, -209, -722, 3453
0.271499, -367, 118, 2101, -209, -722, 3453
0.271633, -367, 118, 2101, -209, -722, 3453
0.271768, -367, 118, 2101, -209, -722, 3453
0.271902, -367, 118, 2101, -209, -722, 3453
0.272037, -367, 118, 2101, -209, -722, 3453
0.272171, -715, 157, 2118, -587, -995, 3577
0.272306, -715, 157, 2118, -587, -995, 3577
0.272440, -715, 157, 2118, -587, -995, 3577
0.272575, -715, 157, 2118, -587, -995, 3577
0.272709, -715, 157, 2118, -587, -995, 3577
0.272844, -715, 157, 2118, -587, -995, 3577
0.272978, -715, 157, 2118, -587, -995, 3577
0.273113, -1844, 295, 2095, -913, -1152, 4142
0.273247, -1844, 295, 2095, -913, -1152, 4142
0.273382, -1844, 295, 2095, -913, -1152, 4142
0.273516, -1844, 295, 2095, -913, -1152, 4142
0.273651, -1844, 295, 2095, -913, -1152, 4142
0.273785, -1844, 295, 2095, -913, -1152, 4142
0.273920, -1844, 295, 2095, -913, -1152, 4142
0.274054, -1844, 295, 2095, -913, -1152, 4142
0.274189, -1292, 240, 2089, -1167, -1374, 5159
0.274324, -1292, 240, 2089, -1167, -1374, 5159
0.274458, -1292, 240, 2089, -1167, -1374, 5159
0.274593, -1292, 240, 2089, -1167, -1374, 5159
0.274727, -1292, 240, 2089, -1167, -1374, 5159
0.274862, -1292, 240, 2089, -1167, -1374, 5159
0.274996, -1292, 240, 2089, -1167, -1374, 5159
0.275131, 182, 24, 2131, -1350, -1670, 5508
0.275266, 182, 24, 2131, -1350, -1670, 5508
0.275400, 182, 24, 2131, -1350, -1670, 5508
0.275535, 182, 24, 2131, -1350, -1670, 5508
0.275669, 182, 24, 2131, -1350, -1670, 5508
0.275804, 182, 24, 2131, -1350, -1670, 5508
0.275938, 182, 24, 2131, -1350, -1670, 5508
0.276073, 182, 24, 2131, -1350, -1670, 5508
0.276207, 829, -89, 2192, -1484, -1860, 5064
0.276342, 829, -89, 2192, -1484, -1860, 5064
0.276476, 829, -89, 2192, -1484, -1860, 5064
0.276611, 829, -89, 2192, -1484, -1860, 5064
0.276745, 829, -89, 2192, -1484, -1860, 5064
0.276880, 829, -89, 2192, -1484, -1860, 5064
0.277014, 829, -89, 2192, -1484, -1860, 5064
0.277149, 1371, -162, 2248, -1536, -1840, 4348
0.277284, 1371, -162, 2248, -1536, -1840, 4348
0.277418, 1371, -162, 2248, -1536, -1840, 4348
0.277553, 1371, -162, 2248, -1536, -1840, 4348
0.277687, 1371, -162, 2248, -1536, -1840, 4348
0.277826, 1371, -162, 2248, -1536, -1840, 4348
0.277961, 1371, -162, 2248, -1536, -1840, 4348
0.278096, 1371, -162, 2248, -1536, -1840, 4348
0.278231, 2543, -335, 2311, -1431, -1568, 3182
0.278366, 2543, -335, 2311, -1431, -1568, 3182
0.278500, 2543, -335, 2311, -1431, -1568, 3182
0.278635, 2543, -335, 2311, -1431, -1568, 3182
0.278769, 2543, -335, 2311, -1431, -1568, 3182
0.278904, 2543, -335, 2311, -1431, -1568, 3182
0.279038, 2543, -335, 2311, -1431, -1568, 3182
0.279168, 2543, -335, 2311, -1431, -1568, 3182
0.279304, 3839, -491, 2427, -1105, -1074, 1185
0.279440, 3839, -491, 2427, -1105, -1074, 1185
0.279576, 3839, -491, 2427, -1105, -1074, 1185
0.279710, 3839, -491, 2427, -1105, -1074, 1185
0.279845, 3839, -491, 2427, -1105, -1074, 1185
0.279979, 3839, -491, 2427, -1105, -1074, 1185
0.280114, 3839, -491, 2427, -1105, -1074, 1185
0.280248, 4303, -243, 2658, -490, -440, -1480
0.280383, 4303, -243, 2658, -490, -440, -1480
0.280518, 4303, -243, 2658, -490, -440, -1480
0.280653, 4303, -243, 2658, -490, -440, -1480
0.280787, 4303, -243, 2658, -490, -440, -1480
0.280922, 4303, -243, 2658, -490, -440, -1480
0.281056, 4303, -243, 2658, -490, -440, -1480
0.281191, 4303, -243, 2658, -490, -440, -1480
0.281325, 3504, 190, 2684, 367, 320, -4140
0.281460, 3504, 190, 2684, 367, 320, -4140
0.281595, 3504, 190, 2684, 367, 320, -4140
0.281729, 3504, 190, 2684, 367, 320, -4140
0.281863, 3504, 190, 2684, 367, 320, -4140
0.281998, 3504, 190, 2684, 367, 320, -4140
0.282132, 3504, 190, 2684, 367, 320, -4140
0.282267, 1583, 233, 2447, 1271, 1200, -6009
0.282403, 1583, 233, 2447, 1271, 1200, -6009
0.282537, 1583, 233, 2447, 1271, 1200, -6009
0.282672, 1583, 233, 2447, 1271, 1200, -6009
0.282806, 1583, 233, 2447, 1271, 1200, -6009
0.282941, 1583, 233, 2447, 1271, 1200, -6009
0.283075, 1583, 233, 2447, 1271, 1200, -6009
0.283210, 1583, 233, 2447, 1271, 1200, -6009
0.283344, -848, 301, 2331, 2112, 1992, -6440
0.283479, -848, 301, 2331, 2112, 1992, -6440
0.283613, -848, 301, 2331, 2112, 1992, -6440
0.283748, -848, 301, 2331, 2112, 1992, -6440
0.283882, -848, 301, 2331, 2112, 1992, -6440
0.284017, -848, 301, 2331, 2112, 1992, -6440
0.284151, -848, 301, 2331, 2112, 1992, -6440
0.284286, -2137, 756, 2407, 2826, 2445, -5398
0.284420, -2137, 756, 2407, 2826, 2445, -5398
0.284555, -2137, 756, 2407, 2826, 2445, -5398
0.284690, -2137, 756, 2407, 2826, 2445, -5398
0.284824, -2137, 756, 2407, 2826, 2445, -5398
0.284958, -2137, 756, 2407, 2826, 2445, -5398
0.285093, -2137, 756, 2407, 2826, 2445, -5398
0.285227, -2137, 756, 2407, 2826, 2445, -5398
0.285362, -811, 1538, 3376, 3590, 2526, -3968
0.285497, -811, 1538, 3376, 3590, 2526, -3968
0.285631, -811, 1538, 3376, 3590, 2526, -3968
0.285766, -811, 1538, 3376, 3590, 2526, -3968
0.285900, -811, 1538, 3376, 3590, 2526, -3968
0.286034, -811, 1538, 3376, 3590, 2526, -3968
0.286169, -811, 1538, 3376, 3590, 2526, -3968
0.286304, 1454, 1097, 4131, 4743, 2467, -3683
0.286438, 1454, 1097, 4131, 4743, 2467, -3683
0.286573, 1454, 1097, 4131, 4743, 2467, -3683
0.286707, 1454, 1097, 4131, 4743, 2467, -3683
0.286842, 1454, 1097, 4131, 4743, 2467, -3683
0.286976, 1454, 1097, 4131, 4743, 2467, -3683
0.287110, 1454, 1097, 4131, 4743, 2467, -3683
0.287245, 1454, 1097, 4131, 4743, 2467, -3683
0.287379, 2367, -1211, 946, 4949, 2228, -4634
0.287513, 2367, -1211, 946, 4949, 2228, -4634
0.287648, 2367, -1211, 946, 4949, 2228, -4634
0.287782, 2367, -1211, 946, 4949, 2228, -4634
0.287917, 2367, -1211, 946, 4949, 2228, -4634
0.288051, 2367, -1211, 946, 4949, 2228, -4634
0.288185, 2367, -1211, 946, 4949, 2228, -4634
0.288324, 2420, -1479, -2026, 2930, 1201, -6072
0.288462, 2420, -1479, -2026, 2930, 1201, -6072
0.288598, 2420, -1479, -2026, 2930, 1201, -6072
0.288733, 2420, -1479, -2026, 2930, 1201, -6072
0.288867, 2420, -1479, -2026, 2930, 1201, -6072
0.289002, 2420, -1479, -2026, 2930, 1201, -6072
0.289137, 2420, -1479, -2026, 2930, 1201, -6072
0.289271, 2420, -1479, -2026, 2930, 1201, -6072
0.289406, -357, 332, 540, 728, 165, -7372
0.289541, -357, 332, 540, 728, 165, -7372
0.289675, -357, 332, 540, 728, 165, -7372
0.289820, -357, 332, 540, 728, 165, -7372
0.289956, -357, 332, 540, 728, 165, -7372
0.290091, -357, 332, 540, 728, 165, -7372
0.290225, -357, 332, 540, 728, 165, -7372
0.290361, -7465, 505, 2274, 364, 534, -6041
0.290496, -7465, 505, 2274, 364, 534, -6041
0.290630, -7465, 505, 2274, 364, 534, -6041
0.290765, -7465, 505, 2274, 364, 534, -6041
0.290900, -7465, 505, 2274, 364, 534, -6041
0.291034, -7465, 505, 2274, 364, 534, -6041
0.291169, -7465, 505, 2274, 364, 534, -6041
0.291304, -7465, 505, 2274, 364, 534, -6041
0.291438, -10387, 126, 1103, 920, 976, -518
0.291573, -10387, 126, 1103, 920, 976, -518
0.291708, -10387, 126, 1103, 920, 976, -518
0.291843, -10387, 126, 1103, 920, 976, -518
0.291978, -10387, 126, 1103, 920, 976, -518
0.292112, -10387, 126, 1103, 920, 976, -518
0.292247, -10387, 126, 1103, 920, 976, -518
0.292381, -4447, 351, 1514, 839, 156, 5084
0.292516, -4447, 351, 1514, 839, 156, 5084
0.292651, -4447, 351, 1514, 839, 156, 5084
0.292786, -4447, 351, 1514, 839, 156, 5084
0.292920, -4447, 351, 1514, 839, 156, 5084
0.293055, -4447, 351, 1514, 839, 156, 5084
0.293190, -4447, 351, 1514, 839, 156, 5084
0.293324, -4447, 351, 1514, 839, 156, 5084
0.293459, 876, 214, 2517, -58, -1091, 6609
0.293594, 876, 214, 2517, -58, -1091, 6609
0.293729, 876, 214, 2517, -58, -1091, 6609
0.293864, 876, 214, 2517, -58, -1091, 6609
0.293998, 876, 214, 2517, -58, -1091, 6609
0.294133, 876, 214, 2517, -58, -1091, 6609
0.294268, 876, 214, 2517, -58, -1091, 6609
0.294403, 1185, 2, 2317, -1180, -2382, 5783
0.294538, 1185, 2, 2317, -1180, -2382, 5783
0.294673, 1185, 2, 2317, -1180, -2382, 5783
0.294807, 1185, 2, 2317, -1180, -2382, 5783
0.294942, 1185, 2, 2317, -1180, -2382, 5783
0.295077, 1185, 2, 2317, -1180, -2382, 5783
0.295211, 1185, 2, 2317, -1180, -2382, 5783
0.295346, 1185, 2, 2317, -1180, -2382, 5783
0.295481, 1186, 12, 1962, -2178, -3281, 4902
0.295615, 1186, 12, 1962, -2178, -3281, 4902
0.295750, 1186, 12, 1962, -2178, -3281, 4902
0.295885, 1186, 12, 1962, -2178, -3281, 4902
0.296019, 1186, 12, 1962, -2178, -3281, 4902
0.296154, 1186, 12, 1962, -2178, -3281, 4902
0.296289, 1186, 12, 1962, -2178, -3281, 4902
0.296423, 1483, -48, 2144, -2811, -3272, 3813
0.296558, 1483, -48, 2144, -2811, -3272, 3813
0.296693, 1483, -48, 2144, -2811, -3272, 3813
0.296827, 1483, -48, 2144, -2811, -3272, 3813
0.296962, 1483, -48, 2144, -2811, -3272, 3813
0.297097, 1483, -48, 2144, -2811, -3272, 3813
0.297231, 1483, -48, 2144, -2811, -3272, 3813
0.297366, 1483, -48, 2144, -2811, -3272, 3813
0.297501, 1402, -236, 2383, -2795, -2826, 2694
0.297635, 1402, -236, 2383, -2795, -2826, 2694
0.297770, 1402, -236, 2383, -2795, -2826, 2694
0.297905, 1402, -236, 2383, -2795, -2826, 2694
0.298040, 1402, -236, 2383, -2795, -2826, 2694
0.298174, 1402, -236, 2383, -2795, -2826, 2694
0.298309, 1402, -236, 2383, -2795, -2826, 2694
0.298444, 2374, -350, 2553, -2219, -2205, 1583
0.298578, 2374, -350, 2553, -2219, -2205, 1583
0.298713, 2374, -350, 2553, -2219, -2205, 1583
0.298848, 2374, -350, 2553, -2219, -2205, 1583
0.298982, 2374, -350, 2553, -2219, -2205, 1583
0.299117, 2374, -350, 2553, -2219, -2205, 1583
0.299252, 2374, -350, 2553, -2219, -2205, 1583
0.299386, 2374, -350, 2553, -2219, -2205, 1583
0.299521, 3826, -324, 2847, -1412, -1356, -242
0.299656, 3826, -324, 2847, -1412, -1356, -242
0.299790, 3826, -324, 2847, -1412, -1356, -242
0.299925, 3826, -324, 2847, -1412, -1356, -242
0.300060, 3826, -324, 2847, -1412, -1356, -242
0.300194, 3826, -324, 2847, -1412, -1356, -242
0.300329, 3826, -324, 2847, -1412, -1356, -242
0.300464, 3931, -253, 2670, -524, -361, -2724
0.300599, 3931, -253, 2670, -524, -361, -2724
0.300733, 3931, -253, 2670, -524, -361, -2724
0.300868, 3931, -253, 2670, -524, -361, -2724
0.301003, 3931, -253, 2670, -524, -361, -2724
0.301138, 3931, -253, 2670, -524, -361, -2724
0.301272, 3931, -253, 2670, -524, -361, -2724
0.301407, 3931, -253, 2670, -524, -361, -2724
0.301541, 2904, -6, 1804, 145, 685, -4983
0.301676, 2904, -6, 1804, 145, 685, -4983
0.301811, 2904, -6, 1804, 145, 685, -4983
0.301946, 2904, -6, 1804, 145, 685, -4983
0.302080, 2904, -6, 1804, 145, 685, -4983
0.302220, 2904, -6, 1804, 145, 685, -4983
0.302355, 2904, -6, 1804, 145, 685, -4983
0.302490, 967, 250, 1141, 259, 1607, -6404
0.302625, 967, 250, 1141, 259, 1607, -6404
0.302760, 967, 250, 1141, 259, 1607, -6404
0.302894, 967, 250, 1141, 259, 1607, -6404
0.303029, 967, 250, 1141, 259, 1607, -6404
0.303164, 967, 250, 1141, 259, 1607, -6404
0.303298, 967, 250, 1141, 259, 1607, -6404
0.303433, 967, 250, 1141, 259, 1607, -6404
0.303567, -1060, 438, 1451, 173, 2313, -6469
0.303702, -1060, 438, 1451, 173, 2313, -6469
0.303837, -1060, 438, 1451, 173, 2313, -6469
0.303972, -1060, 438, 1451, 173, 2313, -6469
0.304106, -1060, 438, 1451, 173, 2313, -6469
0.304241, -1060, 438, 1451, 173, 2313, -6469
0.304375, -1060, 438, 1451, 173, 2313, -6469
0.304510, -1060, 438, 1451, 173, 2313, -6469
0.304645, -745, 647, 1980, 393, 2795, -5594
0.304780, -745, 647, 1980, 393, 2795, -5594
0.304914, -745, 647, 1980, 393, 2795, -5594
0.305049, -745, 647, 1980, 393, 2795, -5594
0.305183, -745, 647, 1980, 393, 2795, -5594
0.305318, -745, 647, 1980, 393, 2795, -5594
0.305453, -745, 647, 1980, 393, 2795, -5594
0.305587, -623, 293, 1275, 297, 2967, -5004
0.305722, -623, 293, 1275, 297, 2967, -5004
0.305857, -623, 293, 1275, 297, 2967, -5004
0.305991, -623, 293, 1275, 297, 2967, -5004
0.306126, -623, 293, 1275, 297, 2967, -5004
0.306261, -623, 293, 1275, 297, 2967, -5004
0.306395, -623, 293, 1275, 297, 2967, -5004
0.306530, -623, 293, 1275, 297, 2967, -5004
0.306665, -2000, -182, 1225, -345, 2641, -4168
0.306800, -2000, -182, 1225, -345, 2641, -4168
0.306934, -2000, -182, 1225, -345, 2641, -4168
0.307069, -2000, -182, 1225, -345, 2641, -4168
0.307204, -2000, -182, 1225, -345, 2641, -4168
0.307338, -2000, -182, 1225, -345, 2641, -4168
0.307473, -2000, -182, 1225, -345, 2641, -4168
0.307608, -1652, 48, 3171, -281, 2009, -2641
0.307742, -1652, 48, 3171, -281, 2009, -2641
0.307877, -1652, 48, 3171, -281, 2009, -2641
0.308012, -1652, 48, 3171, -281, 2009, -2641
0.308146, -1652, 48, 3171, -281, 2009, -2641
0.308281, -1652, 48, 3171, -281, 2009, -2641
0.308416, -1652, 48, 3171, -281, 2009, -2641
0.308550, -1652, 48, 3171, -281, 2009, -2641
0.308685, 146, 543, 4383, 1001, 1545, -1770
0.308820, 146, 543, 4383, 1001, 1545, -1770
0.308954, 146, 543, 4383, 1001, 1545, -1770
0.309089, 146, 543, 4383, 1001, 1545, -1770
0.309223, 146, 543, 4383, 1001, 1545, -1770
0.309358, 146, 543, 4383, 1001, 1545, -1770
0.309493, 146, 543, 4383, 1001, 1545, -1770
0.309627, 942, 504, 2903, 2211, 1063, -2094
0.309762, 942, 504, 2903, 2211, 1063, -2094
0.309897, 942, 504, 2903, 2211, 1063, -2094
0.310032, 942, 504, 2903, 2211, 1063, -2094
0.310166, 942, 504, 2903, 2211, 1063, -2094
0.310302, 942, 504, 2903, 2211, 1063, -2094
0.310436, 942, 504, 2903, 2211, 1063, -2094
0.310571, 942, 504, 2903, 2211, 1063, -2094
0.310705, 54, 81, 875, 1946, 295, -2616
0.310840, 54, 81, 875, 1946, 295, -2616
0.310975, 54, 81, 875, 1946, 295, -2616
0.311109, 54, 81, 875, 1946, 295, -2616
0.311244, 54, 81, 875, 1946, 295, -2616
0.311379, 54, 81, 875, 1946, 295, -2616
0.311513, 54, 81, 875, 1946, 295, -2616
0.311648, -609, 166, 1314, 857, -468, -2561
0.311783, -609, 166, 1314, 857, -468, -2561
0.311917, -609, 166, 1314, 857, -468, -2561
0.312052, -609, 166, 1314, 857, -468, -2561
0.312187, -609, 166, 1314, 857, -468, -2561
0.312321, -609, 166, 1314, 857, -468, -2561
0.312456, -609, 166, 1314, 857, -468, -2561
0.312591, -609, 166, 1314, 857, -468, -2561
0.312725, -642, 358, 2642, 566, -736, -2272
0.312860, -642, 358, 2642, 566, -736, -2272
0.312995, -642, 358, 2642, 566, -736, -2272
0.313129, -642, 358, 2642, 566, -736, -2272
0.313264, -642, 358, 2642, 566, -736, -2272
0.313399, -642, 358, 2642, 566, -736, -2272
0.313533, -642, 358, 2642, 566, -736, -2272
0.313668, -88, 249, 2349, 1016, -467, -2043
0.313803, -88, 249, 2349, 1016, -467, -2043
0.313937, -88, 249, 2349, 1016, -467, -2043
0.314072, -88, 249, 2349, 1016, -467, -2043
0.314207, -88, 249, 2349, 1016, -467, -2043
0.314342, -88, 249, 2349, 1016, -467, -2043
0.314476, -88, 249, 2349, 1016, -467, -2043
0.314611, -88, 249, 2349, 1016, -467, -2043
0.314757, 1856, 219, 1433, 1005, -190, -2370
0.314892, 1856, 219, 1433, 1005, -190, -2370
0.315027, 1856, 219, 1433, 1005, -190, -2370
0.315162, 1856, 219, 1433, 1005, -190, -2370
0.315296, 1856, 219, 1433, 1005, -190, -2370
0.315431, 1856, 219, 1433, 1005, -190, -2370
0.315566, 1856, 219, 1433, 1005, -190, -2370
0.315700, 2399, 275, 1296, 294, 23, -3727
0.315835, 2399, 275, 1296, 294, 23, -3727
0.315970, 2399, 275, 1296, 294, 23, -3727
0.316104, 2399, 275, 1296, 294, 23, -3727
0.316239, 2399, 275, 1296, 294, 23, -3727
0.316373, 2399, 275, 1296, 294, 23, -3727
0.316508, 2399, 275, 1296, 294, 23, -3727
0.316642, 2399, 275, 1296, 294, 23, -3727
0.316777, 827, 457, 2116, -182, 360, -4985
0.316912, 827, 457, 2116, -182, 360, -4985
0.317047, 827, 457, 2116, -182, 360, -4985
0.317181, 827, 457, 2116, -182, 360, -4985
0.317316, 827, 457, 2116, -182, 360, -4985
0.317450, 827, 457, 2116, -182, 360, -4985
0.317585, 827, 457, 2116, -182, 360, -4985
0.317720, -1666, 333, 3064, 404, 889, -5050
0.317855, -1666, 333, 3064, 404, 889, -5050
0.317989, -1666, 333, 3064, 404, 889, -5050
0.318125, -1666, 333, 3064, 404, 889, -5050
0.318259, -1666, 333, 3064, 404, 889, -5050
0.318395, -1666, 333, 3064, 404, 889, -5050
0.318529, -1666, 333, 3064, 404, 889, -5050
0.318663, -1666, 333, 3064, 404, 889, -5050
0.318797, -5300, -230, 2517, 1497, 1482, -3203
0.318931, -5300, -230, 2517, 1497, 1482, -3203
0.319065, -5300, -230, 2517, 1497, 1482, -3203
0.319199, -5300, -230, 2517, 1497, 1482, -3203
0.319333, -5300, -230, 2517, 1497, 1482, -3203
0.319467, -5300, -230, 2517, 1497, 1482, -3203
0.319601, -5300, -230, 2517, 1497, 1482, -3203
0.319735, -6372, -355, 1251, 1801, 1348, 704
0.319869, -6372, -355, 1251, 1801, 1348, 704
0.320003, -6372, -355, 1251, 1801, 1348, 704
0.320137, -6372, -355, 1251, 1801, 1348, 704
0.320271, -6372, -355, 1251, 1801, 1348, 704
0.320405, -6372, -355, 1251, 1801, 1348, 704
0.320539, -6372, -355, 1251, 1801, 1348, 704
0.320673, -6372, -355, 1251, 1801, 1348, 704
0.320807, -3480, -70, 1229, 1063, 253, 4380
0.320941, -3480, -70, 1229, 1063, 253, 4380
0.321075, -3480, -70, 1229, 1063, 253, 4380
0.321209, -3480, -70, 1229, 1063, 253, 4380
0.321343, -3480, -70, 1229, 1063, 253, 4380
0.321477, -3480, -70, 1229, 1063, 253, 4380
0.321611, -3480, -70, 1229, 1063, 253, 4380
0.321745, -3480, -70, 1229, 1063, 253, 4380
0.321879, -492, 106, 2174, 8, -1008, 5853
0.322013, -492, 106, 2174, 8, -1008, 5853
0.322147, -492, 106, 2174, 8, -1008, 5853
0.322281, -492, 106, 2174, 8, -1008, 5853
0.322416, -492, 106, 2174, 8, -1008, 5853
0.322551, -492, 106, 2174, 8, -1008, 5853
0.322685, -492, 106, 2174, 8, -1008, 5853
0.322820, 889, 156, 2945, -636, -1912, 5620
0.322955, 889, 156, 2945, -636, -1912, 5620
0.323089, 889, 156, 2945, -636, -1912, 5620
0.323224, 889, 156, 2945, -636, -1912, 5620
0.323358, 889, 156, 2945, -636, -1912, 5620
0.323493, 889, 156, 2945, -636, -1912, 5620
0.323627, 889, 156, 2945, -636, -1912, 5620
0.323762, 889, 156, 2945, -636, -1912, 5620
0.323896, 1089, 79, 3113, -720, -2333, 4758
0.324031, 1089, 79, 3113, -720, -2333, 4758
0.324166, 1089, 79, 3113, -720, -2333, 4758
0.324300, 1089, 79, 3113, -720, -2333, 4758
0.324435, 1089, 79, 3113, -720, -2333, 4758
0.324569, 1089, 79, 3113, -720, -2333, 4758
0.324704, 1089, 79, 3113, -720, -2333, 4758
0.324838, 645, -157, 2500, -570, -2424, 3933
0.324973, 645, -157, 2500, -570, -2424, 3933
0.325107, 645, -157, 2500, -570, -2424, 3933
0.325242, 645, -157, 2500, -570, -2424, 3933
0.325377, 645, -157, 2500, -570, -2424, 3933
0.325511, 645, -157, 2500, -570, -2424, 3933
0.325645, 645, -157, 2500, -570, -2424, 3933
0.325780, 645, -157, 2500, -570, -2424, 3933
0.325914, 649, -282, 1669, -566, -2555, 3348
0.326049, 649, -282, 1669, -566, -2555, 3348
0.326184, 649, -282, 1669, -566, -2555, 3348
0.326319, 649, -282, 1669, -566, -2555, 3348
0.326453, 649, -282, 1669, -566, -2555, 3348
0.326588, 649, -282, 1669, -566, -2555, 3348
0.326722, 649, -282, 1669, -566, -2555, 3348
0.326857, 1934, -59, 1809, -654, -2627, 2544
0.326991, 1934, -59, 1809, -654, -2627, 2544
0.327126, 1934, -59, 1809, -654, -2627, 2544
0.327265, 1934, -59, 1809, -654, -2627, 2544
0.327400, 1934, -59, 1809, -654, -2627, 2544
0.327534, 1934, -59, 1809, -654, -2627, 2544
0.327669, 1934, -59, 1809, -654, -2627, 2544
0.327803, 1934, -59, 1809, -654, -2627, 2544
0.327938, 3460, 86, 2334, -463, -2175, 871
0.328072, 3460, 86, 2334, -463, -2175, 871
0.328207, 3460, 86, 2334, -463, -2175, 871
0.328341, 3460, 86, 2334, -463, -2175, 871
0.328476, 3460, 86, 2334, -463, -2175, 871
0.328610, 3460, 86, 2334, -463, -2175, 871
0.328745, 3460, 86, 2334, -463, -2175, 871
0.328879, 3301, -42, 2008, -88, -1131, -1368
0.329014, 3301, -42, 2008, -88, -1131, -1368
0.329148, 3301, -42, 2008, -88, -1131, -1368
0.329283, 3301, -42, 2008, -88, -1131, -1368
0.329418, 3301, -42, 2008, -88, -1131, -1368
0.329552, 3301, -42, 2008, -88, -1131, -1368
0.329687, 3301, -42, 2008, -88, -1131, -1368
0.329822, 3301, -42, 2008, -88, -1131, -1368
0.329956, 1936, -101, 1022, -50, 95, -3058
0.330091, 1936, -101, 1022, -50, 95, -3058
0.330226, 1936, -101, 1022, -50, 95, -3058
0.330361, 1936, -101, 1022, -50, 95, -3058
0.330495, 1936, -101, 1022, -50, 95, -3058
0.330630, 1936, -101, 1022, -50, 95, -3058
0.330765, 1936, -101, 1022, -50, 95, -3058
0.330899, 1783, -83, 1037, -357, 1110, -4021
0.331034, 1783, -83, 1037, -357, 1110, -4021
0.331169, 1783, -83, 1037, -357, 1110, -4021
0.331303, 1783, -83, 1037, -357, 1110, -4021
0.331438, 1783, -83, 1037, -357, 1110, -4021
0.331573, 1783, -83, 1037, -357, 1110, -4021
0.331707, 1783, -83, 1037, -357, 1110, -4021
0.331842, 1783, -83, 1037, -357, 1110, -4021
0.331976, 1978, -19, 2349, -95, 1935, -5080
0.332111, 1978, -19, 2349, -95, 1935, -5080
0.332246, 1978, -19, 2349, -95, 1935, -5080
0.332380, 1978, -19, 2349, -95, 1935, -5080
0.332515, 1978, -19, 2349, -95, 1935, -5080
0.332650, 1978, -19, 2349, -95, 1935, -5080
0.332784, 1978, -19, 2349, -95, 1935, -5080
0.332919, -627, 214, 2331, 824, 2738, -5740
0.333054, -627, 214, 2331, 824, 2738, -5740
0.333189, -627, 214, 2331, 824, 2738, -5740
0.333323, -627, 214, 2331, 824, 2738, -5740
0.333458, -627, 214, 2331, 824, 2738, -5740
0.333592, -627, 214, 2331, 824, 2738, -5740
0.333727, -627, 214, 2331, 824, 2738, -5740
0.333862, -627, 214, 2331, 824, 2738, -5740
0.333996, -3192, 304, 1398, 1313, 3162, -4497
0.334131, -3192, 304, 1398, 1313, 3162, -4497
0.334261, -3192, 304, 1398, 1313, 3162, -4497
0.334396, -3192, 304, 1398, 1313, 3162, -4497
0.334530, -3192, 304, 1398, 1313, 3162, -4497
0.334665, -3192, 304, 1398, 1313, 3162, -4497
0.334800, -3192, 304, 1398, 1313, 3162, -4497
0.334934, -2813, 255, 1826, 1348, 2919, -2170
0.335069, -2813, 255, 1826, 1348, 2919, -2170
0.335204, -2813, 255, 1826, 1348, 2919, -2170
0.335338, -2813, 255, 1826, 1348, 2919, -2170
0.335473, -2813, 255, 1826, 1348, 2919, -2170
0.335607, -2813, 255, 1826, 1348, 2919, -2170
0.335742, -2813, 255, 1826, 1348, 2919, -2170
0.335876, -2813, 255, 1826, 1348, 2919, -2170
0.336011, -1898, 292, 2049, 1265, 2273, -385
0.336146, -1898, 292, 2049, 1265, 2273, -385
0.336280, -1898, 292, 2049, 1265, 2273, -385
0.336415, -1898, 292, 2049, 1265, 2273, -385
0.336549, -1898, 292, 2049, 1265, 2273, -385
0.336684, -1898, 292, 2049, 1265, 2273, -385
0.336819, -1898, 292, 2049, 1265, 2273, -385
0.336953, -816, 32, 1493, 684, 1237, 559
0.337088, -816, 32, 1493, 684, 1237, 559
0.337223, -816, 32, 1493, 684, 1237, 559
0.337357, -816, 32, 1493, 684, 1237, 559
0.337492, -816, 32, 1493, 684, 1237, 559
0.337626, -816, 32, 1493, 684, 1237, 559
0.337761, -816, 32, 1493, 684, 1237, 559
0.337896, -816, 32, 1493, 684, 1237, 559
0.338030, -3132, -139, 1752, -104, 77, 1207
0.338165, -3132, -139, 1752, -104, 77, 1207
0.338300, -3132, -139, 1752, -104, 77, 1207
0.338435, -3132, -139, 1752, -104, 77, 1207
0.338569, -3132, -139, 1752, -104, 77, 1207
0.338704, -3132, -139, 1752, -104, 77, 1207
0.338838, -3132, -139, 1752, -104, 77, 1207
0.338973, -3132, -139, 1752, -104, 77, 1207
0.339108, -6346, 261, 2242, -492, -817, 3758
0.339242, -6346, 261, 2242, -492, -817, 3758
0.339377, -6346, 261, 2242, -492, -817, 3758
0.339512, -6346, 261, 2242, -492, -817, 3758
0.339651, -6346, 261, 2242, -492, -817, 3758
0.339786, -6346, 261, 2242, -492, -817, 3758
0.339921, -6346, 261, 2242, -492, -817, 3758
0.340055, -2624, 327, 2212, -737, -1816, 7008
0.340190, -2624, 327, 2212, -737, -1816, 7008
0.340325, -2624, 327, 2212, -737, -1816, 7008
0.340460, -2624, 327, 2212, -737, -1816, 7008
0.340594, -2624, 327, 2212, -737, -1816, 7008
0.340729, -2624, 327, 2212, -737, -1816, 7008
0.340864, -2624, 327, 2212, -737, -1816, 7008
0.340998, -2624, 327, 2212, -737, -1816, 7008
0.341133, 923, 20, 2206, -1232, -2807, 7488
0.341268, 923, 20, 2206, -1232, -2807, 7488
0.341403, 923, 20, 2206, -1232, -2807, 7488
0.341537, 923, 20, 2206, -1232, -2807, 7488
0.341672, 923, 20, 2206, -1232, -2807, 7488
0.341807, 923, 20, 2206, -1232, -2807, 7488
0.341941, 923, 20, 2206, -1232, -2807, 7488
0.342076, 78, 28, 2301, -1893, -3339, 6760
0.342211, 78, 28, 2301, -1893, -3339, 6760
0.342346, 78, 28, 2301, -1893, -3339, 6760
0.342481, 78, 28, 2301, -1893, -3339, 6760
0.342615, 78, 28, 2301, -1893, -3339, 6760
0.342750, 78, 28, 2301, -1893, -3339, 6760
0.342885, 78, 28, 2301, -1893, -3339, 6760
0.343019, 78, 28, 2301, -1893, -3339, 6760
0.343154, -213, 132, 2263, -2429, -3495, 6714
0.343289, -213, 132, 2263, -2429, -3495, 6714
0.343424, -213, 132, 2263, -2429, -3495, 6714
0.343558, -213, 132, 2263, -2429, -3495, 6714
0.343693, -213, 132, 2263, -2429, -3495, 6714
0.343828, -213, 132, 2263, -2429, -3495, 6714
0.343962, -213, 132, 2263, -2429, -3495, 6714
0.344097, 186, 106, 2167, -2631, -3276, 6566
0.344232, 186, 106, 2167, -2631, -3276, 6566
0.344367, 186, 106, 2167, -2631, -3276, 6566
0.344501, 186, 106, 2167, -2631, -3276, 6566
0.344636, 186, 106, 2167, -2631, -3276, 6566
0.344771, 186, 106, 2167, -2631, -3276, 6566
0.344905, 186, 106, 2167, -2631, -3276, 6566
0.345040, 186, 106, 2167, -2631, -3276, 6566
0.345175, 359, 40, 2129, -2586, -2739, 6185
0.345310, 359, 40, 2129, -2586, -2739, 6185
0.345444, 359, 40, 2129, -2586, -2739, 6185
0.345579, 359, 40, 2129, -2586, -2739, 6185
0.345713, 359, 40, 2129, -2586, -2739, 6185
0.345848, 359, 40, 2129, -2586, -2739, 6185
0.345983, 359, 40, 2129, -2586, -2739, 6185
0.346118, 725, -30, 2150, -2472, -2129, 5832
0.346253, 725, -30, 2150, -2472, -2129, 5832
0.346388, 725, -30, 2150, -2472, -2129, 5832
0.346522, 725, -30, 2150, -2472, -2129, 5832
0.346657, 725, -30, 2150, -2472, -2129, 5832
0.346792, 725, -30, 2150, -2472, -2129, 5832
0.346926, 725, -30, 2150, -2472, -2129, 5832
0.347061, 725, -30, 2150, -2472, -2129, 5832
0.347195, 1226, -110, 2160, -2333, -1516, 5294
0.347330, 1226, -110, 2160, -2333, -1516, 5294
0.347465, 1226, -110, 2160, -2333, -1516, 5294
0.347600, 1226, -110, 2160, -2333, -1516, 5294
0.347734, 1226, -110, 2160, -2333, -1516, 5294
0.347869, 1226, -110, 2160, -2333, -1516, 5294
0.348004, 1226, -110, 2160, -2333, -1516, 5294
0.348138, 1387, -156, 2102, -2158, -900, 4480
0.348273, 1387, -156, 2102, -2158, -900, 4480
0.348408, 1387, -156, 2102, -2158, -900, 4480
0.348542, 1387, -156, 2102, -2158, -900, 4480
0.348677, 1387, -156, 2102, -2158, -900, 4480
0.348812, 1387, -156, 2102, -2158, -900, 4480
0.348946, 1387, -156, 2102, -2158, -900, 4480
0.349081, 1387, -156, 2102, -2158, -900, 4480
0.349216, 2027, -193, 2110, -1942, -362, 3521
0.349351, 2027, -193, 2110, -1942, -362, 3521
0.349485, 2027, -193, 2110, -1942, -362, 3521
0.349620, 2027, -193, 2110, -1942, -362, 3521
0.349755, 2027, -193, 2110, -1942, -362, 3521
0.349889, 2027, -193, 2110, -1942, -362, 3521
0.350024, 2027, -193, 2110, -1942, -362, 3521
0.350158, 3608, -334, 2191, -1647, 65, 1921
0.350293, 3608, -334, 2191, -1647, 65, 1921
0.350434, 3608, -334, 2191, -1647, 65, 1921
0.350569, 3608, -334, 2191, -1647, 65, 1921
0.350703, 3608, -334, 2191, -1647, 65, 1921
0.350838, 3608, -334, 2191, -1647, 65, 1921
0.350973, 3608, -334, 2191, -1647, 65, 1921
0.351107, 3608, -334, 2191, -1647, 65, 1921
0.351242, 3054, -434, 1837, -1361, 488, -412
0.351377, 3054, -434, 1837, -1361, 488, -412
0.351512, 3054, -434, 1837, -1361, 488, -412
0.351646, 3054, -434, 1837, -1361, 488, -412
0.351781, 3054, -434, 1837, -1361, 488, -412
0.351920, 3054, -434, 1837, -1361, 488, -412
0.352055, 3054, -434, 1837, -1361, 488, -412
0.352189, 694, -178, 1008, -1353, 859, -1895
0.352324, 694, -178, 1008, -1353, 859, -1895
0.352459, 694, -178, 1008, -1353, 859, -1895
0.352593, 694, -178, 1008, -1353, 859, -1895
0.352728, 694, -178, 1008, -1353, 859, -1895
0.352863, 694, -178, 1008, -1353, 859, -1895
0.352998, 694, -178, 1008, -1353, 859, -1895
0.353132, 694, -178, 1008, -1353, 859, -1895
0.353267, 1011, 172, 1218, -1572, 1001, -2276
0.353402, 1011, 172, 1218, -1572, 1001, -2276
0.353536, 1011, 172, 1218, -1572, 1001, -2276
0.353671, 1011, 172, 1218, -1572, 1001, -2276
0.353806, 1011, 172, 1218, -1572, 1001, -2276
0.353940, 1011, 172, 1218, -1572, 1001, -2276
0.354075, 1011, 172, 1218, -1572, 1001, -2276
0.354210, 2344, 265, 2660, -1283, 1168, -3267
0.354345, 2344, 265, 2660, -1283, 1168, -3267
0.354480, 2344, 265, 2660, -1283, 1168, -3267
0.354615, 2344, 265, 2660, -1283, 1168, -3267
0.354749, 2344, 265, 2660, -1283, 1168, -3267
0.354884, 2344, 265, 2660, -1283, 1168, -3267
0.355018, 2344, 265, 2660, -1283, 1168, -3267
0.355153, 2344, 265, 2660, -1283, 1168, -3267
0.355288, 1141, 337, 3228, -198, 1625, -4568
0.355423, 1141, 337, 3228, -198, 1625, -4568
0.355557, 1141, 337, 3228, -198, 1625, -4568
0.355692, 1141, 337, 3228, -198, 1625, -4568
0.355827, 1141, 337, 3228, -198, 1625, -4568
0.355961, 1141, 337, 3228, -198, 1625, -4568
0.356096, 1141, 337, 3228, -198, 1625, -4568
0.356230, -843, 354, 2627, 925, 2045, -4636
0.356365, -843, 354, 2627, 925, 2045, -4636
0.356500, -843, 354, 2627, 925, 2045, -4636
0.356635, -843, 354, 2627, 925, 2045, -4636
0.356769, -843, 354, 2627, 925, 2045, -4636
0.356904, -843, 354, 2627, 925, 2045, -4636
0.357038, -843, 354, 2627, 925, 2045, -4636
0.357173, -843, 354, 2627, 925, 2045, -4636
0.357308, -1101, 246, 2163, 1557, 2124, -3707
0.357443, -1101, 246, 2163, 1557, 2124, -3707
0.357577, -1101, 246, 2163, 1557, 2124, -3707
0.357712, -1101, 246, 2163, 1557, 2124, -3707
0.357847, -1101, 246, 2163, 1557, 2124, -3707
0.357981, -1101, 246, 2163, 1557, 2124, -3707
0.358116, -1101, 246, 2163, 1557, 2124, -3707
0.358251, 155, 370, 2400, 1894, 1882, -3096
0.358386, 155, 370, 2400, 1894, 1882, -3096
0.358520, 155, 370, 2400, 1894, 1882, -3096
0.358655, 155, 370, 2400, 1894, 1882, -3096
0.358790, 155, 370, 2400, 1894, 1882, -3096
0.358924, 155, 370, 2400, 1894, 1882, -3096
0.359059, 155, 370, 2400, 1894, 1882, -3096
0.359193, 155, 370, 2400, 1894, 1882, -3096
0.359328, 237, 435, 2527, 2136, 1537, -3270
0.359463, 237, 435, 2527, 2136, 1537, -3270
0.359598, 237, 435, 2527, 2136, 1537, -3270
0.359732, 237, 435, 2527, 2136, 1537, -3270
0.359867, 237, 435, 2527, 2136, 1537, -3270
0.360001, 237, 435, 2527, 2136, 1537, -3270
0.360136, 237, 435, 2527, 2136, 1537, -3270
0.360271, -2079, 195, 1838, 2030, 1334, -2963
0.360405, -2079, 195, 1838, 2030, 1334, -2963
0.360540, -2079, 195, 1838, 2030, 1334, -2963
0.360675, -2079, 195, 1838, 2030, 1334, -2963
0.360809, -2079, 195, 1838, 2030, 1334, -2963
0.360944, -2079, 195, 1838, 2030, 1334, -2963
0.361079, -2079, 195, 1838, 2030, 1334, -2963
0.361213, -2079, 195, 1838, 2030, 1334, -2963
0.361348, -2967, 246, 1697, 1591, 1092, -1292
0.361483, -2967, 246, 1697, 1591, 1092, -1292
0.361617, -2967, 246, 1697, 1591, 1092, -1292
0.361752, -2967, 246, 1697, 1591, 1092, -1292
0.361886, -2967, 246, 1697, 1591, 1092, -1292
0.362021, -2967, 246, 1697, 1591, 1092, -1292
0.362156, -2967, 246, 1697, 1591, 1092, -1292
0.362290, -2967, 246, 1697, 1591, 1092, -1292
0.362425, -1320, 493, 2543, 1368, 709, 267
0.362560, -1320, 493, 2543, 1368, 709, 267
0.362694, -1320, 493, 2543, 1368, 709, 267
0.362829, -1320, 493, 2543, 1368, 709, 267
0.362964, -1320, 493, 2543, 1368, 709, 267
0.363098, -1320, 493, 2543, 1368, 709, 267
0.363233, -1320, 493, 2543, 1368, 709, 267
0.363368, -593, 427, 2782, 1478, 354, 752
0.363503, -593, 427, 2782, 1478, 354, 752
0.363637, -593, 427, 2782, 1478, 354, 752
0.363772, -593, 427, 2782, 1478, 354, 752
0.363906, -593, 427, 2782, 1478, 354, 752
0.364041, -593, 427, 2782, 1478, 354, 752
0.364176, -593, 427, 2782, 1478, 354, 752
0.364317, -593, 427, 2782, 1478, 354, 752
0.364452, -810, 191, 2244, 1412, -74, 1023
0.364587, -810, 191, 2244, 1412, -74, 1023
0.364722, -810, 191, 2244, 1412, -74, 1023
0.364856, -810, 191, 2244, 1412, -74, 1023
0.364991, -810, 191, 2244, 1412, -74, 1023
0.365125, -810, 191, 2244, 1412, -74, 1023
0.365260, -810, 191, 2244, 1412, -74, 1023
0.365395, -148, 112, 2133, 1047, -517, 1326
0.365530, -148, 112, 2133, 1047, -517, 1326
0.365664, -148, 112, 2133, 1047, -517, 1326
0.365799, -148, 112, 2133, 1047, -517, 1326
0.365933, -148, 112, 2133, 1047, -517, 1326
0.366068, -148, 112, 2133, 1047, -517, 1326
0.366203, -148, 112, 2133, 1047, -517, 1326
0.366338, -148, 112, 2133, 1047, -517, 1326
0.366473, 1289, 255, 2549, 872, -717, 996
0.366608, 1289, 255, 2549, 872, -717, 996
0.366742, 1289, 255, 2549, 872, -717, 996
0.366877, 1289, 255, 2549, 872, -717, 996
0.367012, 1289, 255, 2549, 872, -717, 996
0.367146, 1289, 255, 2549, 872, -717, 996
0.367281, 1289, 255, 2549, 872, -717, 996
0.367415, 1913, 428, 2540, 1011, -602, -207
0.367550, 1913, 428, 2540, 1011, -602, -207
0.367685, 1913, 428, 2540, 1011, -602, -207
0.367819, 1913, 428, 2540, 1011, -602, -207
