Time, ax, ay, az, gx, gy, gz
0.000037, -1041, 48, -1746, 1, -8, -15
0.000959, -1046, 47, -1739, -1, -6, -14
0.001975, -1048, 47, -1735, -2, -3, -15
0.002986, -1048, 51, -1735, -2, -1, -15
0.003999, -1048, 52, -1733, -4, 1, -14
0.005012, -1049, 49, -1730, -5, 4, -13
0.006028, -1050, 49, -1729, -6, 5, -13
0.007042, -1052, 48, -1728, -7, 6, -13
0.008053, -1055, 46, -1726, -7, 7, -12
0.009066, -1058, 45, -1724, -5, 8, -11
0.010079, -1059, 42, -1722, -3, 9, -10
0.011093, -1057, 39, -1724, -2, 9, -9
0.012106, -1055, 41, -1730, 0, 9, -9
0.013120, -1057, 41, -1735, 3, 8, -9
0.014133, -1062, 39, -1739, 5, 6, -7
0.015148, -1064, 41, -1746, 7, 5, -7
0.016161, -1062, 45, -1755, 7, 5, -7
0.017174, -1061, 46, -1761, 6, 4, -6
0.018187, -1061, 44, -1763, 6, 4, -3
0.019201, -1060, 41, -1763, 6, 3, -3
0.020214, -1059, 42, -1763, 4, 2, -3
0.021227, -1056, 45, -1762, 3, 1, -1
0.022241, -1053, 45, -1759, 1, 1, -1
0.023254, -1052, 43, -1751, 0, 1, -1
0.024268, -1052, 44, -1745, 0, 2, 0
0.025281, -1052, 45, -1742, -1, 3, 0
0.026295, -1047, 43, -1741, -1, 4, 0
0.027308, -1045, 41, -1738, -2, 5, 1
0.028322, -1047, 41, -1734, -3, 6, 1
0.029335, -1047, 40, -1730, -5, 8, 1
0.030349, -1047, 39, -1725, -6, 8, 1
0.031362, -1051, 40, -1724, -6, 9, 1
0.032376, -1054, 43, -1726, -7, 10, 0
0.033389, -1055, 44, -1726, -8, 11, 1
0.034402, -1059, 41, -1727, -7, 11, 3
0.035416, -1063, 38, -1727, -6, 11, 3
0.036429, -1066, 35, -1728, -6, 11, 5
0.037444, -1068, 34, -1734, -5, 11, 6
0.038456, -1070, 35, -1741, -6, 11, 8
0.039470, -1073, 35, -1746, -6, 9, 10
0.040483, -1074, 34, -1750, -5, 9, 13
0.041497, -1073, 35, -1755, -6, 9, 14
0.042510, -1070, 37, -1761, -7, 9, 16
0.043523, -1069, 40, -1769, -7, 9, 17
0.044537, -1067, 42, -1776, -6, 7, 18
0.045550, -1061, 41, -1781, -7, 5, 20
0.046564, -1055, 39, -1783, -9, 4, 21
0.047577, -1052, 38, -1781, -11, 3, 21
0.048591, -1049, 38, -1777, -13, 4, 22
0.049604, -1046, 40, -1776, -15, 7, 22
0.050618, -1046, 40, -1778, -17, 7, 22
0.051631, -1051, 39, -1781, -20, 6, 22
0.052645, -1053, 40, -1778, -22, 5, 23
0.053658, -1049, 42, -1770, -25, 6, 23
0.054671, -1046, 43, -1765, -28, 7, 24
0.055685, -1047, 42, -1760, -30, 8, 25
0.056698, -1049, 40, -1752, -31, 9, 26
0.057712, -1053, 41, -1746, -32, 10, 25
0.058725, -1057, 43, -1741, -33, 11, 25
0.059739, -1058, 41, -1740, -31, 13, 26
0.060752, -1058, 40, -1744, -30, 13, 27
0.061765, -1058, 44, -1750, -30, 13, 30
0.062779, -1059, 45, -1757, -31, 14, 31
0.063792, -1061, 45, -1760, -32, 15, 33
0.064806, -1061, 44, -1760, -32, 16, 34
0.065819, -1062, 45, -1765, -32, 17, 35
0.066833, -1061, 46, -1771, -33, 17, 36
0.067846, -1057, 48, -1774, -34, 17, 39
0.068860, -1054, 46, -1775, -35, 17, 40
0.069873, -1053, 44, -1777, -36, 17, 41
0.070886, -1050, 45, -1776, -37, 15, 41
0.071900, -1044, 50, -1776, -38, 13, 41
0.072914, -1039, 52, -1775, -39, 14, 40
0.073927, -1037, 54, -1771, -39, 13, 41
0.074940, -1033, 58, -1766, -40, 12, 41
0.075957, -1025, 62, -1760, -42, 12, 40
0.076969, -1021, 65, -1752, -43, 13, 40
0.077981, -1017, 66, -1746, -43, 13, 40
0.078994, -1013, 66, -1740, -42, 14, 39
0.080009, -1013, 68, -1733, -40, 15, 36
0.081021, -1011, 71, -1727, -40, 16, 34
0.082039, -1007, 75, -1728, -40, 17, 34
0.083054, -1007, 75, -1733, -39, 17, 32
0.084061, -1011, 75, -1733, -38, 19, 29
0.085075, -1013, 77, -1729, -38, 21, 27
0.086088, -1014, 77, -1730, -38, 21, 26
0.087101, -1014, 77, -1731, -38, 21, 24
0.088115, -1017, 79, -1729, -36, 21, 23
0.089128, -1022, 82, -1728, -35, 20, 21
0.090142, -1021, 85, -1730, -35, 18, 21
0.091156, -1020, 86, -1732, -34, 15, 20
0.092169, -1020, 85, -1734, -33, 13, 18
0.093182, -1018, 89, -1736, -31, 11, 16
0.094196, -1016, 90, -1736, -30, 9, 15
0.095209, -1016, 87, -1733, -29, 7, 13
0.096223, -1015, 85, -1730, -28, 5, 10
0.097236, -1013, 86, -1730, -25, 2, 8
0.098250, -1012, 88, -1729, -23, 1, 7
0.099263, -1009, 88, -1728, -22, 0, 6
0.100276, -1007, 85, -1728, -21, -2, 4
0.101290, -1006, 82, -1726, -18, -4, 1
0.102304, -1007, 83, -1722, -16, -3, -2
0.103316, -1008, 86, -1722, -16, -3, -5
0.104330, -1009, 87, -1724, -14, -4, -7
0.105344, -1012, 86, -1725, -13, -4, -10
0.106358, -1016, 83, -1725, -12, -4, -11
0.107371, -1021, 81, -1724, -12, -4, -12
0.108384, -1026, 80, -1722, -11, -3, -14
0.109397, -1025, 80, -1721, -10, -2, -15
0.110411, -1025, 80, -1724, -8, -2, -17
0.111424, -1030, 82, -1727, -7, -1, -17
0.112438, -1034, 81, -1730, -7, -1, -18
0.113451, -1034, 79, -1732, -7, -1, -20
0.114465, -1036, 76, -1733, -7, -2, -22
0.115478, -1037, 76, -1734, -7, -3, -22
0.116492, -1037, 76, -1736, -6, -4, -22
0.117505, -1037, 75, -1738, -5, -4, -23
0.118518, -1036, 75, -1738, -4, -5, -24
0.119533, -1032, 71, -1738, -2, -6, -25
0.120546, -1029, 69, -1741, -1, -7, -27
0.121559, -1029, 70, -1745, -2, -8, -28
0.122572, -1029, 70, -1749, -2, -9, -29
0.123586, -1030, 69, -1751, -1, -10, -32
0.124601, -1032, 68, -1754, -2, -12, -35
0.125613, -1037, 67, -1757, -3, -12, -36
0.126626, -1042, 67, -1756, -4, -13, -38
0.127640, -1042, 66, -1750, -5, -14, -41
0.128653, -1043, 64, -1744, -6, -14, -42
0.129666, -1048, 61, -1740, -6, -14, -43
0.130680, -1052, 58, -1738, -7, -14, -43
0.131693, -1056, 56, -1735, -7, -15, -43
0.132707, -1061, 55, -1733, -7, -16, -42
0.133724, -1063, 54, -1728, -5, -17, -41
0.134734, -1065, 53, -1726, -5, -17, -40
0.135747, -1068, 50, -1730, -6, -16, -40
0.136761, -1072, 46, -1732, -6, -15, -39
0.137774, -1073, 43, -1728, -6, -16, -37
0.138787, -1072, 43, -1725, -5, -16, -35
0.139801, -1072, 42, -1726, -6, -15, -36
0.140814, -1074, 41, -1733, -6, -16, -35
0.141828, -1075, 40, -1735, -5, -15, -34
0.142841, -1074, 40, -1736, -5, -15, -32
0.143855, -1071, 38, -1739, -6, -15, -31
0.144868, -1070, 36, -1742, -7, -15, -30
0.145881, -1071, 36, -1746, -8, -14, -29
0.146895, -1072, 36, -1748, -9, -14, -27
0.147909, -1071, 35, -1746, -10, -14, -26
0.148922, -1070, 33, -1747, -11, -14, -25
0.149935, -1072, 32, -1754, -12, -13, -24
0.150949, -1074, 34, -1759, -14, -12, -23
0.151963, -1077, 37, -1758, -14, -13, -24
0.152976, -1078, 40, -1755, -16, -13, -23
0.153989, -1075, 40, -1753, -18, -13, -20
0.155003, -1070, 39, -1750, -19, -13, -18
0.156017, -1067, 41, -1746, -20, -13, -17
0.157030, -1069, 42, -1744, -21, -13, -16
0.158043, -1070, 41, -1742, -22, -13, -13
0.159057, -1067, 39, -1740, -22, -12, -11
0.160070, -1066, 39, -1737, -23, -12, -10
0.161083, -1064, 39, -1734, -23, -11, -9
0.162097, -1063, 38, -1736, -23, -10, -8
0.163110, -1061, 39, -1737, -24, -10, -7
0.164124, -1059, 44, -1736, -24, -9, -6
0.165137, -1058, 47, -1737, -22, -9, -6
0.166151, -1057, 47, -1739, -21, -10, -4
0.167164, -1058, 47, -1741, -22, -11, -3
0.168177, -1061, 48, -1744, -23, -12, -2
0.169191, -1062, 51, -1746, -23, -13, 0
0.170204, -1062, 54, -1747, -23, -15, 1
0.171218, -1065, 54, -1753, -22, -17, 2
0.172231, -1067, 54, -1764, -23, -18, 3
0.173245, -1065, 56, -1774, -24, -19, 5
0.174258, -1058, 56, -1777, -26, -17, 7
0.175271, -1050, 58, -1772, -29, -15, 8
0.176285, -1041, 58, -1768, -32, -15, 9
0.177299, -1035, 54, -1764, -33, -16, 9
0.178312, -1035, 52, -1757, -34, -16, 8
0.179325, -1034, 51, -1750, -34, -16, 6
0.180339, -1031, 49, -1745, -33, -17, 5
0.181352, -1033, 47, -1740, -33, -17, 5
0.182365, -1034, 47, -1735, -33, -16, 5
0.183379, -1033, 47, -1732, -32, -17, 4
0.184393, -1038, 46, -1730, -30, -18, 4
0.185406, -1045, 49, -1730, -28, -19, 5
0.186420, -1049, 52, -1731, -27, -19, 6
0.187433, -1049, 52, -1731, -26, -18, 7
0.188446, -1048, 51, -1730, -25, -17, 9
0.189460, -1045, 56, -1732, -26, -17, 11
0.190473, -1042, 58, -1736, -27, -17, 11
0.191487, -1041, 57, -1736, -26, -17, 13
0.192500, -1038, 56, -1734, -24, -17, 15
0.193514, -1034, 57, -1733, -24, -17, 15
0.194527, -1034, 57, -1733, -23, -16, 15
0.195541, -1035, 56, -1734, -22, -16, 15
0.196554, -1032, 57, -1733, -22, -16, 15
0.197568, -1026, 61, -1731, -21, -15, 16
0.198581, -1026, 64, -1731, -20, -14, 17
0.199595, -1027, 64, -1736, -17, -14, 18
0.200608, -1026, 61, -1741, -14, -13, 18
0.201622, -1027, 60, -1742, -13, -12, 18
0.202635, -1028, 62, -1745, -12, -11, 18
0.203648, -1026, 63, -1754, -12, -12, 18
0.204662, -1024, 64, -1762, -12, -13, 18
0.205675, -1021, 70, -1765, -12, -13, 16
0.206688, -1020, 76, -1767, -13, -13, 15
0.207702, -1019, 77, -1769, -14, -12, 16
0.208716, -1016, 77, -1769, -13, -12, 16
0.209729, -1014, 78, -1770, -14, -13, 16
0.210742, -1012, 79, -1771, -16, -13, 15
0.211756, -1009, 81, -1767, -16, -13, 14
0.212769, -1008, 82, -1761, -17, -13, 13
0.213782, -1006, 80, -1759, -17, -14, 13
0.214796, -1004, 82, -1755, -15, -14, 12
0.215810, -1003, 84, -1752, -14, -14, 11
0.216823, -1003, 82, -1748, -15, -15, 9
0.217836, -1003, 80, -1744, -14, -14, 7
0.218850, -1005, 83, -1745, -13, -14, 7
0.219863, -1007, 86, -1748, -11, -14, 7
0.220877, -1008, 86, -1749, -9, -14, 6
0.221890, -1006, 85, -1748, -8, -15, 6
0.222903, -1002, 86, -1749, -6, -16, 5
0.223917, -1002, 89, -1752, -5, -16, 4
0.224931, -1005, 89, -1751, -6, -16, 3
0.225944, -1002, 90, -1749, -6, -17, 3
0.226957, -997, 92, -1749, -3, -17, 2
0.227971, -994, 91, -1750, 0, -17, 1
0.228984, -993, 89, -1749, 1, -18, 0
0.229998, -993, 90, -1749, 2, -19, -2
0.231017, -992, 94, -1750, 3, -20, -4
0.232028, -991, 96, -1750, 4, -20, -6
0.233045, -990, 96, -1749, 6, -21, -9
0.234058, -993, 95, -1750, 8, -22, -10
0.235067, -994, 96, -1753, 9, -23, -11
0.236079, -992, 99, -1755, 9, -23, -14
0.237095, -991, 102, -1756, 10, -22, -16
0.238114, -988, 102, -1758, 10, -22, -17
0.239126, -984, 102, -1757, 10, -23, -19
0.240135, -982, 103, -1758, 11, -23, -21
0.241147, -982, 102, -1761, 12, -25, -23
0.242161, -983, 99, -1760, 12, -26, -27
0.243173, -983, 98, -1758, 13, -25, -29
0.244187, -980, 101, -1758, 13, -25, -33
0.245195, -980, 103, -1760, 12, -25, -37
0.246214, -984, 102, -1759, 12, -26, -41
0.247226, -989, 99, -1758, 12, -26, -44
0.248239, -993, 98, -1759, 13, -26, -46
0.249254, -997, 95, -1756, 14, -26, -48
0.250266, -999, 90, -1753, 14, -27, -51
0.251280, -1001, 89, -1754, 13, -28, -54
0.252293, -1006, 87, -1756, 13, -29, -57
0.253306, -1014, 84, -1757, 15, -31, -59
0.254320, -1023, 82, -1756, 15, -32, -61
0.255333, -1030, 80, -1754, 15, -34, -63
0.256348, -1034, 77, -1753, 15, -36, -63
0.257360, -1037, 74, -1753, 15, -36, -63
0.258375, -1037, 73, -1753, 14, -35, -64
0.259387, -1036, 74, -1752, 13, -36, -66
0.260401, -1037, 75, -1752, 11, -38, -66
0.261414, -1039, 71, -1756, 10, -39, -67
0.262427, -1041, 66, -1758, 9, -39, -66
0.263441, -1045, 63, -1756, 8, -40, -66
0.264455, -1049, 60, -1756, 7, -41, -67
0.265468, -1050, 57, -1759, 6, -41, -68
0.266481, -1052, 51, -1757, 5, -43, -69
0.267495, -1058, 45, -1757, 4, -45, -69
0.268508, -1064, 41, -1762, 2, -45, -68
0.269522, -1067, 41, -1767, 0, -46, -67
0.270535, -1068, 40, -1766, -1, -46, -67
0.271549, -1073, 37, -1764, -4, -46, -68
0.272564, -1079, 37, -1763, -7, -47, -67
0.273576, -1080, 39, -1762, -9, -47, -66
0.274589, -1081, 38, -1760, -12, -49, -65
0.275603, -1085, 34, -1758, -13, -50, -64
0.276617, -1089, 30, -1755, -15, -51, -64
0.277630, -1091, 28, -1751, -17, -52, -63
0.278643, -1092, 31, -1749, -19, -53, -60
0.279657, -1090, 33, -1747, -21, -52, -56
0.280670, -1086, 31, -1745, -22, -52, -54
0.281684, -1083, 27, -1743, -25, -52, -54
0.282697, -1080, 26, -1744, -27, -51, -53
0.283710, -1075, 31, -1745, -28, -50, -52
0.284724, -1072, 32, -1743, -30, -48, -50
0.285737, -1070, 29, -1743, -32, -47, -50
0.286751, -1071, 28, -1741, -34, -46, -51
0.287764, -1075, 28, -1740, -36, -44, -50
0.288778, -1078, 28, -1742, -38, -42, -50
0.289791, -1080, 28, -1743, -40, -41, -50
0.290805, -1081, 29, -1746, -41, -40, -49
0.291818, -1084, 32, -1749, -42, -40, -48
0.292832, -1086, 34, -1750, -43, -40, -47
0.293845, -1090, 36, -1751, -47, -40, -46
0.294858, -1093, 41, -1752, -49, -39, -43
0.295872, -1092, 46, -1751, -51, -38, -41
0.296885, -1090, 45, -1751, -53, -38, -38
0.297899, -1090, 45, -1753, -56, -38, -37
0.298912, -1086, 47, -1751, -57, -37, -36
0.299926, -1080, 50, -1746, -59, -36, -35
0.300939, -1079, 53, -1743, -61, -35, -34
0.301953, -1077, 54, -1740, -63, -35, -34
0.302966, -1074, 52, -1736, -63, -34, -34
0.303979, -1073, 53, -1731, -64, -34, -34
0.304993, -1073, 58, -1724, -65, -33, -34
0.306006, -1072, 62, -1719, -66, -33, -34
0.307020, -1067, 63, -1717, -65, -33, -33
0.308033, -1067, 66, -1710, -65, -32, -32
0.309046, -1070, 69, -1702, -64, -30, -32
0.310061, -1068, 71, -1694, -62, -29, -33
0.311073, -1063, 73, -1688, -59, -28, -32
0.312087, -1060, 74, -1686, -56, -27, -31
0.313101, -1060, 74, -1684, -54, -25, -31
0.314114, -1062, 73, -1683, -53, -24, -30
0.315127, -1064, 72, -1683, -50, -24, -31
0.316141, -1063, 73, -1681, -45, -22, -31
0.317154, -1063, 74, -1683, -42, -20, -29
0.318168, -1064, 75, -1690, -39, -20, -29
0.319181, -1064, 76, -1698, -35, -19, -29
0.320195, -1067, 77, -1702, -34, -19, -29
0.321208, -1071, 80, -1708, -32, -18, -28
0.322221, -1074, 86, -1715, -30, -17, -27
0.323235, -1074, 89, -1720, -29, -17, -26
0.324248, -1070, 89, -1726, -28, -17, -26
0.325261, -1067, 90, -1733, -27, -17, -25
0.326275, -1066, 95, -1732, -27, -16, -24
0.327289, -1062, 99, -1731, -27, -15, -22
0.328302, -1056, 101, -1731, -27, -14, -22
0.329315, -1051, 102, -1729, -26, -14, -21
0.330329, -1045, 99, -1724, -25, -14, -22
0.331343, -1040, 100, -1718, -24, -14, -23
0.332356, -1036, 101, -1714, -22, -14, -25
0.333375, -1037, 103, -1712, -20, -15, -26
0.334384, -1038, 107, -1711, -17, -16, -28
0.335399, -1036, 108, -1707, -13, -17, -30
0.336409, -1035, 106, -1704, -11, -17, -31
0.337423, -1035, 106, -1703, -9, -18, -33
0.338437, -1034, 107, -1704, -5, -20, -35
0.339450, -1033, 106, -1707, -3, -21, -35
0.340458, -1034, 108, -1710, 0, -21, -36
0.341477, -1038, 112, -1713, 3, -22, -38
0.342490, -1042, 110, -1717, 6, -23, -40
0.343504, -1044, 107, -1722, 8, -24, -41
0.344517, -1043, 106, -1727, 9, -26, -43
0.345531, -1043, 106, -1732, 10, -28, -44
0.346544, -1044, 105, -1737, 11, -29, -44
0.347558, -1046, 105, -1744, 12, -30, -44
0.348571, -1047, 103, -1749, 13, -33, -44
0.349584, -1049, 98, -1749, 13, -34, -45
0.350598, -1046, 94, -1748, 13, -35, -45
0.351611, -1042, 90, -1748, 13, -36, -46
0.352625, -1041, 85, -1747, 13, -37, -47
0.353638, -1041, 82, -1745, 14, -37, -49
0.354651, -1039, 80, -1744, 14, -38, -50
0.355665, -1039, 78, -1746, 15, -39, -51
0.356678, -1040, 76, -1751, 16, -38, -52
0.357692, -1040, 78, -1762, 16, -38, -54
0.358705, -1043, 82, -1775, 15, -36, -55
0.359720, -1050, 82, -1782, 12, -36, -56
0.360732, -1055, 78, -1775, 10, -39, -57
0.361746, -1055, 73, -1759, 7, -42, -56
0.362759, -1053, 69, -1745, 5, -41, -55
0.363772, -1052, 63, -1738, 4, -39, -55
0.364786, -1053, 60, -1735, 5, -37, -55
0.365799, -1053, 62, -1738, 6, -35, -54
0.366813, -1051, 67, -1743, 6, -33, -56
0.367826, -1050, 70, -1747, 6, -34, -57
0.368840, -1052, 67, -1744, 6, -35, -57
0.369853, -1050, 61, -1738, 5, -34, -56
0.370867, -1046, 59, -1730, 4, -33, -56
0.371880, -1046, 62, -1725, 5, -32, -57
0.372894, -1049, 61, -1726, 6, -30, -57
0.373907, -1050, 59, -1727, 7, -27, -58
0.374921, -1050, 59, -1728, 7, -26, -58
0.375934, -1049, 59, -1728, 9, -26, -57
0.376947, -1050, 59, -1728, 10, -25, -57
0.377961, -1051, 59, -1729, 10, -23, -58
0.378974, -1048, 58, -1730, 10, -21, -57
0.379988, -1045, 58, -1731, 10, -19, -57
0.381001, -1045, 59, -1733, 9, -16, -57
0.382015, -1046, 61, -1734, 10, -15, -56
0.383028, -1047, 62, -1732, 11, -14, -57
0.384042, -1051, 60, -1728, 10, -12, -56
0.385055, -1054, 56, -1724, 9, -11, -57
0.386068, -1053, 57, -1720, 10, -10, -57
0.387082, -1052, 56, -1717, 11, -8, -56
0.388096, -1053, 52, -1717, 13, -5, -54
0.389109, -1057, 53, -1725, 14, -3, -54
0.390122, -1062, 57, -1738, 15, 0, -55
0.391136, -1067, 59, -1748, 15, 1, -54
0.392149, -1069, 58, -1751, 15, 0, -52
0.393163, -1071, 55, -1751, 13, -1, -50
0.394176, -1072, 50, -1749, 11, 1, -50
0.395190, -1073, 47, -1741, 9, 3, -50
0.396203, -1070, 48, -1734, 9, 4, -47
0.397216, -1068, 49, -1734, 10, 5, -46
0.398230, -1064, 47, -1736, 10, 4, -44
0.399243, -1062, 49, -1740, 11, 4, -43
0.400257, -1062, 56, -1748, 10, 6, -42
0.401270, -1061, 59, -1759, 9, 9, -41
0.402283, -1061, 56, -1765, 6, 9, -40
0.403297, -1064, 54, -1759, 4, 6, -39
0.404311, -1067, 54, -1746, 2, 4, -38
0.405324, -1065, 49, -1734, 2, 4, -37
0.406338, -1063, 43, -1723, 1, 5, -35
0.407351, -1061, 40, -1711, 2, 6, -35
0.408364, -1058, 40, -1705, 5, 7, -34
0.409378, -1055, 41, -1709, 6, 6, -33
0.410391, -1053, 39, -1718, 8, 6, -32
0.411405, -1056, 37, -1725, 12, 7, -31
0.412419, -1064, 36, -1735, 14, 7, -30
0.413431, -1070, 35, -1745, 13, 6, -29
0.414445, -1072, 35, -1753, 12, 6, -28
0.415459, -1073, 34, -1761, 12, 6, -25
0.416472, -1073, 31, -1767, 11, 6, -22
0.417486, -1071, 31, -1773, 9, 5, -20
0.418498, -1070, 36, -1782, 8, 7, -19
0.419512, -1071, 40, -1798, 4, 9, -16
0.420526, -1069, 44, -1812, -1, 9, -13
0.421539, -1064, 47, -1813, -5, 8, -9
0.422552, -1060, 45, -1806, -10, 7, -8
0.423566, -1056, 40, -1793, -15, 6, -6
0.424580, -1050, 37, -1779, -19, 6, -5
0.425593, -1043, 34, -1764, -21, 7, -4
0.426606, -1039, 32, -1750, -21, 8, -5
0.427620, -1035, 34, -1746, -20, 8, -5
0.428633, -1032, 37, -1742, -19, 8, -4
0.429646, -1032, 37, -1738, -19, 8, -3
0.430660, -1033, 39, -1739, -18, 7, -3
0.431673, -1031, 41, -1744, -16, 6, -3
0.432687, -1031, 41, -1748, -15, 5, -3
0.433700, -1036, 40, -1751, -15, 4, -3
0.434717, -1039, 40, -1758, -14, 3, -2
0.435729, -1039, 44, -1769, -15, 2, -2
0.436742, -1039, 45, -1777, -15, 2, -1
0.437754, -1040, 44, -1782, -15, 2, 0
0.438768, -1040, 45, -1788, -17, 2, 1
0.439781, -1038, 48, -1794, -20, 1, 2
0.440794, -1036, 51, -1798, -22, 1, 4
0.441809, -1032, 52, -1802, -26, 2, 4
0.442821, -1027, 53, -1803, -30, 2, 5
0.443835, -1024, 54, -1801, -33, 1, 6
0.444848, -1017, 57, -1794, -36, 1, 5
0.445862, -1012, 59, -1781, -38, 1, 4
0.446875, -1012, 59, -1770, -40, 1, 2
0.447889, -1010, 59, -1762, -41, 0, 0
0.448902, -1008, 58, -1753, -42, 0, -1
0.449915, -1007, 57, -1748, -42, -1, -1
0.450929, -1008, 57, -1746, -42, 0, -3
0.451943, -1013, 57, -1742, -41, 0, -6
0.452956, -1017, 56, -1739, -38, 0, -7
0.453970, -1019, 57, -1741, -38, 1, -6
0.454987, -1024, 58, -1742, -38, 1, -7
0.455997, -1030, 57, -1741, -38, 1, -7
0.457010, -1034, 58, -1742, -37, 1, -7
0.458023, -1038, 58, -1744, -38, 2, -7
0.459036, -1041, 57, -1742, -38, 1, -8
0.460050, -1042, 56, -1739, -39, 1, -8
0.461063, -1044, 58, -1738, -38, 0, -6
0.462078, -1046, 60, -1741, -37, -1, -5
0.463090, -1048, 57, -1746, -37, -2, -4
0.464104, -1050, 55, -1749, -37, -3, -4
0.465117, -1050, 58, -1751, -37, -3, -2
0.466131, -1045, 61, -1754, -37, -3, -2
0.467144, -1039, 60, -1756, -37, -3, -2
0.468158, -1035, 62, -1760, -37, -2, -1
0.469171, -1031, 65, -1764, -37, -2, -1
0.470185, -1026, 69, -1765, -37, -2, -2
0.471198, -1022, 74, -1769, -38, -3, -4
0.472211, -1016, 76, -1771, -40, -3, -5
0.473225, -1009, 76, -1770, -41, -1, -7
0.474238, -1003, 79, -1770, -41, 0, -9
0.475252, -1000, 82, -1769, -42, 0, -12
0.476265, -1000, 85, -1764, -44, 0, -15
0.477278, -1002, 89, -1762, -46, 0, -18
0.478292, -1004, 93, -1760, -47, -1, -22
0.479305, -1008, 96, -1756, -48, -2, -25
0.480319, -1014, 97, -1754, -49, -2, -28
0.481332, -1019, 98, -1753, -49, -2, -31
0.482347, -1024, 99, -1751, -49, -4, -33
0.483360, -1030, 98, -1749, -49, -7, -35
0.484373, -1034, 96, -1747, -49, -8, -37
0.485386, -1036, 96, -1745, -49, -9, -39
0.486399, -1036, 97, -1746, -49, -11, -40
0.487413, -1035, 98, -1743, -49, -13, -41
0.488426, -1035, 97, -1739, -49, -13, -42
0.489440, -1038, 93, -1740, -49, -13, -44
0.490453, -1044, 89, -1741, -50, -14, -45
0.491467, -1044, 84, -1742, -50, -16, -46
0.492480, -1042, 81, -1744, -51, -17, -48
0.493494, -1047, 81, -1743, -51, -19, -49
0.494507, -1053, 78, -1740, -51, -19, -51
0.495520, -1057, 70, -1739, -52, -19, -52
0.496534, -1060, 65, -1740, -53, -20, -53
0.497548, -1060, 64, -1739, -52, -21, -53
0.498561, -1065, 62, -1734, -51, -22, -52
0.499574, -1075, 60, -1728, -50, -21, -51
0.500588, -1080, 59, -1723, -50, -21, -49
0.501601, -1081, 59, -1721, -50, -22, -49
0.502617, -1083, 57, -1717, -49, -22, -47
0.503628, -1085, 56, -1712, -48, -23, -45
0.504642, -1084, 56, -1707, -47, -22, -44
0.505655, -1082, 54, -1706, -46, -22, -41
0.506668, -1082, 53, -1704, -44, -21, -39
0.507684, -1080, 52, -1698, -43, -21, -38
0.508698, -1075, 48, -1694, -41, -19, -37
0.509709, -1071, 45, -1694, -37, -18, -36
0.510722, -1067, 46, -1696, -35, -17, -35
0.511736, -1062, 47, -1698, -34, -15, -35
0.512749, -1058, 48, -1701, -32, -13, -34
0.513763, -1057, 49, -1705, -31, -9, -33
0.514776, -1057, 50, -1708, -30, -6, -34
0.515790, -1057, 50, -1714, -28, -4, -34
0.516804, -1061, 51, -1720, -27, -2, -34
0.517817, -1066, 54, -1722, -26, 1, -34
0.518829, -1067, 57, -1726, -27, 4, -35
0.519843, -1069, 61, -1731, -27, 4, -36
0.520856, -1076, 66, -1738, -26, 5, -35
0.521870, -1078, 69, -1744, -27, 5, -33
0.522883, -1075, 70, -1746, -28, 5, -32
0.523897, -1076, 72, -1751, -29, 5, -32
0.524910, -1080, 75, -1757, -31, 5, -33
0.525924, -1080, 78, -1761, -33, 5, -31
0.526938, -1075, 79, -1761, -35, 5, -30
0.527951, -1070, 80, -1761, -37, 6, -31
0.528964, -1065, 81, -1762, -40, 7, -31
0.529977, -1059, 82, -1764, -42, 6, -30
0.530991, -1054, 79, -1763, -44, 6, -31
0.532004, -1052, 74, -1759, -45, 6, -32
0.533018, -1055, 74, -1754, -47, 6, -32
0.534034, -1055, 74, -1752, -48, 5, -34
0.535046, -1055, 70, -1753, -48, 4, -35
0.536059, -1059, 65, -1752, -50, 3, -36
0.537077, -1068, 63, -1751, -51, 4, -37
0.538087, -1075, 64, -1749, -53, 4, -38
0.539100, -1080, 62, -1744, -54, 3, -37
0.540112, -1086, 59, -1738, -56, 2, -36
0.541125, -1089, 58, -1730, -57, 1, -37
0.542139, -1091, 56, -1722, -57, 0, -35
0.543152, -1091, 54, -1719, -57, -1, -32
0.544166, -1092, 53, -1717, -56, -1, -29
0.545179, -1092, 51, -1716, -54, 1, -27
0.546193, -1088, 47, -1716, -54, 1, -26
0.547206, -1083, 45, -1719, -53, 1, -25
0.548220, -1081, 44, -1721, -52, 2, -23
0.549233, -1080, 43, -1721, -52, 3, -20
0.550246, -1078, 45, -1721, -51, 3, -19
0.551260, -1075, 48, -1726, -51, 4, -19
0.552273, -1071, 48, -1731, -51, 6, -17
0.553287, -1070, 46, -1733, -50, 7, -16
0.554301, -1072, 47, -1737, -50, 7, -16
0.555314, -1075, 51, -1742, -50, 7, -15
0.556327, -1076, 53, -1745, -51, 7, -14
0.557341, -1075, 52, -1748, -50, 7, -13
0.558355, -1072, 54, -1753, -50, 7, -11
0.559368, -1069, 57, -1758, -51, 8, -10
0.560381, -1065, 60, -1758, -53, 8, -9
0.561395, -1060, 64, -1760, -54, 7, -8
0.562408, -1056, 66, -1765, -54, 8, -7
0.563421, -1053, 66, -1767, -56, 9, -5
0.564435, -1049, 67, -1766, -58, 9, -5
0.565449, -1044, 69, -1767, -60, 8, -5
0.566462, -1038, 74, -1767, -61, 8, -5
0.567475, -1032, 79, -1763, -61, 9, -5
0.568489, -1025, 80, -1760, -61, 9, -7
0.569502, -1018, 80, -1759, -61, 8, -9
0.570515, -1016, 84, -1758, -61, 9, -10
0.571529, -1015, 86, -1757, -61, 9, -12
0.572542, -1013, 86, -1760, -62, 9, -13
0.573556, -1010, 89, -1761, -62, 9, -15
0.574569, -1012, 91, -1763, -63, 10, -18
0.575583, -1013, 91, -1765, -63, 10, -20
0.576596, -1015, 91, -1765, -63, 9, -22
0.577609, -1018, 94, -1765, -63, 8, -23
0.578623, -1022, 97, -1764, -64, 7, -24
0.579637, -1023, 99, -1763, -65, 6, -25
0.580650, -1021, 100, -1766, -66, 5, -27
0.581663, -1019, 104, -1768, -66, 4, -28
0.582677, -1017, 106, -1763, -66, 2, -30
0.583690, -1015, 104, -1755, -67, 0, -32
0.584704, -1012, 104, -1751, -67, -2, -34
0.585717, -1008, 106, -1749, -66, -2, -37
0.586733, -1007, 105, -1743, -64, -3, -39
0.587746, -1009, 103, -1739, -62, -3, -42
0.588757, -1008, 102, -1736, -61, -3, -44
0.589771, -1005, 102, -1731, -60, -3, -46
0.590779, -1008, 102, -1728, -58, -3, -49
0.591798, -1013, 103, -1729, -57, -4, -53
0.592811, -1017, 102, -1733, -56, -5, -55
0.593826, -1020, 101, -1738, -54, -5, -57
0.594835, -1025, 99, -1741, -52, -4, -59
0.595853, -1031, 98, -1745, -52, -5, -61
0.596865, -1037, 96, -1748, -51, -5, -61
0.597879, -1042, 95, -1748, -51, -6, -62
0.598894, -1048, 93, -1748, -51, -8, -64
0.599907, -1054, 89, -1744, -51, -8, -64
0.600919, -1059, 86, -1738, -50, -8, -64
0.601932, -1066, 85, -1733, -49, -9, -64
0.602949, -1071, 82, -1729, -49, -12, -64
0.603961, -1072, 81, -1729, -48, -13, -64
0.604974, -1071, 82, -1728, -47, -15, -63
0.605986, -1068, 80, -1723, -46, -17, -63
0.607001, -1067, 79, -1719, -44, -18, -63
0.608018, -1069, 79, -1718, -42, -18, -61
0.609026, -1069, 77, -1717, -41, -18, -60
0.610042, -1066, 73, -1717, -39, -18, -60
0.611054, -1067, 71, -1721, -38, -18, -59
0.612068, -1068, 72, -1728, -38, -18, -59
0.613080, -1066, 72, -1734, -37, -18, -59
0.614094, -1062, 73, -1737, -37, -18, -60
0.615107, -1061, 72, -1740, -36, -17, -61
0.616120, -1063, 70, -1744, -36, -15, -62
0.617134, -1069, 69, -1749, -35, -13, -62
0.618148, -1076, 66, -1754, -36, -13, -61
0.619161, -1079, 66, -1759, -37, -13, -60
0.620174, -1078, 70, -1761, -40, -11, -59
0.621188, -1079, 75, -1759, -43, -9, -58
0.622201, -1081, 80, -1751, -47, -7, -56
0.623215, -1080, 83, -1740, -50, -7, -54
0.624228, -1072, 85, -1727, -51, -6, -53
0.625241, -1064, 85, -1712, -50, -5, -53
0.626255, -1060, 84, -1699, -50, -5, -53
0.627268, -1056, 81, -1693, -48, -5, -54
0.628282, -1055, 77, -1692, -44, -4, -55
0.629295, -1058, 77, -1693, -41, -4, -56
0.630308, -1063, 78, -1700, -39, -4, -58
0.631322, -1068, 79, -1709, -37, -4, -59
0.632335, -1071, 82, -1717, -35, -3, -59
0.633349, -1072, 83, -1727, -34, -3, -58
0.634362, -1074, 82, -1738, -34, -2, -58
0.635376, -1076, 83, -1751, -35, -2, -57
0.636389, -1077, 86, -1762, -38, -2, -55
0.637403, -1074, 85, -1769, -40, -2, -53
0.638416, -1070, 83, -1773, -43, -1, -53
0.639430, -1068, 79, -1778, -44, -1, -53
0.640448, -1067, 77, -1783, -46, -1, -53
0.641457, -1064, 75, -1783, -50, -2, -53
0.642472, -1060, 73, -1782, -54, -2, -54
0.643483, -1058, 71, -1785, -57, -2, -54
0.644497, -1060, 72, -1788, -59, -2, -54
0.645510, -1062, 74, -1784, -60, -2, -53
0.646523, -1060, 74, -1779, -63, -2, -54
0.647537, -1058, 69, -1775, -65, -2, -55
0.648550, -1060, 67, -1771, -67, -2, -55
0.649564, -1061, 70, -1768, -69, -3, -55
0.650578, -1061, 73, -1767, -71, -4, -55
0.651591, -1062, 71, -1762, -72, -3, -55
0.652605, -1058, 67, -1759, -72, -4, -55
0.653618, -1056, 67, -1759, -72, -5, -55
0.654632, -1057, 70, -1756, -72, -5, -54
0.655644, -1059, 72, -1756, -74, -6, -53
0.656658, -1061, 70, -1757, -75, -7, -53
0.657678, -1061, 69, -1755, -75, -9, -53
0.658687, -1060, 69, -1755, -76, -9, -54
0.659698, -1061, 68, -1757, -78, -9, -52
0.660712, -1061, 70, -1756, -78, -9, -50
0.661729, -1057, 73, -1755, -80, -9, -51
0.662740, -1058, 72, -1754, -81, -8, -51
0.663753, -1060, 68, -1753, -82, -9, -51
0.664766, -1058, 66, -1753, -82, -11, -51
0.665779, -1055, 66, -1753, -84, -11, -53
0.666793, -1056, 66, -1757, -85, -11, -53
0.667807, -1059, 67, -1762, -85, -12, -51
0.668819, -1058, 70, -1766, -86, -12, -51
0.669833, -1056, 71, -1770, -88, -12, -51
0.670846, -1054, 73, -1772, -90, -10, -50
0.671860, -1047, 75, -1769, -93, -8, -50
0.672874, -1042, 73, -1766, -96, -7, -50
0.673886, -1041, 74, -1766, -97, -6, -51
0.674900, -1041, 75, -1764, -99, -7, -53
0.675914, -1040, 74, -1757, -100, -7, -54
0.676927, -1041, 74, -1754, -100, -7, -55
0.677940, -1042, 75, -1757, -101, -7, -56
0.678954, -1045, 75, -1759, -101, -7, -57
0.679967, -1047, 75, -1759, -102, -7, -58
0.680981, -1049, 75, -1760, -102, -8, -58
0.681994, -1050, 76, -1762, -101, -8, -58
0.683008, -1053, 77, -1768, -101, -10, -58
0.684021, -1058, 79, -1777, -102, -11, -58
0.685034, -1061, 79, -1785, -103, -11, -58
0.686048, -1062, 77, -1790, -106, -11, -57
0.687061, -1064, 76, -1792, -109, -12, -56
0.688075, -1065, 77, -1792, -112, -12, -56
0.689089, -1061, 78, -1792, -116, -11, -55
0.690102, -1055, 78, -1791, -119, -11, -55
0.691116, -1050, 78, -1786, -120, -12, -54
0.692129, -1048, 77, -1779, -122, -13, -53
0.693142, -1048, 79, -1775, -124, -12, -53
0.694156, -1048, 79, -1773, -127, -11, -53
0.695169, -1051, 78, -1769, -129, -11, -53
0.696183, -1053, 78, -1764, -129, -11, -53
0.697196, -1056, 78, -1763, -130, -9, -53
0.698209, -1059, 80, -1764, -132, -9, -52
0.699223, -1062, 81, -1764, -133, -9, -51
0.700236, -1059, 77, -1764, -133, -9, -50
0.701250, -1057, 72, -1764, -135, -10, -49
0.702263, -1057, 70, -1765, -136, -10, -48
0.703276, -1053, 71, -1765, -137, -10, -47
0.704290, -1051, 72, -1765, -139, -12, -48
0.705304, -1051, 73, -1765, -140, -12, -48
0.706317, -1051, 74, -1765, -141, -12, -47
0.707330, -1050, 73, -1767, -142, -13, -48
0.708344, -1050, 72, -1769, -144, -15, -50
0.709357, -1050, 74, -1770, -145, -15, -50
0.710371, -1051, 74, -1775, -145, -14, -49
0.711384, -1052, 71, -1780, -146, -15, -49
0.712398, -1053, 73, -1785, -148, -16, -48
0.713411, -1051, 76, -1788, -150, -16, -47
0.714425, -1046, 76, -1788, -153, -15, -46
0.715438, -1041, 73, -1787, -155, -16, -46
0.716452, -1041, 71, -1784, -157, -17, -47
0.717465, -1045, 72, -1779, -158, -18, -48
0.718478, -1049, 74, -1775, -159, -19, -47
0.719492, -1049, 76, -1773, -160, -21, -47
0.720505, -1049, 76, -1773, -161, -21, -47
0.721518, -1052, 76, -1775, -162, -21, -46
0.722532, -1057, 77, -1776, -164, -23, -45
0.723545, -1059, 78, -1775, -165, -25, -45
0.724559, -1057, 81, -1771, -167, -25, -44
0.725572, -1053, 84, -1767, -169, -24, -42
0.726586, -1050, 82, -1764, -172, -23, -40
0.727599, -1048, 82, -1757, -174, -23, -38
0.728613, -1048, 80, -1749, -175, -23, -38
0.729626, -1050, 79, -1742, -175, -24, -37
0.730639, -1051, 82, -1738, -176, -24, -36
0.731653, -1051, 81, -1732, -177, -24, -36
0.732667, -1053, 79, -1724, -176, -24, -36
0.733680, -1054, 79, -1717, -175, -24, -34
0.734695, -1054, 80, -1716, -173, -24, -32
0.735707, -1051, 82, -1716, -171, -22, -31
0.736720, -1048, 83, -1715, -170, -20, -30
0.737733, -1051, 84, -1714, -168, -19, -28
0.738747, -1056, 84, -1713, -167, -18, -28
0.739761, -1056, 84, -1713, -166, -18, -26
0.740774, -1056, 86, -1717, -164, -18, -25
0.741788, -1055, 87, -1720, -162, -17, -24
0.742805, -1057, 86, -1721, -160, -17, -23
0.743816, -1061, 88, -1725, -158, -17, -21
0.744829, -1061, 92, -1729, -157, -17, -20
0.745841, -1061, 94, -1734, -156, -18, -20
0.746855, -1063, 96, -1740, -154, -17, -17
0.747868, -1060, 100, -1743, -153, -17, -16
0.748882, -1057, 103, -1743, -152, -18, -17
0.749895, -1056, 103, -1743, -153, -18, -16
0.750908, -1054, 102, -1741, -153, -18, -14
0.751922, -1053, 104, -1739, -151, -20, -13
0.752935, -1053, 108, -1741, -150, -21, -13
0.753949, -1051, 113, -1744, -148, -23, -13
0.754962, -1050, 115, -1748, -147, -25, -14
0.755976, -1049, 115, -1751, -146, -26, -14
0.756989, -1045, 115, -1754, -145, -27, -14
0.758004, -1045, 117, -1757, -145, -27, -14
0.759016, -1048, 122, -1760, -146, -27, -15
0.760030, -1046, 126, -1763, -148, -28, -17
0.761043, -1040, 128, -1766, -149, -28, -17
0.762056, -1037, 131, -1766, -150, -27, -18
0.763070, -1032, 134, -1759, -151, -26, -19
0.764083, -1025, 135, -1754, -152, -26, -19
0.765099, -1023, 135, -1749, -153, -25, -20
0.766111, -1024, 134, -1739, -153, -24, -24
0.767125, -1022, 133, -1729, -152, -25, -26
0.768137, -1023, 133, -1725, -151, -26, -28
0.769150, -1031, 134, -1724, -151, -26, -30
0.770164, -1036, 137, -1723, -149, -25, -32
0.771177, -1038, 140, -1720, -147, -26, -34
0.772191, -1042, 140, -1716, -146, -28, -36
0.773204, -1047, 140, -1713, -143, -27, -36
0.774218, -1050, 142, -1708, -140, -27, -36
0.775231, -1052, 141, -1702, -138, -26, -35
0.776244, -1054, 137, -1697, -135, -26, -35
0.777258, -1054, 133, -1692, -132, -28, -35
0.778271, -1053, 132, -1689, -129, -30, -36
0.779285, -1050, 130, -1688, -126, -31, -36
0.780298, -1049, 129, -1689, -123, -29, -36
0.781312, -1047, 126, -1689, -121, -27, -38
0.782325, -1046, 122, -1685, -119, -25, -39
0.783338, -1048, 120, -1681, -116, -25, -41
0.784352, -1054, 119, -1679, -113, -25, -43
0.785366, -1060, 117, -1677, -110, -25, -44
0.786379, -1067, 114, -1678, -107, -24, -44
0.787392, -1074, 114, -1680, -103, -24, -44
0.788406, -1078, 118, -1681, -99, -23, -43
0.789420, -1082, 121, -1680, -95, -24, -42
0.790433, -1086, 122, -1681, -92, -22, -40
0.791446, -1089, 123, -1684, -89, -21, -39
0.792460, -1087, 124, -1686, -87, -20, -37
0.793473, -1082, 126, -1685, -84, -21, -35
0.794486, -1079, 129, -1686, -81, -21, -34
0.795500, -1074, 131, -1691, -78, -19, -33
0.796513, -1069, 130, -1690, -76, -19, -32
0.797527, -1068, 126, -1690, -72, -19, -32
0.798540, -1069, 123, -1692, -70, -18, -33
0.799554, -1069, 125, -1692, -69, -15, -34
0.800567, -1072, 129, -1696, -67, -14, -34
0.801581, -1076, 133, -1705, -63, -15, -35
0.802594, -1077, 137, -1712, -61, -17, -35
0.803608, -1076, 139, -1718, -61, -19, -34
0.804621, -1075, 138, -1723, -60, -20, -33
0.805634, -1071, 138, -1722, -58, -20, -33
0.806648, -1068, 135, -1718, -56, -20, -34
0.807661, -1069, 129, -1717, -56, -21, -35
0.808675, -1074, 125, -1720, -55, -22, -35
0.809688, -1075, 125, -1728, -54, -22, -35
0.810702, -1077, 124, -1735, -52, -20, -35
0.811715, -1078, 123, -1741, -51, -20, -36
0.812729, -1079, 122, -1750, -51, -21, -37
0.813742, -1081, 126, -1759, -53, -23, -37
0.814755, -1082, 127, -1760, -55, -24, -36
0.815769, -1078, 122, -1756, -56, -26, -36
0.816782, -1075, 117, -1754, -58, -28, -35
0.817796, -1075, 113, -1753, -59, -29, -35
0.818809, -1075, 108, -1750, -58, -30, -35
0.819823, -1075, 104, -1747, -57, -31, -35
0.820836, -1081, 102, -1746, -57, -32, -36
0.821849, -1086, 102, -1750, -57, -34, -37
0.822863, -1085, 107, -1752, -58, -36, -37
0.823876, -1087, 109, -1751, -58, -39, -36
0.824890, -1090, 105, -1750, -58, -41, -35
0.825903, -1090, 101, -1750, -59, -42, -35
0.826917, -1089, 99, -1748, -60, -42, -34
0.827930, -1090, 98, -1746, -61, -42, -32
0.828944, -1090, 96, -1744, -61, -43, -31
0.829957, -1088, 93, -1741, -60, -42, -29
0.830971, -1086, 90, -1742, -61, -42, -28
0.831984, -1085, 88, -1745, -63, -41, -27
0.832997, -1085, 90, -1745, -64, -41, -26
0.834011, -1085, 90, -1743, -65, -41, -25
0.835024, -1087, 88, -1743, -65, -41, -25
0.836038, -1089, 89, -1745, -66, -41, -24
0.837051, -1085, 88, -1747, -68, -40, -23
0.838065, -1082, 86, -1748, -68, -40, -21
0.839078, -1081, 87, -1749, -68, -41, -20
0.840091, -1080, 88, -1749, -69, -41, -19
0.841105, -1079, 88, -1749, -69, -42, -18
0.842121, -1078, 86, -1752, -70, -42, -17
0.843133, -1076, 84, -1758, -71, -42, -15
0.844147, -1076, 84, -1764, -73, -42, -14
0.845159, -1076, 88, -1770, -74, -42, -14
0.846172, -1076, 90, -1775, -75, -43, -14
0.847187, -1080, 90, -1782, -77, -46, -14
0.848199, -1083, 89, -1790, -79, -49, -14
0.849212, -1085, 85, -1798, -81, -52, -12
0.850226, -1089, 84, -1808, -83, -56, -10
0.851239, -1091, 86, -1818, -85, -59, -7
0.852253, -1089, 88, -1827, -90, -60, -4
0.853266, -1084, 91, -1834, -96, -59, -2
0.854280, -1075, 96, -1835, -103, -59, -2
0.855293, -1067, 100, -1830, -109, -60, -1
0.856306, -1059, 102, -1824, -114, -61, 1
0.857320, -1050, 102, -1816, -119, -62, 2
0.858333, -1044, 103, -1806, -125, -63, 0
0.859347, -1038, 102, -1799, -129, -64, 0
0.860360, -1033, 100, -1796, -129, -66, -1
0.861374, -1031, 100, -1794, -130, -68, -3
0.862389, -1030, 102, -1795, -134, -69, -4
0.863401, -1028, 108, -1796, -136, -68, -4
0.864414, -1026, 113, -1796, -138, -66, -5
0.865427, -1020, 115, -1796, -143, -65, -6
0.866441, -1014, 116, -1791, -147, -65, -8
0.867455, -1011, 119, -1786, -151, -65, -10
0.868468, -1012, 120, -1782, -153, -64, -12
0.869481, -1013, 122, -1779, -155, -63, -13
0.870495, -1010, 123, -1775, -158, -61, -16
0.871508, -1009, 122, -1771, -162, -59, -19
0.872522, -1009, 123, -1767, -164, -57, -22
0.873535, -1010, 125, -1761, -166, -55, -25
0.874548, -1013, 127, -1758, -168, -54, -28
0.875562, -1017, 126, -1754, -170, -53, -30
0.876576, -1020, 128, -1749, -172, -51, -32
0.877589, -1024, 130, -1745, -174, -51, -34
0.878602, -1030, 132, -1739, -176, -51, -36
0.879616, -1036, 133, -1733, -179, -50, -37
0.880629, -1039, 134, -1727, -179, -48, -37
0.881643, -1041, 132, -1722, -179, -45, -38
0.882656, -1042, 129, -1715, -180, -43, -38
0.883669, -1045, 127, -1707, -180, -42, -38
0.884683, -1049, 127, -1703, -178, -42, -40
0.885696, -1050, 128, -1701, -176, -42, -41
0.886710, -1052, 127, -1698, -174, -41, -42
0.887723, -1058, 127, -1699, -172, -40, -42
0.888737, -1062, 127, -1704, -170, -38, -42
0.889750, -1066, 130, -1707, -167, -37, -41
0.890766, -1071, 133, -1707, -165, -37, -42
0.891777, -1075, 135, -1705, -163, -36, -42
0.892791, -1078, 135, -1702, -162, -36, -42
0.893804, -1080, 136, -1700, -160, -37, -40
0.894817, -1079, 138, -1698, -159, -38, -39
0.895826, -1077, 141, -1697, -157, -37, -38
0.896844, -1075, 144, -1697, -155, -36, -38
0.897858, -1076, 147, -1697, -154, -36, -38
0.898871, -1073, 150, -1696, -152, -37, -37
0.899885, -1068, 153, -1694, -148, -37, -37
0.900898, -1065, 153, -1693, -146, -36, -37
0.901911, -1063, 156, -1693, -145, -34, -37
0.902925, -1059, 160, -1691, -143, -34, -39
0.903938, -1058, 160, -1687, -141, -32, -41
0.904952, -1058, 161, -1684, -140, -31, -40
0.905965, -1059, 163, -1684, -137, -30, -39
0.906979, -1059, 164, -1682, -133, -29, -40
0.907992, -1059, 166, -1679, -130, -27, -42
0.909005, -1058, 170, -1676, -127, -27, -44
0.910020, -1060, 169, -1675, -125, -27, -45
0.911032, -1065, 165, -1678, -121, -27, -46
0.912046, -1071, 165, -1683, -117, -27, -48
0.913059, -1076, 165, -1690, -114, -27, -46
0.914073, -1078, 168, -1697, -111, -28, -45
0.915086, -1082, 172, -1702, -110, -27, -46
0.916100, -1084, 174, -1704, -109, -27, -45
0.917113, -1079, 174, -1703, -108, -28, -44
0.918127, -1077, 172, -1703, -106, -29, -42
0.919140, -1077, 170, -1703, -104, -29, -41
0.920153, -1078, 168, -1702, -102, -29, -41
0.921167, -1079, 167, -1701, -101, -30, -41
0.922180, -1077, 166, -1699, -100, -31, -42
0.923194, -1074, 167, -1694, -97, -30, -42
0.924207, -1075, 166, -1692, -96, -30, -42
0.925221, -1074, 165, -1692, -94, -31, -42
0.926234, -1071, 164, -1689, -92, -33, -42
0.927247, -1070, 162, -1687, -90, -33, -42
0.928261, -1068, 161, -1687, -88, -33, -43
0.929274, -1066, 162, -1691, -86, -33, -43
0.930288, -1066, 160, -1692, -81, -33, -44
0.931302, -1066, 158, -1690, -77, -32, -45
0.932315, -1065, 161, -1693, -76, -32, -45
0.933328, -1064, 162, -1696, -75, -34, -45
0.934342, -1066, 160, -1696, -73, -34, -47
0.935356, -1068, 161, -1699, -70, -34, -48
0.936369, -1067, 163, -1703, -67, -34, -49
0.937385, -1070, 165, -1705, -64, -34, -50
0.938396, -1072, 164, -1703, -63, -36, -51
0.939411, -1069, 164, -1703, -62, -38, -52
0.940422, -1069, 164, -1703, -61, -39, -52
0.941436, -1071, 161, -1702, -60, -39, -53
0.942449, -1072, 158, -1702, -57, -40, -54
0.943463, -1073, 160, -1704, -55, -42, -54
0.944471, -1074, 162, -1704, -53, -43, -54
0.945490, -1072, 160, -1704, -52, -44, -54
0.946503, -1072, 158, -1705, -51, -44, -54
0.947517, -1072, 158, -1705, -50, -43, -54
0.948530, -1068, 156, -1706, -49, -42, -53
0.949544, -1066, 153, -1705, -48, -42, -52
0.950557, -1064, 153, -1703, -48, -41, -53
0.951570, -1065, 156, -1703, -47, -38, -53
0.952584, -1067, 154, -1701, -46, -35, -54
0.953597, -1067, 150, -1699, -46, -34, -53
0.954611, -1066, 150, -1700, -45, -31, -53
0.955624, -1068, 148, -1702, -44, -30, -54
0.956637, -1070, 146, -1698, -45, -28, -54
0.957651, -1072, 144, -1690, -45, -25, -54
0.958664, -1076, 140, -1685, -43, -22, -55
0.959679, -1084, 136, -1686, -40, -21, -54
0.960691, -1091, 136, -1692, -40, -19, -52
0.961704, -1094, 137, -1699, -38, -17, -51
0.962718, -1097, 134, -1702, -36, -16, -50
0.963732, -1098, 133, -1703, -36, -15, -48
0.964745, -1099, 134, -1706, -35, -14, -46
0.965758, -1100, 136, -1714, -34, -15, -44
0.966772, -1101, 138, -1717, -32, -15, -42
0.967785, -1100, 139, -1715, -32, -15, -40
0.968799, -1097, 140, -1716, -31, -15, -38
0.969813, -1097, 139, -1720, -31, -16, -37
0.970826, -1095, 137, -1721, -31, -17, -36
0.971839, -1092, 136, -1720, -32, -19, -35
0.972852, -1093, 136, -1720, -33, -20, -34
0.973866, -1097, 135, -1723, -32, -21, -33
0.974879, -1098, 136, -1726, -31, -23, -34
0.975893, -1096, 138, -1729, -31, -25, -32
0.976906, -1094, 140, -1731, -31, -27, -32
0.977920, -1096, 139, -1736, -32, -28, -32
0.978933, -1098, 136, -1742, -33, -30, -31
0.979946, -1098, 133, -1746, -34, -31, -28
0.980960, -1097, 132, -1749, -37, -32, -27
0.981973, -1096, 133, -1752, -40, -32, -27
0.982988, -1094, 132, -1755, -42, -33, -26
0.984000, -1094, 129, -1755, -45, -34, -23
0.985014, -1092, 126, -1753, -48, -34, -22
0.986028, -1085, 123, -1753, -51, -33, -23
0.987041, -1079, 123, -1752, -54, -32, -23
0.988054, -1078, 122, -1749, -57, -30, -22
0.989068, -1079, 118, -1745, -59, -28, -22
0.990081, -1077, 116, -1742, -60, -27, -22
0.991094, -1074, 116, -1739, -62, -25, -22
0.992108, -1074, 116, -1737, -63, -23, -22
0.993121, -1076, 114, -1738, -64, -21, -22
0.994135, -1079, 113, -1737, -64, -21, -23
0.995149, -1081, 112, -1733, -65, -21, -24
0.996162, -1084, 111, -1730, -66, -22, -24
0.997175, -1088, 111, -1729, -66, -21, -22
0.998189, -1096, 112, -1726, -66, -21, -20
0.999202, -1100, 115, -1725, -66, -22, -20
1.000215, -1100, 119, -1725, -67, -24, -19
1.001234, -1102, 122, -1730, -67, -26, -17
1.002248, -1105, 121, -1737, -66, -27, -16
1.003264, -1103, 120, -1743, -66, -28, -14
1.004275, -1101, 124, -1747, -67, -30, -12
1.005288, -1104, 128, -1750, -68, -32, -10
1.006299, -1104, 128, -1754, -69, -34, -9
1.007312, -1098, 127, -1759, -69, -36, -7
1.008326, -1094, 127, -1766, -71, -37, -5
1.009339, -1090, 128, -1774, -74, -38, -4
1.010351, -1086, 127, -1775, -77, -39, -5
1.011364, -1083, 125, -1776, -80, -39, -4
1.012381, -1082, 125, -1776, -83, -39, -2
1.013396, -1080, 126, -1775, -85, -39, -2
1.014413, -1078, 126, -1776, -88, -39, -2
1.015424, -1077, 126, -1775, -91, -38, -3
1.016435, -1074, 127, -1769, -93, -36, -2
1.017447, -1072, 126, -1764, -97, -34, -2
1.018459, -1073, 124, -1760, -100, -33, -2
1.019474, -1074, 124, -1752, -101, -33, -2
1.020487, -1072, 127, -1745, -103, -32, -2
1.021505, -1069, 129, -1739, -105, -30, -2
1.022512, -1068, 127, -1734, -106, -28, -1
1.023525, -1068, 126, -1729, -107, -26, 1
1.024538, -1073, 129, -1723, -109, -26, 2
1.025551, -1080, 127, -1717, -110, -25, 1
1.026564, -1087, 122, -1711, -109, -24, 1
1.027578, -1092, 121, -1704, -107, -23, 1
1.028592, -1098, 122, -1698, -106, -24, 3
1.029605, -1104, 122, -1695, -106, -25, 4
1.030619, -1112, 121, -1695, -105, -26, 7
1.031632, -1119, 122, -1692, -102, -28, 11
1.032645, -1122, 122, -1689, -99, -30, 15
1.033659, -1122, 124, -1691, -97, -31, 17
1.034678, -1123, 124, -1697, -95, -33, 20
1.035687, -1122, 123, -1705, -92, -34, 23
1.036701, -1121, 123, -1713, -90, -34, 26
1.037713, -1116, 124, -1719, -90, -34, 30
1.038726, -1109, 126, -1726, -89, -35, 34
1.039744, -1106, 128, -1732, -88, -36, 37
1.040754, -1104, 126, -1735, -88, -35, 40
1.041766, -1100, 125, -1737, -88, -35, 41
1.042780, -1097, 126, -1742, -88, -37, 42
1.043793, -1095, 129, -1743, -88, -37, 44
1.044806, -1094, 133, -1743, -89, -37, 46
1.045820, -1092, 133, -1741, -89, -38, 46
1.046834, -1091, 133, -1737, -90, -38, 46
1.047847, -1093, 138, -1735, -91, -39, 47
1.048860, -1096, 141, -1733, -90, -39, 48
1.049874, -1096, 141, -1727, -90, -39, 49
1.050887, -1094, 144, -1721, -91, -40, 51
1.051901, -1091, 149, -1717, -91, -41, 52
1.052914, -1091, 152, -1714, -89, -41, 54
1.053928, -1093, 151, -1709, -88, -40, 55
1.054941, -1090, 149, -1708, -87, -41, 56
1.055955, -1083, 149, -1711, -86, -40, 57
1.056968, -1081, 152, -1713, -84, -39, 57
1.057982, -1081, 155, -1715, -84, -39, 58
1.058995, -1080, 154, -1716, -84, -39, 59
1.060008, -1078, 155, -1718, -82, -39, 60
1.061022, -1077, 160, -1722, -81, -39, 60
1.062035, -1077, 164, -1727, -80, -40, 59
1.063048, -1075, 164, -1732, -81, -40, 59
1.064062, -1072, 165, -1733, -81, -40, 60
1.065071, -1068, 166, -1733, -81, -41, 59
1.066089, -1068, 167, -1732, -81, -42, 59
1.067097, -1068, 167, -1731, -81, -43, 58
1.068117, -1069, 165, -1728, -82, -44, 57
1.069129, -1071, 165, -1723, -82, -45, 58
1.070143, -1070, 166, -1718, -82, -46, 59
1.071156, -1068, 168, -1712, -82, -46, 58
1.072170, -1065, 170, -1704, -81, -46, 57
1.073183, -1063, 170, -1701, -80, -45, 57
1.074197, -1064, 168, -1700, -79, -43, 58
1.075210, -1064, 166, -1698, -76, -42, 59
1.076224, -1063, 164, -1697, -74, -42, 58
1.077237, -1063, 161, -1699, -73, -42, 57
1.078250, -1067, 161, -1704, -71, -41, 56
1.079264, -1074, 161, -1709, -68, -40, 56
1.080278, -1081, 161, -1715, -67, -40, 56
1.081291, -1081, 162, -1720, -67, -41, 57
1.082304, -1082, 163, -1724, -65, -41, 58
1.083318, -1086, 162, -1727, -64, -41, 59
1.084331, -1087, 161, -1734, -64, -42, 59
1.085345, -1086, 160, -1741, -65, -44, 59
1.086358, -1085, 162, -1742, -65, -45, 60
1.087372, -1084, 163, -1746, -65, -45, 61
1.088385, -1082, 161, -1751, -65, -46, 62
1.089399, -1078, 159, -1753, -66, -48, 63
1.090412, -1073, 162, -1754, -66, -50, 63
1.091425, -1071, 166, -1756, -66, -51, 62
1.092440, -1070, 167, -1758, -67, -52, 62
1.093452, -1067, 167, -1760, -68, -53, 62
1.094466, -1064, 166, -1761, -69, -54, 62
1.095479, -1063, 165, -1764, -69, -55, 61
1.096493, -1065, 166, -1768, -69, -56, 60
1.097506, -1065, 165, -1770, -70, -56, 59
1.098519, -1065, 163, -1772, -72, -57, 57
1.099533, -1067, 165, -1775, -75, -58, 56
1.100546, -1067, 167, -1775, -77, -59, 56
1.101560, -1068, 167, -1772, -80, -59, 56
1.102573, -1071, 166, -1770, -82, -60, 55
1.103587, -1076, 164, -1765, -84, -61, 54
1.104600, -1080, 167, -1759, -87, -63, 53
1.105614, -1082, 167, -1753, -89, -64, 53
1.106627, -1083, 164, -1750, -91, -66, 53
1.107640, -1083, 165, -1748, -92, -67, 53
1.108654, -1085, 162, -1747, -92, -68, 53
1.109667, -1089, 156, -1744, -93, -69, 54
1.110680, -1089, 154, -1743, -94, -70, 56
1.111694, -1087, 155, -1749, -95, -70, 57
1.112708, -1087, 154, -1752, -95, -69, 56
1.113721, -1089, 152, -1752, -97, -69, 57
1.114734, -1090, 150, -1755, -99, -68, 58
1.115748, -1090, 149, -1759, -100, -67, 60
1.116761, -1093, 148, -1759, -103, -68, 61
1.117775, -1095, 148, -1758, -106, -68, 62
1.118788, -1094, 147, -1758, -109, -67, 64
1.119802, -1095, 146, -1753, -112, -69, 65
1.120815, -1096, 146, -1748, -114, -71, 66
1.121829, -1095, 145, -1748, -114, -72, 66
1.122842, -1094, 141, -1747, -115, -73, 67
1.123855, -1092, 140, -1750, -114, -76, 69
1.124869, -1092, 143, -1755, -113, -79, 71
1.125883, -1096, 143, -1756, -114, -81, 70
1.126896, -1099, 142, -1757, -116, -83, 70
1.127909, -1097, 142, -1759, -117, -84, 72
1.128923, -1093, 144, -1763, -117, -85, 74
1.129940, -1094, 146, -1766, -117, -87, 75
1.130952, -1092, 151, -1762, -118, -88, 75
1.131965, -1089, 153, -1760, -121, -89, 76
1.132977, -1086, 151, -1757, -124, -90, 76
1.133990, -1083, 152, -1751, -126, -89, 77
1.135005, -1080, 156, -1747, -128, -87, 78
1.136018, -1080, 160, -1743, -130, -86, 79
1.137031, -1082, 157, -1738, -133, -85, 79
1.138044, -1081, 152, -1730, -134, -82, 79
1.139057, -1077, 154, -1726, -136, -77, 79
1.140071, -1076, 158, -1723, -138, -73, 80
1.141084, -1074, 158, -1719, -141, -70, 80
1.142097, -1072, 160, -1716, -142, -66, 79
1.143111, -1075, 164, -1716, -144, -63, 77
1.144124, -1079, 165, -1717, -147, -60, 77
1.145138, -1077, 167, -1716, -149, -57, 77
1.146151, -1074, 168, -1715, -151, -55, 76
1.147164, -1074, 169, -1717, -153, -52, 75
1.148178, -1075, 172, -1719, -156, -48, 75
1.149191, -1074, 179, -1716, -158, -45, 72
1.150205, -1069, 185, -1709, -159, -43, 71
1.151219, -1066, 185, -1704, -159, -42, 70
1.152232, -1067, 184, -1703, -160, -40, 69
1.153245, -1068, 189, -1700, -160, -39, 69
1.154260, -1069, 195, -1696, -160, -39, 68
1.155272, -1071, 195, -1692, -159, -39, 65
1.156286, -1076, 194, -1692, -159, -38, 62
1.157299, -1081, 194, -1695, -158, -38, 61
1.158313, -1084, 200, -1700, -158, -38, 61
1.159326, -1088, 204, -1703, -159, -38, 60
1.160339, -1096, 203, -1706, -159, -38, 60
1.161353, -1100, 204, -1706, -159, -38, 61
1.162367, -1098, 207, -1707, -159, -38, 62
1.163380, -1090, 207, -1710, -160, -38, 63
1.164394, -1080, 208, -1711, -161, -37, 64
1.165407, -1073, 211, -1713, -160, -36, 63
1.166420, -1069, 212, -1718, -160, -35, 62
1.167433, -1063, 210, -1722, -160, -34, 60
1.168447, -1055, 209, -1724, -161, -33, 59
1.169460, -1050, 210, -1721, -162, -30, 57
1.170474, -1050, 211, -1718, -164, -28, 54
1.171488, -1048, 212, -1716, -166, -25, 51
1.172501, -1046, 213, -1711, -167, -23, 49
1.173514, -1050, 213, -1699, -166, -21, 46
1.174528, -1059, 216, -1688, -165, -20, 43
1.175541, -1066, 218, -1681, -165, -20, 40
1.176555, -1073, 220, -1676, -166, -19, 38
1.177568, -1075, 222, -1663, -164, -18, 39
1.178581, -1075, 220, -1646, -161, -17, 38
1.179595, -1077, 218, -1632, -157, -16, 37
1.180609, -1080, 217, -1624, -153, -14, 36
1.181622, -1084, 213, -1619, -149, -14, 36
1.182635, -1088, 211, -1614, -144, -15, 35
1.183649, -1090, 213, -1609, -139, -16, 35
1.184662, -1094, 210, -1608, -134, -15, 35
1.185675, -1100, 206, -1611, -128, -13, 35
1.186689, -1107, 203, -1613, -122, -12, 34
1.187702, -1111, 202, -1616, -117, -12, 35
1.188716, -1111, 205, -1621, -112, -10, 37
1.189729, -1111, 206, -1627, -109, -8, 40
1.190743, -1111, 206, -1633, -105, -7, 41
1.191756, -1112, 207, -1639, -99, -6, 41
1.192769, -1110, 208, -1644, -94, -5, 41
1.193783, -1111, 210, -1648, -91, -3, 42
1.194796, -1114, 208, -1653, -87, -2, 43
1.195810, -1113, 206, -1661, -82, -3, 45
1.196824, -1110, 210, -1668, -80, -4, 46
1.197837, -1108, 215, -1673, -78, -2, 48
1.198850, -1104, 214, -1678, -75, -1, 48
1.199864, -1099, 215, -1683, -72, -3, 48
1.200877, -1097, 217, -1689, -69, -5, 47
1.201891, -1098, 217, -1697, -66, -6, 47
1.202904, -1099, 216, -1704, -63, -7, 46
1.203917, -1097, 217, -1708, -60, -9, 46
1.204931, -1095, 217, -1713, -58, -11, 46
1.205944, -1098, 216, -1720, -57, -12, 47
1.206958, -1100, 215, -1723, -58, -13, 46
1.207972, -1098, 215, -1723, -59, -14, 46
1.208985, -1097, 214, -1722, -59, -14, 47
1.209998, -1097, 213, -1716, -58, -16, 47
1.211012, -1098, 212, -1709, -57, -18, 47
1.212025, -1097, 211, -1705, -56, -20, 47
1.213039, -1095, 209, -1701, -55, -21, 47
1.214052, -1094, 204, -1697, -54, -23, 47
1.215065, -1094, 200, -1694, -52, -25, 47
1.216079, -1095, 200, -1694, -49, -27, 48
1.217093, -1096, 202, -1695, -48, -27, 47
1.218106, -1099, 204, -1693, -46, -28, 47
1.219120, -1100, 206, -1691, -44, -29, 46
1.220134, -1098, 207, -1689, -42, -30, 46
1.221155, -1093, 208, -1684, -41, -32, 47
1.222171, -1092, 207, -1680, -39, -33, 48
1.223176, -1092, 202, -1680, -36, -34, 48
1.224186, -1093, 200, -1683, -34, -36, 48
1.225199, -1093, 201, -1692, -32, -38, 47
1.226213, -1094, 202, -1700, -29, -41, 46
1.227226, -1095, 201, -1710, -26, -45, 46
1.228240, -1095, 197, -1723, -24, -47, 48
1.229258, -1100, 196, -1742, -23, -50, 48
1.230268, -1106, 198, -1764, -24, -53, 48
1.231282, -1109, 197, -1782, -26, -55, 48
1.232294, -1109, 193, -1798, -30, -57, 49
1.233307, -1109, 193, -1811, -34, -59, 51
1.234315, -1105, 194, -1817, -38, -60, 53
1.235334, -1099, 192, -1818, -44, -61, 55
1.236349, -1092, 186, -1817, -50, -61, 55
1.237361, -1089, 181, -1813, -56, -62, 56
1.238375, -1089, 177, -1811, -60, -65, 56
1.239388, -1092, 171, -1810, -63, -68, 54
1.240402, -1094, 169, -1811, -67, -71, 53
1.241415, -1096, 170, -1815, -72, -73, 52
1.242428, -1098, 169, -1820, -77, -75, 53
1.243442, -1100, 166, -1822, -83, -76, 55
1.244455, -1099, 166, -1816, -88, -77, 57
1.245468, -1100, 165, -1810, -91, -79, 58
1.246482, -1103, 161, -1809, -95, -82, 59
1.247495, -1105, 158, -1806, -99, -85, 60
1.248509, -1111, 155, -1802, -104, -88, 60
1.249523, -1114, 152, -1804, -107, -91, 62
1.250536, -1116, 151, -1804, -111, -94, 66
1.251550, -1119, 152, -1797, -116, -96, 68
1.252563, -1123, 152, -1788, -120, -98, 69
1.253576, -1124, 151, -1780, -124, -102, 71
1.254589, -1122, 150, -1772, -127, -105, 74
1.255603, -1120, 151, -1767, -129, -107, 77
1.256617, -1120, 152, -1764, -132, -108, 79
1.257630, -1119, 153, -1759, -136, -109, 81
1.258643, -1116, 153, -1754, -138, -108, 85
1.259657, -1112, 153, -1752, -141, -107, 88
1.260670, -1110, 153, -1755, -145, -105, 90
1.261684, -1107, 152, -1758, -148, -103, 92
1.262697, -1101, 149, -1760, -151, -101, 94
1.263711, -1100, 147, -1763, -155, -98, 96
1.264726, -1099, 149, -1763, -160, -96, 96
1.265738, -1098, 153, -1762, -165, -94, 96
1.266751, -1096, 156, -1759, -169, -92, 98
1.267765, -1095, 159, -1752, -174, -90, 99
1.268778, -1096, 162, -1744, -179, -87, 99
1.269791, -1100, 165, -1741, -183, -84, 99
1.270805, -1104, 166, -1737, -185, -82, 100
1.271818, -1107, 166, -1735, -188, -80, 102
1.272831, -1109, 165, -1733, -191, -78, 103
1.273845, -1110, 167, -1731, -194, -77, 105
1.274859, -1111, 172, -1729, -196, -78, 107
1.275872, -1114, 175, -1730, -198, -78, 109
1.276886, -1117, 179, -1729, -201, -77, 110
1.277899, -1121, 182, -1727, -203, -76, 111
1.278912, -1122, 182, -1726, -205, -77, 114
1.279926, -1119, 184, -1723, -207, -78, 117
1.280939, -1118, 187, -1719, -208, -78, 119
1.281952, -1118, 189, -1719, -209, -79, 121
1.282966, -1118, 192, -1718, -210, -80, 123
1.283979, -1119, 192, -1711, -212, -79, 125
1.284993, -1117, 194, -1705, -214, -79, 126
1.286006, -1114, 198, -1703, -214, -79, 130
1.287020, -1111, 200, -1700, -215, -77, 132
1.288033, -1104, 203, -1693, -216, -75, 131
1.289047, -1096, 206, -1686, -216, -74, 132
1.290060, -1093, 210, -1680, -216, -72, 133
1.291074, -1091, 215, -1674, -217, -71, 134
1.292087, -1089, 217, -1665, -216, -70, 134
1.293101, -1089, 215, -1658, -214, -67, 134
1.294114, -1091, 216, -1652, -212, -65, 133
1.295128, -1091, 220, -1647, -210, -64, 133
1.296141, -1091, 224, -1644, -207, -63, 132
1.297154, -1095, 225, -1643, -203, -62, 132
1.298168, -1100, 223, -1642, -199, -62, 133
1.299181, -1103, 225, -1642, -195, -62, 133
1.300195, -1107, 232, -1645, -192, -63, 133
1.301208, -1108, 238, -1651, -188, -65, 133
1.302222, -1112, 238, -1657, -185, -66, 135
1.303235, -1119, 238, -1663, -182, -68, 137
1.304248, -1120, 238, -1667, -178, -71, 138
1.305262, -1117, 240, -1673, -175, -73, 140
1.306275, -1118, 243, -1679, -172, -75, 141
1.307289, -1123, 245, -1684, -169, -78, 143
1.308302, -1126, 244, -1691, -167, -81, 146
1.309316, -1124, 247, -1698, -166, -83, 147
1.310329, -1120, 249, -1700, -165, -84, 149
1.311342, -1116, 249, -1705, -163, -84, 152
1.312356, -1109, 249, -1713, -163, -85, 154
1.313370, -1103, 252, -1716, -163, -86, 155
1.314383, -1099, 254, -1713, -162, -86, 156
1.315396, -1099, 253, -1713, -164, -87, 157
1.316410, -1097, 252, -1710, -164, -88, 159
1.317423, -1095, 251, -1705, -163, -88, 160
1.318437, -1095, 247, -1703, -161, -87, 159
1.319450, -1091, 243, -1705, -159, -87, 159
1.320463, -1084, 238, -1709, -157, -88, 158
1.321477, -1078, 235, -1713, -158, -89, 158
1.322490, -1077, 236, -1714, -157, -89, 157
1.323504, -1081, 241, -1707, -155, -90, 156
1.324517, -1090, 244, -1702, -153, -92, 153
1.325531, -1101, 246, -1702, -151, -95, 152
1.326550, -1111, 249, -1703, -148, -100, 152
1.327557, -1119, 251, -1704, -146, -105, 153
1.328573, -1126, 251, -1701, -144, -109, 156
1.329584, -1132, 254, -1696, -142, -113, 161
1.330598, -1138, 259, -1691, -139, -118, 165
1.331611, -1142, 261, -1683, -136, -122, 168
1.332625, -1141, 263, -1676, -133, -125, 171
1.333638, -1138, 265, -1674, -130, -127, 174
1.334653, -1137, 263, -1673, -126, -131, 178
1.335665, -1132, 261, -1670, -122, -135, 182
1.336679, -1124, 263, -1667, -118, -137, 184
1.337693, -1117, 260, -1664, -116, -139, 186
1.338705, -1109, 257, -1660, -113, -142, 188
1.339719, -1100, 256, -1656, -110, -143, 190
1.340732, -1089, 258, -1653, -106, -144, 190
1.341745, -1078, 259, -1648, -104, -144, 188
1.342759, -1071, 258, -1645, -100, -143, 188
1.343773, -1066, 254, -1646, -96, -141, 186
1.344786, -1060, 253, -1644, -93, -140, 183
1.345799, -1056, 259, -1640, -91, -137, 182
1.346813, -1055, 266, -1641, -88, -134, 179
1.347827, -1052, 268, -1638, -83, -132, 174
1.348840, -1048, 271, -1634, -79, -131, 170
1.349853, -1049, 271, -1632, -74, -130, 167
1.350867, -1057, 269, -1633, -68, -132, 164
1.351880, -1067, 271, -1634, -63, -133, 161
1.352893, -1081, 274, -1637, -55, -135, 159
1.353907, -1093, 276, -1644, -48, -139, 156
1.354920, -1104, 279, -1650, -43, -144, 155
1.355934, -1117, 283, -1659, -38, -150, 155
1.356947, -1127, 286, -1669, -31, -158, 156
1.357961, -1135, 288, -1679, -27, -165, 158
1.358974, -1142, 287, -1690, -24, -171, 161
1.359988, -1147, 287, -1702, -22, -175, 164
1.361001, -1146, 288, -1717, -21, -180, 167
1.362015, -1141, 286, -1735, -19, -184, 170
1.363028, -1140, 284, -1752, -20, -188, 174
1.364041, -1143, 278, -1770, -23, -191, 177
1.365055, -1141, 270, -1785, -26, -195, 179
1.366068, -1136, 266, -1796, -30, -199, 182
1.367081, -1137, 263, -1809, -35, -202, 183
1.368095, -1140, 255, -1821, -43, -203, 185
1.369109, -1136, 246, -1830, -51, -203, 187
1.370122, -1133, 244, -1837, -60, -198, 191
1.371135, -1133, 241, -1844, -71, -192, 194
1.372149, -1131, 236, -1847, -83, -189, 195
1.373162, -1130, 229, -1844, -92, -187, 196
1.374176, -1135, 219, -1838, -101, -187, 199
1.375189, -1144, 208, -1829, -110, -188, 202
1.376203, -1154, 199, -1824, -118, -190, 203
1.377216, -1166, 193, -1819, -124, -193, 206
1.378229, -1177, 187, -1813, -129, -196, 210
1.379243, -1185, 181, -1813, -134, -199, 215
1.380257, -1190, 179, -1817, -141, -204, 220
1.381270, -1194, 180, -1817, -148, -209, 224
1.382283, -1200, 180, -1817, -153, -210, 231
1.383297, -1205, 175, -1823, -159, -208, 239
1.384310, -1205, 173, -1828, -167, -209, 246
1.385323, -1204, 176, -1829, -176, -213, 252
1.386337, -1201, 177, -1824, -183, -216, 260
1.387350, -1195, 177, -1815, -191, -216, 267
1.388364, -1186, 178, -1807, -199, -215, 273
1.389377, -1174, 177, -1799, -207, -213, 279
1.390391, -1162, 175, -1786, -213, -211, 284
1.391404, -1151, 176, -1770, -220, -210, 289
1.392418, -1140, 177, -1753, -226, -208, 292
1.393431, -1128, 177, -1739, -230, -204, 293
1.394445, -1119, 183, -1726, -233, -200, 296
1.395458, -1113, 192, -1713, -237, -197, 297
1.396471, -1110, 196, -1700, -240, -194, 297
1.397485, -1108, 198, -1691, -243, -191, 296
1.398498, -1111, 202, -1681, -246, -188, 297
1.399512, -1119, 208, -1669, -247, -184, 297
1.400526, -1125, 214, -1659, -249, -182, 298
1.401539, -1128, 219, -1657, -250, -180, 298
1.402552, -1129, 222, -1655, -251, -179, 299
1.403565, -1131, 225, -1649, -251, -178, 300
1.404579, -1130, 230, -1643, -251, -178, 302
1.405593, -1127, 234, -1643, -250, -176, 303
1.406606, -1129, 237, -1649, -251, -175, 302
1.407620, -1132, 242, -1657, -251, -175, 301
1.408633, -1131, 249, -1667, -252, -174, 303
1.409646, -1131, 256, -1675, -254, -174, 305
1.410660, -1132, 260, -1679, -255, -173, 304
1.411673, -1133, 263, -1681, -257, -171, 304
1.412686, -1137, 269, -1682, -260, -169, 305
1.413700, -1139, 280, -1683, -262, -169, 307
1.414713, -1133, 287, -1683, -263, -168, 307
1.415728, -1126, 290, -1680, -264, -166, 308
1.416740, -1125, 292, -1677, -267, -164, 308
1.417754, -1125, 295, -1676, -269, -162, 308
1.418767, -1124, 296, -1674, -270, -160, 307
1.419780, -1121, 300, -1672, -270, -158, 306
1.420794, -1119, 306, -1670, -271, -156, 305
1.421808, -1121, 308, -1666, -273, -153, 304
1.422827, -1123, 311, -1657, -274, -151, 302
1.423835, -1123, 318, -1648, -273, -151, 302
1.424850, -1127, 326, -1641, -273, -151, 302
1.425862, -1130, 333, -1634, -274, -150, 300
1.426875, -1126, 339, -1624, -273, -149, 299
1.427888, -1123, 344, -1612, -270, -149, 299
1.428902, -1122, 349, -1603, -266, -148, 298
1.429916, -1122, 355, -1593, -264, -147, 296
1.430929, -1121, 358, -1577, -261, -147, 296
1.431942, -1118, 359, -1559, -255, -146, 296
1.432955, -1112, 360, -1546, -249, -145, 295
1.433969, -1106, 361, -1535, -242, -144, 293
1.434982, -1103, 366, -1525, -235, -143, 291
1.435996, -1103, 366, -1520, -228, -141, 288
1.437009, -1103, 362, -1515, -222, -140, 284
1.438022, -1105, 363, -1506, -215, -139, 283
1.439036, -1101, 365, -1488, -208, -140, 281
1.440049, -1095, 359, -1464, -197, -138, 278
1.441063, -1097, 350, -1446, -182, -133, 274
1.442078, -1107, 344, -1443, -166, -131, 270
1.443090, -1119, 341, -1448, -151, -136, 265
1.444104, -1135, 346, -1455, -135, -145, 263
1.445117, -1154, 352, -1466, -120, -150, 261
1.446130, -1170, 356, -1481, -105, -151, 262
1.447144, -1180, 359, -1502, -93, -151, 264
1.448157, -1190, 363, -1525, -81, -154, 266
1.449170, -1194, 368, -1544, -70, -157, 269
1.450184, -1189, 372, -1561, -61, -160, 272
1.451197, -1182, 373, -1575, -54, -163, 275
1.452211, -1176, 373, -1581, -47, -167, 276
1.453224, -1167, 374, -1588, -40, -172, 277
1.454238, -1155, 373, -1596, -34, -177, 277
1.455251, -1147, 374, -1598, -30, -180, 275
1.456265, -1139, 377, -1598, -24, -181, 274
1.457278, -1131, 381, -1598, -18, -183, 272
1.458291, -1124, 385, -1599, -14, -184, 270
1.459305, -1119, 391, -1598, -9, -185, 267
1.460318, -1117, 395, -1595, -5, -185, 264
1.461332, -1117, 399, -1594, -1, -184, 262
1.462345, -1121, 402, -1592, 3, -183, 260
1.463359, -1124, 406, -1590, 6, -182, 257
1.464372, -1124, 411, -1588, 10, -181, 254
1.465386, -1125, 415, -1587, 14, -182, 253
1.466399, -1126, 418, -1588, 17, -184, 250
1.467412, -1126, 421, -1587, 19, -186, 247
1.468426, -1123, 420, -1583, 22, -188, 246
1.469439, -1118, 420, -1579, 26, -189, 244
1.470452, -1113, 421, -1576, 30, -191, 241
1.471466, -1105, 422, -1577, 35, -193, 236
1.472480, -1099, 425, -1584, 40, -196, 231
1.473493, -1097, 427, -1595, 44, -200, 227
1.474507, -1096, 426, -1608, 47, -203, 223
1.475520, -1095, 427, -1617, 51, -206, 219
1.476533, -1100, 430, -1624, 54, -209, 215
1.477547, -1108, 431, -1634, 55, -211, 211
1.478560, -1111, 433, -1643, 56, -214, 208
1.479574, -1111, 433, -1650, 56, -217, 204
1.480587, -1115, 432, -1654, 56, -220, 200
1.481601, -1120, 429, -1655, 56, -225, 196
1.482615, -1124, 426, -1658, 54, -229, 193
1.483627, -1129, 419, -1664, 53, -233, 192
1.484641, -1134, 412, -1668, 52, -237, 189
1.485654, -1136, 408, -1669, 50, -240, 186
1.486668, -1140, 403, -1672, 48, -243, 184
1.487682, -1147, 397, -1679, 45, -243, 182
1.488695, -1151, 392, -1689, 42, -241, 179
1.489708, -1153, 387, -1695, 38, -237, 177
1.490722, -1159, 383, -1701, 32, -233, 175
1.491735, -1166, 377, -1708, 25, -227, 175
1.492748, -1173, 369, -1710, 18, -222, 174
1.493762, -1179, 361, -1705, 11, -221, 174
1.494775, -1184, 351, -1700, 4, -220, 174
1.495789, -1191, 340, -1693, -1, -219, 174
1.496802, -1201, 330, -1687, -5, -217, 174
1.497815, -1215, 317, -1685, -9, -217, 175
1.498829, -1230, 307, -1688, -13, -217, 179
1.499843, -1240, 302, -1691, -17, -217, 181
1.500856, -1251, 297, -1691, -20, -219, 185
1.501869, -1262, 288, -1694, -23, -220, 191
1.502883, -1269, 279, -1701, -25, -221, 196
1.503898, -1275, 274, -1710, -29, -222, 202
1.504910, -1281, 269, -1727, -32, -223, 210
1.505923, -1281, 264, -1747, -35, -223, 218
1.506937, -1278, 257, -1765, -41, -223, 225
1.507950, -1271, 251, -1783, -49, -223, 232
1.508965, -1263, 244, -1799, -57, -223, 240
1.509979, -1257, 236, -1811, -66, -223, 247
1.510991, -1250, 232, -1824, -75, -223, 254
1.512004, -1242, 232, -1835, -86, -223, 260
1.513017, -1233, 229, -1841, -96, -224, 266
1.514031, -1220, 224, -1845, -105, -223, 271
1.515044, -1211, 223, -1849, -115, -222, 276
1.516058, -1207, 223, -1850, -125, -222, 280
1.517075, -1202, 222, -1849, -137, -223, 283
1.518086, -1201, 219, -1843, -146, -222, 286
1.519097, -1206, 216, -1838, -156, -221, 290
1.520111, -1210, 213, -1837, -165, -221, 294
1.521125, -1213, 209, -1833, -174, -221, 298
1.522139, -1220, 209, -1827, -183, -224, 301
1.523152, -1231, 213, -1821, -192, -226, 305
1.524165, -1241, 215, -1816, -200, -228, 310
1.525179, -1249, 219, -1813, -208, -231, 316
1.526192, -1253, 229, -1806, -216, -234, 322
1.527205, -1249, 240, -1793, -226, -235, 328
1.528219, -1235, 250, -1775, -236, -233, 335
1.529232, -1213, 261, -1754, -245, -226, 344
1.530246, -1184, 278, -1723, -255, -216, 352
1.531259, -1151, 293, -1679, -265, -204, 358
1.532273, -1112, 301, -1623, -275, -188, 360
1.533286, -1071, 305, -1561, -282, -169, 359
1.534302, -1035, 306, -1499, -285, -148, 357
1.535315, -1008, 302, -1448, -284, -126, 351
1.536327, -995, 296, -1410, -279, -106, 342
1.537340, -1000, 293, -1383, -271, -87, 329
1.538354, -1017, 299, -1368, -263, -71, 315
1.539367, -1042, 309, -1360, -256, -58, 301
1.540381, -1077, 318, -1357, -248, -49, 291
1.541394, -1117, 328, -1354, -238, -42, 280
1.542408, -1158, 343, -1355, -225, -38, 272
1.543420, -1198, 357, -1362, -213, -36, 268
1.544434, -1235, 369, -1373, -200, -37, 266
1.545447, -1266, 379, -1391, -187, -39, 266
1.546461, -1288, 386, -1413, -174, -43, 269
1.547474, -1303, 390, -1438, -162, -48, 273
1.548488, -1311, 392, -1463, -152, -53, 278
1.549502, -1311, 394, -1483, -144, -58, 280
1.550515, -1307, 395, -1499, -136, -62, 282
1.551528, -1301, 395, -1516, -130, -65, 283
1.552542, -1294, 394, -1533, -127, -67, 284
1.553555, -1288, 390, -1544, -124, -67, 283
1.554568, -1286, 387, -1551, -122, -64, 282
1.555582, -1285, 388, -1559, -120, -61, 281
1.556595, -1290, 391, -1568, -121, -56, 280
1.557609, -1298, 395, -1573, -123, -49, 281
1.558622, -1295, 400, -1569, -127, -43, 283
1.559636, -1286, 400, -1561, -132, -35, 285
1.560649, -1284, 400, -1550, -136, -24, 287
1.561663, -1284, 401, -1537, -139, -14, 289
1.562676, -1279, 400, -1527, -142, -3, 292
1.563689, -1273, 401, -1522, -145, 9, 293
1.564703, -1267, 404, -1514, -147, 20, 294
1.565716, -1264, 406, -1502, -150, 30, 297
1.566730, -1261, 405, -1489, -151, 39, 300
1.567744, -1258, 407, -1477, -151, 49, 301
1.568757, -1252, 413, -1467, -148, 60, 303
1.569770, -1243, 420, -1461, -145, 69, 307
1.570784, -1231, 425, -1459, -140, 76, 311
1.571797, -1217, 427, -1459, -134, 81, 314
1.572810, -1203, 432, -1462, -128, 86, 317
1.573824, -1185, 441, -1466, -122, 90, 318
1.574838, -1162, 448, -1475, -113, 94, 319
1.575851, -1141, 449, -1484, -104, 98, 320
1.576864, -1121, 450, -1492, -95, 101, 321
1.577877, -1098, 452, -1506, -86, 104, 319
1.578891, -1074, 455, -1523, -76, 106, 317
1.579905, -1049, 456, -1543, -67, 108, 314
1.580918, -1025, 454, -1569, -58, 111, 310
1.581931, -1006, 453, -1599, -50, 113, 305
1.582945, -992, 454, -1631, -43, 114, 299
1.583959, -977, 453, -1666, -38, 116, 292
1.584972, -963, 449, -1705, -33, 118, 284
1.585985, -950, 446, -1744, -29, 119, 278
1.586999, -942, 446, -1786, -28, 119, 272
1.588012, -936, 442, -1829, -29, 120, 265
1.589026, -934, 434, -1871, -33, 120, 258
1.590039, -934, 430, -1914, -38, 120, 251
1.591052, -934, 425, -1959, -46, 119, 245
1.592066, -934, 417, -2000, -55, 119, 239
1.593079, -939, 411, -2037, -66, 118, 234
1.594093, -946, 407, -2072, -78, 115, 229
1.595106, -949, 402, -2104, -92, 113, 225
1.596121, -950, 400, -2138, -108, 112, 222
1.597133, -953, 398, -2166, -125, 110, 221
1.598146, -955, 393, -2187, -142, 108, 219
1.599160, -955, 387, -2209, -160, 105, 216
1.600173, -953, 381, -2233, -180, 104, 215
1.601187, -951, 376, -2253, -201, 102, 215
1.602200, -946, 373, -2269, -222, 102, 216
1.603213, -939, 368, -2285, -244, 102, 216
1.604227, -931, 364, -2302, -267, 102, 215
1.605240, -925, 363, -2317, -291, 104, 213
1.606254, -919, 361, -2331, -315, 107, 210
1.607268, -911, 357, -2346, -340, 112, 207
1.608281, -910, 353, -2359, -367, 117, 204
1.609294, -915, 350, -2368, -393, 121, 201
1.610311, -921, 350, -2377, -419, 127, 198
1.611322, -924, 347, -2386, -447, 133, 196
1.612337, -932, 340, -2392, -477, 139, 192
1.613348, -946, 337, -2393, -507, 145, 189
1.614361, -961, 338, -2389, -538, 150, 188
1.615375, -974, 337, -2383, -570, 155, 187
1.616389, -984, 336, -2370, -601, 160, 186
1.617402, -998, 338, -2350, -633, 164, 185
1.618416, -1014, 340, -2325, -664, 166, 184
1.619424, -1025, 341, -2294, -693, 168, 186
1.620442, -1030, 343, -2255, -721, 168, 188
1.621456, -1039, 344, -2210, -747, 167, 190
1.622469, -1049, 348, -2164, -773, 168, 192
1.623482, -1053, 351, -2113, -796, 167, 192
1.624496, -1052, 354, -2055, -816, 167, 193
1.625510, -1049, 358, -1994, -833, 167, 194
1.626523, -1045, 362, -1932, -848, 167, 195
1.627536, -1038, 362, -1867, -859, 166, 194
1.628550, -1030, 360, -1804, -867, 166, 193
1.629563, -1032, 360, -1748, -872, 168, 191
1.630577, -1042, 361, -1699, -874, 169, 189
1.631590, -1052, 363, -1657, -874, 169, 185
1.632604, -1060, 365, -1620, -872, 168, 183
1.633617, -1071, 367, -1580, -870, 166, 183
1.634631, -1082, 364, -1537, -866, 164, 182
1.635644, -1089, 360, -1497, -858, 162, 179
1.636657, -1097, 358, -1466, -848, 159, 177
1.637671, -1107, 355, -1439, -839, 155, 175
1.638684, -1114, 352, -1409, -827, 149, 174
1.639697, -1123, 353, -1379, -813, 144, 173
1.640711, -1136, 354, -1354, -798, 139, 172
1.641724, -1150, 353, -1334, -782, 136, 171
1.642738, -1164, 352, -1316, -765, 134, 170
1.643752, -1176, 350, -1303, -747, 131, 171
1.644765, -1187, 348, -1295, -729, 127, 174
1.645778, -1198, 349, -1286, -711, 125, 176
1.646792, -1207, 349, -1277, -692, 123, 179
1.647805, -1215, 348, -1272, -674, 123, 183
1.648818, -1222, 350, -1268, -657, 121, 186
1.649832, -1228, 349, -1264, -640, 119, 190
1.650846, -1230, 345, -1255, -624, 118, 195
1.651859, -1229, 344, -1250, -607, 117, 200
1.652872, -1230, 347, -1252, -589, 116, 205
1.653886, -1236, 349, -1256, -573, 117, 209
1.654899, -1240, 353, -1261, -557, 117, 214
1.655913, -1243, 363, -1268, -541, 116, 219
1.656926, -1248, 371, -1278, -525, 116, 222
1.657939, -1251, 381, -1288, -511, 117, 226
1.658953, -1251, 396, -1298, -497, 118, 231
1.659966, -1250, 408, -1307, -484, 120, 238
1.660980, -1248, 416, -1315, -471, 122, 245
1.661993, -1244, 425, -1320, -460, 122, 251
1.663007, -1236, 439, -1325, -449, 122, 256
1.664020, -1223, 453, -1329, -438, 122, 261
1.665034, -1212, 463, -1332, -425, 122, 265
1.666047, -1205, 474, -1339, -413, 122, 268
1.667060, -1194, 487, -1346, -401, 122, 270
1.668074, -1184, 499, -1350, -389, 121, 270
1.669087, -1177, 512, -1351, -377, 119, 271
1.670101, -1169, 525, -1352, -365, 118, 272
1.671114, -1162, 539, -1358, -355, 116, 272
1.672128, -1158, 552, -1367, -343, 114, 269
1.673141, -1155, 566, -1374, -333, 111, 268
1.674155, -1152, 576, -1380, -322, 109, 268
1.675168, -1148, 585, -1387, -311, 108, 267
1.676182, -1142, 596, -1392, -302, 107, 266
1.677195, -1132, 607, -1395, -292, 105, 265
1.678208, -1123, 618, -1395, -283, 104, 262
1.679222, -1117, 626, -1392, -274, 103, 260
1.680235, -1109, 628, -1386, -265, 102, 259
1.681249, -1100, 631, -1378, -257, 103, 258
1.682262, -1090, 633, -1362, -248, 105, 254
1.683276, -1077, 630, -1339, -238, 107, 250
1.684289, -1068, 627, -1312, -227, 108, 246
1.685303, -1061, 624, -1287, -215, 111, 241
1.686316, -1058, 617, -1267, -201, 116, 237
1.687329, -1059, 613, -1257, -184, 119, 232
1.688343, -1064, 619, -1269, -166, 125, 226
1.689356, -1071, 628, -1302, -148, 132, 221
1.690370, -1081, 638, -1348, -134, 138, 218
1.691383, -1092, 648, -1396, -122, 139, 214
1.692396, -1102, 654, -1431, -114, 139, 213
1.693410, -1109, 657, -1451, -109, 139, 213
1.694424, -1114, 659, -1466, -104, 139, 213
1.695437, -1116, 662, -1473, -99, 140, 211
1.696450, -1111, 665, -1477, -93, 140, 211
1.697464, -1106, 668, -1484, -88, 139, 210
1.698477, -1106, 671, -1492, -81, 138, 209
1.699491, -1108, 674, -1500, -74, 136, 207
1.700504, -1109, 676, -1513, -68, 132, 205
1.701518, -1109, 678, -1525, -63, 128, 203
1.702531, -1110, 683, -1534, -58, 125, 202
1.703544, -1111, 694, -1544, -54, 120, 201
1.704558, -1111, 702, -1554, -50, 115, 199
1.705575, -1110, 703, -1558, -45, 111, 197
1.706586, -1111, 707, -1557, -41, 108, 196
1.707598, -1110, 711, -1557, -37, 104, 194
1.708612, -1106, 711, -1561, -32, 100, 192
1.709625, -1103, 713, -1568, -28, 97, 189
1.710639, -1105, 717, -1573, -23, 94, 187
1.711652, -1106, 717, -1577, -18, 92, 186
1.712666, -1105, 717, -1582, -15, 89, 185
1.713679, -1107, 720, -1585, -11, 87, 182
1.714692, -1112, 724, -1587, -7, 86, 179
1.715706, -1114, 726, -1587, -5, 84, 177
1.716719, -1116, 727, -1586, -3, 81, 176
1.717733, -1118, 725, -1586, 0, 79, 176
1.718746, -1120, 727, -1585, 4, 78, 174
1.719760, -1120, 732, -1585, 7, 75, 173
1.720773, -1117, 736, -1587, 11, 73, 171
1.721787, -1111, 742, -1586, 14, 71, 170
1.722800, -1106, 744, -1588, 17, 69, 169
1.723813, -1096, 744, -1590, 22, 66, 167
1.724826, -1086, 746, -1592, 28, 63, 164
1.725841, -1081, 750, -1594, 33, 59, 160
1.726853, -1076, 751, -1595, 37, 56, 156
1.727867, -1073, 752, -1602, 42, 53, 152
1.728880, -1074, 756, -1614, 48, 49, 148
1.729894, -1075, 760, -1625, 54, 44, 143
1.730907, -1076, 764, -1633, 58, 39, 137
1.731921, -1080, 766, -1644, 61, 33, 131
1.732934, -1082, 768, -1653, 63, 27, 126
1.733947, -1085, 773, -1658, 65, 21, 121
1.734963, -1090, 776, -1660, 67, 15, 117
1.735975, -1092, 776, -1661, 70, 9, 114
1.736988, -1087, 781, -1663, 73, 3, 110
1.738001, -1082, 787, -1662, 75, -4, 107
1.739015, -1075, 790, -1659, 77, -10, 104
1.740028, -1070, 791, -1656, 78, -16, 100
1.741042, -1065, 791, -1650, 81, -22, 95
1.742055, -1055, 791, -1644, 85, -29, 89
1.743069, -1045, 790, -1635, 89, -35, 84
1.744082, -1036, 791, -1624, 92, -41, 78
1.745095, -1030, 789, -1613, 96, -48, 70
1.746109, -1027, 784, -1605, 103, -55, 63
1.747123, -1025, 779, -1596, 111, -63, 55
1.748136, -1023, 776, -1586, 118, -70, 47
1.749149, -1023, 772, -1582, 125, -75, 39
1.750163, -1026, 766, -1578, 134, -81, 32
1.751176, -1028, 759, -1574, 141, -89, 26
1.752189, -1030, 748, -1578, 149, -96, 18
1.753203, -1032, 739, -1586, 158, -102, 11
1.754217, -1035, 733, -1593, 166, -109, 6
1.755230, -1041, 725, -1605, 174, -115, 1
1.756244, -1050, 714, -1623, 180, -121, -4
1.757257, -1059, 704, -1643, 185, -126, -9
1.758270, -1064, 695, -1662, 188, -132, -13
1.759283, -1070, 686, -1678, 188, -138, -16
1.760297, -1076, 679, -1690, 188, -142, -18
1.761310, -1079, 672, -1698, 188, -146, -20
1.762324, -1082, 665, -1705, 186, -150, -22
1.763337, -1087, 661, -1710, 183, -156, -23
1.764351, -1086, 655, -1711, 179, -161, -24
1.765364, -1081, 647, -1709, 177, -165, -26
1.766378, -1078, 640, -1712, 174, -167, -28
1.767391, -1074, 632, -1714, 171, -171, -30
1.768405, -1069, 626, -1715, 169, -176, -32
1.769418, -1064, 623, -1721, 167, -179, -34
1.770431, -1060, 619, -1731, 163, -182, -36
1.771445, -1057, 617, -1739, 159, -186, -38
1.772459, -1052, 616, -1745, 154, -190, -40
1.773472, -1047, 615, -1756, 146, -192, -43
1.774485, -1042, 615, -1764, 137, -193, -46
1.775499, -1037, 612, -1766, 127, -194, -49
1.776512, -1031, 605, -1764, 117, -195, -52
1.777526, -1025, 601, -1760, 106, -196, -55
1.778539, -1019, 598, -1753, 97, -198, -59
1.779553, -1014, 591, -1744, 87, -198, -63
1.780566, -1009, 583, -1734, 79, -199, -67
1.781579, -1008, 575, -1722, 72, -199, -71
1.782593, -1010, 568, -1710, 65, -201, -76
1.783609, -1010, 562, -1701, 59, -202, -82
1.784620, -1007, 555, -1695, 53, -202, -87
1.785633, -1010, 546, -1686, 48, -202, -90
1.786647, -1017, 536, -1674, 42, -203, -94
1.787660, -1021, 526, -1665, 36, -205, -98
1.788673, -1021, 517, -1655, 31, -205, -102
1.789687, -1022, 510, -1642, 27, -207, -105
1.790701, -1028, 502, -1626, 23, -208, -109
1.791714, -1035, 496, -1608, 19, -209, -112
1.792727, -1040, 487, -1589, 16, -209, -114
1.793741, -1045, 475, -1565, 15, -209, -115
1.794754, -1053, 464, -1540, 15, -208, -117
1.795768, -1058, 453, -1521, 16, -208, -119
1.796781, -1059, 441, -1504, 17, -208, -120
1.797795, -1060, 431, -1487, 20, -205, -119
1.798808, -1063, 423, -1472, 24, -203, -120
1.799821, -1064, 416, -1455, 28, -201, -120
1.800838, -1062, 405, -1438, 32, -197, -120
1.801851, -1062, 392, -1423, 38, -194, -121
1.802862, -1066, 381, -1413, 44, -191, -121
1.803875, -1074, 370, -1403, 49, -187, -121
1.804889, -1082, 358, -1394, 55, -183, -120
1.805902, -1089, 346, -1390, 61, -179, -120
1.806915, -1098, 335, -1392, 67, -175, -119
1.807929, -1108, 326, -1392, 73, -171, -117
1.808942, -1118, 316, -1392, 78, -169, -115
1.809956, -1128, 305, -1395, 83, -166, -112
1.810969, -1139, 297, -1398, 88, -162, -108
1.811983, -1154, 294, -1403, 93, -159, -104
1.812996, -1168, 287, -1414, 98, -156, -100
1.814009, -1179, 273, -1432, 101, -152, -93
1.815023, -1188, 261, -1451, 103, -148, -85
1.816036, -1193, 254, -1468, 102, -143, -76
1.817050, -1193, 247, -1482, 100, -138, -67
1.818063, -1192, 239, -1493, 98, -133, -60
1.819077, -1192, 233, -1509, 95, -127, -53
1.820091, -1191, 230, -1532, 91, -121, -46
1.821104, -1189, 226, -1555, 85, -114, -38
1.822117, -1187, 222, -1577, 78, -106, -30
1.823131, -1185, 219, -1596, 69, -98, -22
1.824144, -1181, 219, -1611, 59, -88, -15
1.825158, -1176, 221, -1625, 48, -79, -8
1.826171, -1173, 224, -1633, 37, -69, -2
1.827184, -1167, 229, -1636, 25, -59, 4
1.828198, -1159, 236, -1633, 13, -48, 10
1.829211, -1156, 244, -1623, -1, -37, 16
1.830225, -1152, 249, -1610, -13, -25, 22
1.831238, -1145, 253, -1594, -23, -14, 28
1.832251, -1139, 258, -1574, -31, -4, 32
1.833265, -1139, 262, -1556, -38, 8, 37
1.834278, -1141, 264, -1540, -44, 18, 41
1.835292, -1141, 263, -1523, -47, 28, 44
1.836305, -1144, 262, -1508, -48, 37, 48
1.837319, -1154, 262, -1501, -48, 45, 53
1.838332, -1167, 262, -1499, -46, 51, 58
1.839345, -1180, 262, -1498, -42, 57, 63
1.840359, -1190, 261, -1499, -40, 62, 70
1.841372, -1200, 260, -1504, -36, 65, 78
1.842386, -1211, 259, -1514, -32, 68, 87
1.843399, -1217, 258, -1529, -28, 71, 95
1.844413, -1222, 258, -1546, -24, 75, 103
1.845426, -1226, 258, -1561, -21, 78, 113
1.846439, -1228, 255, -1576, -18, 82, 122
1.847453, -1225, 251, -1593, -14, 85, 131
1.848467, -1219, 250, -1610, -10, 87, 140
1.849480, -1216, 251, -1625, -6, 89, 149
1.850493, -1217, 251, -1639, -3, 92, 156
1.851507, -1218, 251, -1655, 1, 93, 163
1.852520, -1221, 254, -1672, 4, 94, 169
1.853533, -1224, 261, -1685, 7, 96, 175
1.854547, -1227, 267, -1697, 9, 96, 181
1.855560, -1228, 274, -1712, 12, 97, 188
1.856574, -1229, 283, -1725, 14, 97, 196
1.857588, -1236, 291, -1738, 16, 95, 202
1.858601, -1246, 299, -1753, 19, 94, 209
1.859615, -1250, 310, -1769, 20, 92, 216
1.860628, -1250, 316, -1783, 21, 90, 223
1.861641, -1254, 318, -1799, 20, 87, 230
1.862654, -1256, 322, -1814, 19, 85, 237
1.863668, -1258, 328, -1827, 18, 83, 244
1.864682, -1257, 334, -1845, 16, 80, 251
1.865695, -1254, 339, -1867, 13, 80, 258
1.866708, -1251, 344, -1885, 9, 79, 264
1.867722, -1246, 350, -1897, 5, 78, 268
1.868735, -1239, 356, -1910, -1, 77, 272
1.869749, -1234, 358, -1927, -8, 76, 276
1.870762, -1233, 362, -1941, -17, 76, 280
1.871776, -1233, 365, -1950, -25, 74, 283
1.872789, -1235, 370, -1957, -32, 71, 286
1.873802, -1239, 376, -1964, -40, 68, 288
1.874816, -1243, 380, -1968, -49, 67, 291
1.875829, -1242, 380, -1971, -59, 66, 294
1.876843, -1246, 384, -1976, -68, 64, 296
1.877856, -1250, 389, -1981, -76, 61, 298
1.878869, -1255, 395, -1984, -84, 57, 300
1.879883, -1260, 400, -1988, -92, 54, 303
1.880897, -1260, 408, -1993, -103, 51, 307
1.881910, -1257, 415, -1993, -113, 50, 311
1.882924, -1253, 420, -1989, -123, 49, 313
1.883937, -1244, 424, -1981, -133, 47, 315
1.884950, -1234, 428, -1968, -142, 45, 317
1.885964, -1227, 431, -1952, -150, 42, 319
1.886977, -1221, 434, -1940, -157, 38, 320
1.887991, -1214, 437, -1930, -161, 34, 321
1.889004, -1212, 438, -1924, -163, 30, 319
1.890018, -1214, 441, -1922, -165, 26, 316
1.891031, -1213, 446, -1918, -169, 22, 315
1.892045, -1212, 452, -1909, -170, 19, 314
1.893058, -1211, 456, -1901, -171, 16, 313
1.894072, -1212, 461, -1898, -173, 12, 312
1.895085, -1215, 466, -1893, -173, 6, 312
1.896098, -1221, 470, -1886, -172, 0, 311
1.897112, -1225, 468, -1877, -171, -6, 310
1.898129, -1226, 464, -1871, -171, -14, 310
1.899140, -1228, 467, -1867, -171, -21, 309
1.900153, -1230, 473, -1860, -168, -28, 310
1.901165, -1230, 472, -1853, -165, -35, 311
1.902179, -1230, 472, -1852, -162, -43, 310
1.903192, -1230, 478, -1850, -159, -51, 310
1.904200, -1230, 482, -1844, -156, -58, 312
1.905221, -1229, 483, -1842, -153, -64, 313
1.906233, -1223, 483, -1846, -150, -71, 313
1.907246, -1215, 486, -1849, -146, -76, 313
1.908260, -1210, 490, -1851, -144, -82, 314
1.909273, -1205, 492, -1849, -142, -87, 314
1.910286, -1199, 493, -1849, -140, -90, 315
1.911300, -1193, 495, -1851, -138, -94, 316
1.912313, -1187, 497, -1848, -137, -98, 315
1.913327, -1182, 499, -1845, -135, -102, 313
1.914340, -1177, 501, -1847, -134, -105, 312
1.915354, -1173, 502, -1852, -133, -109, 311
1.916367, -1172, 504, -1858, -132, -113, 309
1.917381, -1174, 509, -1865, -132, -117, 308
1.918394, -1178, 511, -1871, -133, -121, 308
1.919407, -1180, 514, -1879, -135, -124, 307
1.920421, -1183, 520, -1888, -138, -126, 307
1.921435, -1187, 525, -1896, -141, -129, 307
1.922448, -1187, 527, -1903, -144, -132, 305
1.923461, -1190, 528, -1911, -150, -134, 304
1.924474, -1194, 530, -1917, -158, -136, 305
1.925488, -1194, 534, -1920, -165, -138, 308
1.926501, -1192, 537, -1919, -174, -137, 309
1.927515, -1188, 539, -1911, -186, -136, 309
1.928529, -1184, 538, -1901, -196, -135, 308
1.929542, -1181, 538, -1890, -204, -135, 309
1.930556, -1179, 540, -1881, -212, -135, 309
1.931569, -1179, 539, -1873, -220, -135, 307
1.932582, -1181, 540, -1864, -227, -136, 306
1.933595, -1181, 544, -1850, -234, -136, 305
1.934609, -1180, 548, -1832, -240, -135, 305
1.935624, -1180, 552, -1815, -246, -133, 305
1.936636, -1181, 556, -1802, -252, -132, 305
1.937649, -1177, 560, -1790, -257, -131, 304
1.938663, -1172, 565, -1777, -261, -129, 304
1.939676, -1166, 567, -1760, -263, -128, 303
1.940690, -1160, 568, -1745, -266, -127, 302
1.941703, -1156, 569, -1735, -268, -126, 300
1.942717, -1152, 571, -1722, -268, -125, 299
1.943730, -1147, 575, -1709, -267, -125, 297
1.944743, -1141, 583, -1702, -264, -125, 295
1.945757, -1139, 586, -1696, -262, -124, 291
1.946770, -1140, 587, -1691, -259, -125, 288
1.947784, -1138, 593, -1691, -256, -126, 285
1.948797, -1134, 603, -1691, -251, -127, 282
1.949811, -1130, 610, -1689, -247, -128, 277
1.950824, -1126, 616, -1689, -243, -130, 273
1.951837, -1123, 624, -1684, -238, -132, 270
1.952851, -1120, 630, -1677, -235, -135, 266
1.953864, -1117, 638, -1672, -231, -138, 261
1.954878, -1116, 646, -1668, -225, -142, 256
1.955891, -1112, 652, -1660, -218, -148, 252
1.956905, -1105, 655, -1653, -212, -152, 246
1.957918, -1100, 658, -1647, -204, -156, 240
1.958932, -1094, 663, -1640, -196, -159, 234
1.959945, -1086, 667, -1634, -188, -164, 227
1.960959, -1077, 672, -1628, -180, -170, 220
1.961972, -1069, 677, -1619, -170, -175, 214
1.962985, -1061, 681, -1612, -161, -179, 206
1.963999, -1059, 685, -1609, -150, -184, 198
1.965012, -1057, 689, -1602, -140, -189, 189
1.966026, -1053, 691, -1594, -130, -194, 181
1.967039, -1049, 690, -1585, -120, -199, 172
1.968053, -1049, 688, -1576, -109, -204, 163
1.969066, -1050, 690, -1569, -97, -209, 154
1.970079, -1052, 695, -1561, -85, -214, 145
1.971093, -1054, 698, -1556, -73, -219, 137
1.972106, -1055, 698, -1554, -61, -225, 128
1.973120, -1055, 696, -1550, -48, -230, 121
1.974133, -1053, 698, -1544, -35, -234, 114
1.975147, -1052, 702, -1538, -24, -237, 107
1.976160, -1048, 702, -1532, -11, -239, 100
1.977174, -1045, 700, -1526, 0, -242, 92
1.978187, -1044, 698, -1521, 11, -245, 84
1.979200, -1044, 694, -1515, 22, -248, 75
1.980214, -1046, 691, -1510, 33, -249, 67
1.981227, -1049, 689, -1509, 44, -250, 59
1.982242, -1053, 687, -1508, 54, -251, 51
1.983255, -1061, 682, -1507, 64, -253, 45
1.984268, -1074, 678, -1509, 74, -254, 38
1.985281, -1085, 677, -1513, 83, -255, 32
1.986294, -1089, 677, -1514, 91, -256, 26
1.987308, -1095, 675, -1517, 99, -256, 21
1.988321, -1107, 672, -1521, 106, -256, 18
1.989335, -1116, 671, -1525, 113, -257, 15
1.990348, -1123, 669, -1530, 118, -258, 12
1.991361, -1126, 667, -1536, 124, -258, 10
1.992375, -1128, 664, -1541, 127, -259, 8
1.993389, -1132, 659, -1544, 129, -259, 7
1.994402, -1136, 655, -1550, 132, -259, 6
1.995415, -1138, 652, -1556, 135, -259, 4
1.996432, -1142, 652, -1563, 135, -259, 3
1.997444, -1146, 653, -1570, 134, -258, 3
1.998457, -1146, 653, -1577, 134, -257, 3
1.999470, -1145, 651, -1583, 134, -256, 2
2.000484, -1144, 647, -1585, 132, -254, 2
2.001496, -1140, 644, -1585, 129, -252, 2
2.002509, -1135, 644, -1585, 125, -250, 2
2.003523, -1133, 644, -1584, 121, -249, 1
2.004538, -1132, 643, -1580, 118, -246, 1
2.005550, -1127, 643, -1574, 116, -243, 1
2.006563, -1121, 641, -1569, 112, -241, 1
2.007577, -1120, 642, -1562, 110, -239, 0
2.008590, -1119, 643, -1555, 108, -237, -2
2.009606, -1114, 640, -1550, 107, -235, -3
2.010620, -1113, 636, -1550, 106, -233, -5
2.011631, -1115, 635, -1551, 104, -232, -5
2.012644, -1118, 634, -1552, 102, -230, -4
2.013657, -1118, 632, -1556, 100, -226, -5
2.014671, -1117, 627, -1561, 99, -223, -6
2.015686, -1114, 624, -1564, 97, -221, -6
2.016698, -1108, 623, -1567, 94, -219, -6
2.017711, -1104, 621, -1573, 91, -218, -6
2.018725, -1102, 617, -1579, 88, -218, -7
2.019738, -1100, 612, -1583, 85, -217, -8
2.020752, -1098, 608, -1587, 82, -216, -8
2.021770, -1097, 608, -1591, 78, -216, -9
2.022781, -1094, 608, -1594, 74, -215, -10
2.023796, -1092, 608, -1597, 71, -213, -10
2.024815, -1090, 608, -1601, 66, -212, -11
2.025820, -1090, 607, -1605, 62, -210, -12
2.026841, -1089, 605, -1609, 56, -209, -13
2.027853, -1087, 604, -1614, 50, -207, -13
2.028862, -1084, 602, -1615, 43, -206, -14
2.029879, -1079, 599, -1614, 36, -204, -15
2.030888, -1079, 598, -1615, 29, -203, -15
2.031899, -1081, 598, -1613, 21, -201, -14
2.032912, -1076, 599, -1607, 12, -198, -15
2.033926, -1068, 599, -1600, 4, -194, -15
2.034939, -1062, 595, -1589, -2, -190, -14
2.035953, -1056, 594, -1576, -10, -188, -15
2.036966, -1049, 592, -1559, -18, -184, -17
2.037980, -1042, 584, -1539, -23, -179, -17
2.038993, -1036, 575, -1523, -27, -174, -17
2.040007, -1031, 569, -1510, -30, -171, -19
2.041020, -1029, 564, -1497, -32, -168, -21
2.042033, -1029, 559, -1484, -32, -163, -24
2.043047, -1031, 552, -1474, -31, -158, -28
2.044060, -1034, 544, -1465, -31, -155, -30
2.045074, -1042, 540, -1459, -30, -151, -32
2.046087, -1054, 536, -1455, -27, -147, -33
2.047101, -1063, 530, -1453, -25, -144, -33
2.048114, -1070, 526, -1453, -24, -143, -32
2.049127, -1080, 523, -1454, -22, -141, -32
2.050141, -1087, 522, -1453, -19, -140, -30
2.051154, -1090, 517, -1452, -15, -139, -30
2.052169, -1093, 511, -1454, -12, -138, -28
2.053181, -1097, 512, -1455, -10, -138, -25
2.054195, -1100, 511, -1456, -6, -137, -23
2.055208, -1103, 505, -1458, -2, -137, -20
2.056222, -1105, 502, -1460, 2, -137, -17
2.057235, -1104, 503, -1464, 4, -138, -15
2.058248, -1102, 502, -1466, 7, -140, -13
2.059262, -1096, 500, -1463, 11, -142, -10
2.060275, -1090, 499, -1462, 16, -144, -9
2.061289, -1088, 497, -1464, 20, -146, -9
2.062303, -1086, 494, -1467, 23, -146, -7
2.063316, -1085, 497, -1470, 27, -148, -6
2.064329, -1088, 501, -1475, 31, -150, -7
2.065342, -1090, 503, -1479, 33, -152, -8
2.066356, -1090, 506, -1481, 34, -153, -8
2.067369, -1092, 510, -1480, 36, -154, -6
2.068383, -1093, 511, -1478, 38, -155, -4
2.069396, -1092, 510, -1474, 39, -155, -3
2.070409, -1091, 508, -1467, 40, -155, -2
2.071424, -1087, 506, -1455, 41, -155, 0
2.072437, -1083, 508, -1444, 44, -154, 0
2.073450, -1081, 505, -1436, 47, -154, 0
2.074463, -1080, 500, -1430, 50, -153, 1
2.075477, -1078, 498, -1423, 53, -152, 1
2.076490, -1076, 499, -1414, 57, -150, 1
2.077504, -1078, 495, -1405, 59, -149, 1
2.078517, -1079, 491, -1397, 62, -147, 2
2.079531, -1079, 493, -1388, 67, -144, 4
2.080544, -1078, 495, -1384, 71, -141, 6
2.081557, -1077, 492, -1379, 75, -139, 7
2.082571, -1076, 488, -1367, 79, -135, 8
2.083584, -1073, 486, -1357, 83, -130, 10
2.084598, -1071, 485, -1355, 88, -126, 12
2.085611, -1070, 483, -1356, 93, -122, 12
2.086625, -1071, 482, -1355, 98, -118, 12
2.087638, -1071, 481, -1355, 104, -113, 13
2.088652, -1072, 482, -1362, 109, -109, 15
2.089666, -1073, 485, -1368, 114, -106, 16
2.090684, -1074, 487, -1370, 117, -101, 18
2.091694, -1073, 489, -1375, 120, -97, 21
2.092706, -1072, 491, -1385, 125, -93, 23
2.093720, -1073, 495, -1396, 128, -91, 23
2.094733, -1073, 500, -1406, 130, -89, 24
2.095747, -1068, 501, -1417, 132, -85, 27
2.096759, -1063, 499, -1427, 134, -82, 28
2.097774, -1062, 505, -1435, 135, -81, 29
2.098787, -1064, 513, -1441, 136, -80, 30
2.099800, -1066, 515, -1446, 136, -77, 30
2.100813, -1068, 517, -1451, 135, -75, 30
2.101827, -1069, 522, -1454, 135, -74, 31
2.102840, -1072, 528, -1454, 134, -74, 32
2.103853, -1070, 532, -1450, 133, -74, 32
2.104867, -1065, 534, -1443, 132, -75, 33
2.105880, -1061, 539, -1436, 132, -75, 34
2.106894, -1059, 545, -1429, 133, -75, 34
2.107907, -1055, 549, -1419, 136, -76, 34
2.108921, -1050, 550, -1413, 139, -78, 34
2.109935, -1050, 551, -1417, 143, -80, 34
2.110948, -1048, 556, -1423, 148, -82, 32
2.111962, -1044, 560, -1427, 151, -83, 30
2.112975, -1042, 563, -1431, 152, -83, 28
2.113988, -1046, 568, -1434, 153, -81, 28
2.115001, -1046, 573, -1434, 154, -80, 27
2.116015, -1042, 573, -1434, 154, -77, 26
2.117029, -1039, 572, -1432, 155, -74, 23
2.118042, -1038, 573, -1427, 156, -73, 19
2.119055, -1040, 575, -1421, 157, -72, 16
2.120069, -1046, 578, -1419, 158, -70, 13
2.121082, -1050, 578, -1420, 158, -67, 11
2.122096, -1053, 576, -1417, 159, -64, 10
2.123109, -1059, 575, -1411, 161, -62, 9
2.124123, -1065, 577, -1411, 162, -59, 7
2.125136, -1069, 576, -1419, 162, -56, 6
2.126149, -1077, 570, -1427, 164, -53, 4
2.127163, -1086, 570, -1434, 165, -52, 2
2.128177, -1089, 574, -1443, 165, -50, 1
2.129190, -1093, 573, -1454, 163, -46, 2
2.130203, -1098, 574, -1463, 161, -43, 2
2.131217, -1103, 578, -1469, 157, -39, 3
2.132230, -1105, 580, -1475, 153, -34, 3
2.133244, -1106, 580, -1479, 149, -30, 3
2.134257, -1105, 578, -1483, 145, -26, 2
2.135270, -1104, 579, -1488, 140, -22, 2
2.136285, -1104, 583, -1495, 136, -19, 2
2.137297, -1107, 587, -1501, 132, -17, 1
2.138310, -1110, 590, -1506, 127, -14, 1
2.139324, -1110, 591, -1507, 121, -11, 1
2.140339, -1112, 593, -1507, 115, -7, 1
2.141351, -1112, 597, -1510, 111, -3, 0
2.142365, -1113, 602, -1514, 106, 0, -3
2.143378, -1115, 606, -1516, 102, 2, -3
2.144391, -1117, 609, -1516, 98, 3, -3
2.145405, -1118, 610, -1514, 93, 4, -5
2.146418, -1119, 611, -1514, 90, 3, -7
2.147431, -1119, 610, -1518, 86, 2, -9
2.148445, -1118, 611, -1522, 84, 3, -11
2.149459, -1116, 614, -1523, 81, 3, -11
2.150472, -1114, 616, -1528, 78, 2, -12
2.151485, -1111, 614, -1536, 75, 2, -13
2.152499, -1110, 615, -1542, 72, 1, -14
2.153513, -1113, 617, -1547, 68, 1, -17
2.154526, -1118, 619, -1555, 64, 0, -19
2.155539, -1122, 619, -1565, 60, -2, -21
2.156553, -1121, 621, -1572, 56, -2, -22
2.157566, -1122, 620, -1578, 50, -2, -23
2.158580, -1127, 619, -1583, 44, -2, -25
2.159593, -1134, 619, -1591, 37, -2, -27
2.160607, -1138, 618, -1599, 31, -3, -28
2.161620, -1140, 617, -1602, 25, -4, -28
2.162634, -1139, 615, -1602, 17, -5, -29
2.163647, -1137, 613, -1602, 11, -5, -29
2.164660, -1137, 612, -1601, 6, -5, -29
2.165674, -1138, 610, -1598, 0, -5, -30
2.166687, -1138, 608, -1593, -6, -6, -31
2.167700, -1137, 607, -1589, -12, -9, -30
2.168714, -1136, 608, -1586, -18, -10, -30
2.169728, -1135, 609, -1579, -23, -11, -31
2.170741, -1131, 607, -1569, -26, -11, -31
2.171754, -1128, 603, -1559, -29, -11, -32
2.172768, -1126, 602, -1547, -31, -11, -32
2.173781, -1123, 599, -1537, -32, -11, -33
2.174794, -1121, 596, -1531, -34, -11, -33
2.175808, -1122, 596, -1523, -33, -10, -35
2.176821, -1122, 597, -1513, -31, -9, -37
2.177835, -1118, 594, -1506, -30, -9, -37
2.178848, -1117, 592, -1502, -29, -10, -38
2.179862, -1121, 592, -1501, -26, -10, -40
2.180875, -1128, 590, -1496, -23, -10, -42
2.181889, -1133, 587, -1489, -19, -11, -43
2.182902, -1138, 586, -1484, -16, -13, -45
2.183916, -1142, 587, -1481, -11, -14, -48
2.184929, -1143, 588, -1477, -6, -16, -48
2.185942, -1143, 587, -1475, -1, -17, -47
2.186961, -1149, 582, -1475, 4, -19, -49
2.187970, -1153, 580, -1476, 10, -20, -50
2.188985, -1155, 583, -1478, 15, -21, -50
2.189996, -1156, 584, -1480, 20, -23, -49
2.191010, -1157, 584, -1483, 26, -24, -49
2.192024, -1157, 586, -1486, 31, -25, -49
2.193037, -1157, 587, -1491, 36, -25, -50
2.194050, -1159, 585, -1497, 40, -27, -50
2.195063, -1159, 583, -1504, 45, -29, -51
2.196077, -1156, 584, -1509, 49, -28, -51
2.197090, -1153, 585, -1512, 53, -28, -51
2.198104, -1152, 584, -1516, 55, -29, -52
2.199117, -1152, 587, -1520, 58, -30, -53
2.200131, -1151, 591, -1521, 61, -30, -54
2.201144, -1147, 593, -1522, 64, -30, -55
2.202158, -1144, 594, -1523, 67, -30, -55
2.203171, -1143, 593, -1522, 69, -28, -56
2.204184, -1138, 595, -1519, 71, -26, -58
2.205198, -1128, 599, -1518, 73, -25, -59
2.206212, -1123, 601, -1517, 75, -24, -61
2.207225, -1122, 600, -1515, 77, -21, -64
2.208238, -1122, 595, -1508, 81, -18, -68
2.209251, -1124, 590, -1502, 84, -16, -70
2.210265, -1128, 588, -1503, 88, -15, -71
2.211278, -1133, 585, -1506, 92, -13, -74
2.212293, -1137, 580, -1511, 95, -10, -77
2.213305, -1141, 573, -1518, 99, -8, -79
2.214319, -1149, 569, -1524, 101, -7, -81
2.215332, -1159, 570, -1534, 104, -7, -83
2.216346, -1169, 570, -1543, 107, -6, -84
2.217359, -1178, 566, -1550, 108, -7, -83
2.218372, -1187, 564, -1556, 110, -8, -84
2.219386, -1195, 562, -1560, 111, -9, -85
2.220399, -1198, 561, -1564, 112, -11, -83
2.221413, -1199, 559, -1568, 112, -13, -80
2.222426, -1201, 558, -1571, 113, -16, -78
2.223439, -1203, 558, -1571, 113, -17, -77
2.224453, -1202, 556, -1573, 114, -18, -74
2.225467, -1198, 553, -1575, 117, -20, -73
2.226480, -1191, 550, -1576, 118, -20, -72
2.227493, -1182, 548, -1580, 120, -20, -70
2.228507, -1178, 546, -1585, 121, -20, -69
2.229520, -1174, 544, -1588, 122, -21, -69
2.230534, -1169, 542, -1591, 122, -20, -71
2.231547, -1166, 541, -1598, 123, -18, -71
2.232561, -1163, 540, -1603, 124, -18, -72
2.233574, -1160, 540, -1604, 124, -18, -73
2.234588, -1160, 539, -1605, 124, -19, -74
2.235601, -1165, 538, -1614, 124, -19, -74
2.236615, -1170, 537, -1623, 124, -19, -74
2.237628, -1172, 532, -1630, 124, -19, -75
2.238642, -1177, 525, -1639, 123, -20, -76
2.239655, -1184, 523, -1649, 122, -20, -74
2.240668, -1188, 523, -1658, 120, -20, -73
2.241682, -1191, 521, -1667, 118, -21, -72
2.242695, -1196, 518, -1675, 114, -21, -70
2.243708, -1202, 516, -1682, 109, -23, -67
2.244722, -1205, 515, -1686, 105, -25, -65
2.245736, -1205, 516, -1689, 100, -26, -64
2.246749, -1207, 516, -1694, 95, -28, -62
2.247762, -1207, 517, -1696, 89, -30, -58
2.248776, -1200, 520, -1694, 84, -30, -54
2.249790, -1191, 520, -1692, 79, -29, -52
2.250803, -1182, 516, -1690, 74, -30, -51
2.251816, -1176, 516, -1685, 69, -31, -49
2.252829, -1171, 516, -1679, 64, -31, -47
2.253843, -1164, 517, -1674, 60, -31, -46
2.254856, -1157, 518, -1671, 55, -32, -46
2.255870, -1153, 517, -1666, 52, -30, -47
2.256883, -1150, 518, -1659, 49, -30, -47
2.257897, -1146, 517, -1656, 45, -30, -47
2.258910, -1145, 515, -1655, 42, -30, -48
2.259923, -1143, 514, -1651, 41, -28, -48
2.260937, -1141, 517, -1646, 38, -27, -50
2.261951, -1141, 519, -1643, 34, -25, -52
2.262964, -1141, 520, -1640, 33, -24, -52
2.263977, -1140, 519, -1637, 32, -24, -52
2.264992, -1137, 519, -1636, 29, -24, -54
2.266004, -1137, 517, -1633, 27, -24, -54
2.267017, -1139, 516, -1630, 27, -23, -55
2.268031, -1139, 515, -1630, 27, -25, -57
2.269044, -1141, 515, -1632, 27, -25, -59
2.270058, -1143, 515, -1633, 26, -24, -59
2.271072, -1144, 514, -1632, 25, -26, -59
2.272085, -1146, 513, -1635, 25, -28, -61
2.273098, -1150, 514, -1641, 26, -29, -62
2.274112, -1155, 513, -1646, 25, -30, -63
2.275125, -1162, 512, -1650, 23, -30, -63
2.276139, -1171, 513, -1655, 21, -32, -62
2.277152, -1179, 516, -1656, 20, -34, -61
2.278166, -1183, 519, -1658, 18, -36, -60
2.279179, -1187, 521, -1660, 15, -38, -59
2.280193, -1190, 524, -1662, 12, -40, -59
2.281206, -1192, 524, -1665, 10, -42, -57
2.282219, -1190, 523, -1665, 7, -43, -54
2.283233, -1189, 524, -1662, 4, -44, -53
2.284246, -1190, 527, -1663, 1, -45, -52
2.285260, -1186, 529, -1663, -2, -45, -50
2.286273, -1181, 528, -1663, -5, -46, -48
2.287290, -1180, 527, -1665, -7, -46, -46
2.288300, -1176, 531, -1667, -10, -47, -44
2.289315, -1172, 533, -1668, -14, -48, -43
2.290327, -1170, 534, -1672, -19, -48, -43
2.291340, -1169, 538, -1676, -23, -48, -43
2.292355, -1167, 543, -1678, -26, -49, -42
2.293367, -1167, 543, -1680, -31, -48, -41
2.294380, -1166, 544, -1682, -37, -48, -41
2.295395, -1165, 547, -1683, -42, -49, -40
2.296407, -1164, 548, -1682, -47, -50, -40
2.297421, -1159, 549, -1677, -51, -51, -40
2.298434, -1156, 550, -1671, -55, -50, -39
2.299448, -1156, 548, -1666, -60, -50, -39
2.300461, -1157, 549, -1659, -63, -51, -38
2.301475, -1158, 553, -1655, -65, -53, -37
2.302488, -1159, 553, -1653, -68, -54, -37
2.303501, -1157, 551, -1650, -70, -56, -37
2.304515, -1153, 551, -1645, -72, -57, -35
2.305529, -1152, 552, -1639, -75, -58, -35
2.306542, -1154, 555, -1637, -77, -60, -35
2.307555, -1153, 556, -1639, -78, -61, -35
2.308569, -1149, 555, -1636, -79, -62, -35
2.309582, -1145, 556, -1626, -79, -63, -34
2.310597, -1140, 558, -1620, -81, -65, -34
2.311609, -1137, 559, -1619, -81, -66, -35
2.312623, -1135, 558, -1613, -81, -68, -36
2.313636, -1132, 560, -1604, -80, -69, -37
2.314650, -1129, 565, -1598, -79, -70, -37
2.315663, -1124, 568, -1592, -77, -71, -38
2.316677, -1119, 569, -1587, -77, -73, -38
2.317690, -1117, 569, -1588, -76, -74, -38
2.318703, -1111, 570, -1590, -74, -75, -41
2.319717, -1107, 572, -1593, -71, -76, -43
2.320730, -1107, 573, -1598, -70, -76, -45
2.321743, -1109, 571, -1601, -70, -75, -46
2.322756, -1109, 570, -1603, -70, -75, -48
2.323771, -1109, 573, -1603, -71, -74, -49
2.324784, -1109, 573, -1600, -72, -73, -48
2.325797, -1109, 569, -1594, -74, -72, -49
2.326810, -1109, 566, -1582, -75, -69, -50
2.327824, -1109, 563, -1567, -76, -65, -49
2.328837, -1107, 556, -1553, -76, -61, -50
2.329851, -1104, 549, -1541, -74, -57, -52
2.330864, -1108, 546, -1532, -71, -51, -53
2.331878, -1117, 543, -1527, -69, -46, -54
2.332891, -1127, 538, -1524, -66, -42, -56
2.333905, -1136, 534, -1523, -64, -38, -57
2.334918, -1147, 533, -1523, -61, -35, -57
2.335934, -1159, 532, -1523, -57, -31, -55
2.336945, -1169, 533, -1522, -53, -28, -53
2.337958, -1178, 535, -1519, -50, -26, -51
2.338972, -1185, 538, -1520, -46, -25, -49
2.339985, -1192, 538, -1523, -43, -23, -46
2.340999, -1197, 538, -1525, -39, -22, -42
2.342012, -1197, 537, -1533, -36, -20, -39
2.343026, -1194, 537, -1543, -33, -19, -36
2.344039, -1195, 536, -1550, -31, -18, -34
2.345053, -1197, 535, -1556, -28, -17, -32
2.346066, -1197, 535, -1563, -27, -17, -29
2.347080, -1194, 533, -1570, -25, -16, -26
2.348093, -1193, 531, -1577, -23, -15, -25
2.349107, -1195, 531, -1584, -22, -14, -22
2.350120, -1200, 531, -1587, -23, -14, -20
2.351133, -1205, 529, -1587, -24, -13, -20
2.352147, -1206, 529, -1587, -24, -13, -18
2.353160, -1209, 529, -1588, -23, -12, -14
2.354174, -1214, 526, -1587, -21, -12, -12
2.355187, -1220, 524, -1586, -20, -13, -10
2.356201, -1224, 520, -1589, -19, -14, -8
2.357214, -1228, 520, -1590, -18, -14, -6
2.358227, -1231, 524, -1593, -17, -15, -3
2.359241, -1231, 524, -1596, -18, -14, 0
2.360255, -1230, 524, -1600, -18, -13, 3
2.361268, -1228, 526, -1604, -17, -13, 7
2.362281, -1222, 527, -1608, -16, -14, 9
2.363294, -1215, 527, -1609, -17, -14, 12
2.364308, -1208, 527, -1608, -18, -14, 14
2.365321, -1201, 528, -1609, -17, -15, 15
2.366335, -1198, 530, -1611, -17, -16, 15
2.367348, -1198, 529, -1611, -17, -17, 16
2.368362, -1195, 529, -1610, -16, -18, 15
2.369376, -1191, 532, -1611, -15, -18, 14
2.370388, -1190, 536, -1614, -14, -18, 14
2.371402, -1193, 539, -1614, -14, -18, 14
2.372416, -1196, 540, -1614, -14, -19, 13
2.373429, -1199, 540, -1616, -14, -21, 11
2.374442, -1199, 541, -1618, -14, -23, 11
2.375456, -1196, 543, -1620, -13, -24, 12
2.376469, -1197, 543, -1621, -13, -26, 12
2.377483, -1199, 541, -1621, -12, -28, 13
2.378496, -1197, 540, -1622, -12, -30, 14
2.379510, -1194, 542, -1619, -13, -31, 13
2.380523, -1187, 543, -1617, -13, -33, 12
2.381537, -1180, 541, -1618, -11, -37, 11
2.382550, -1176, 537, -1621, -9, -40, 11
2.383563, -1173, 536, -1620, -9, -42, 11
2.384577, -1174, 535, -1623, -8, -43, 10
2.385594, -1173, 533, -1625, -7, -43, 8
2.386604, -1168, 534, -1627, -6, -45, 6
2.387619, -1166, 536, -1630, -6, -46, 4
2.388631, -1169, 535, -1631, -6, -48, 3
2.389644, -1172, 534, -1632, -6, -49, 1
2.390658, -1175, 533, -1635, -7, -50, -1
2.391666, -1179, 533, -1641, -8, -51, -1
2.392685, -1186, 534, -1642, -9, -52, -1
2.393698, -1187, 534, -1638, -10, -54, -2
2.394711, -1185, 531, -1635, -12, -55, -2
2.395728, -1185, 528, -1637, -13, -57, -1
2.396738, -1187, 528, -1640, -14, -58, -1
2.397752, -1186, 530, -1638, -15, -60, -1
2.398765, -1184, 533, -1633, -17, -61, 0
2.399778, -1182, 534, -1632, -19, -62, 0
2.400792, -1180, 532, -1631, -20, -63, 0
2.401806, -1178, 531, -1628, -20, -63, -2
2.402819, -1175, 534, -1625, -22, -63, -3
2.403832, -1171, 534, -1620, -24, -63, -4
2.404846, -1169, 528, -1619, -25, -62, -4
2.405859, -1167, 527, -1622, -26, -62, -5
2.406872, -1165, 529, -1625, -27, -62, -6
2.407887, -1164, 529, -1627, -28, -62, -8
2.408900, -1167, 531, -1629, -30, -62, -11
2.409913, -1171, 534, -1628, -32, -63, -11
2.410927, -1174, 533, -1628, -34, -63, -12
2.411940, -1179, 531, -1627, -37, -63, -13
2.412953, -1183, 529, -1625, -39, -63, -14
2.413967, -1184, 531, -1621, -42, -64, -15
2.414980, -1187, 533, -1621, -45, -66, -16
2.415994, -1190, 530, -1625, -48, -66, -17
2.417007, -1192, 530, -1628, -50, -67, -16
2.418020, -1191, 533, -1627, -52, -67, -15
2.419034, -1189, 533, -1627, -56, -67, -15
2.420047, -1189, 533, -1628, -61, -67, -16
2.421061, -1189, 534, -1625, -66, -66, -15
2.422074, -1188, 534, -1619, -70, -66, -15
2.423088, -1188, 535, -1616, -73, -66, -15
2.424101, -1187, 535, -1611, -78, -65, -14
2.425114, -1182, 533, -1602, -83, -64, -13
2.426128, -1178, 532, -1592, -86, -63, -13
2.427142, -1175, 534, -1580, -88, -61, -13
2.428155, -1170, 535, -1563, -91, -58, -13
2.429168, -1166, 534, -1549, -92, -56, -13
2.430182, -1166, 534, -1539, -92, -54, -14
2.431195, -1167, 535, -1526, -91, -53, -16
2.432209, -1166, 532, -1512, -92, -51, -16
2.433222, -1164, 527, -1497, -90, -50, -17
2.434235, -1167, 523, -1483, -87, -49, -19
2.435249, -1172, 521, -1475, -84, -49, -21
2.436262, -1178, 523, -1470, -80, -49, -21
2.437276, -1185, 525, -1463, -76, -49, -20
2.438289, -1189, 523, -1459, -71, -49, -20
2.439303, -1190, 518, -1457, -66, -49, -19
2.440316, -1193, 515, -1454, -60, -49, -17
2.441330, -1198, 515, -1453, -54, -49, -16
2.442343, -1203, 516, -1456, -49, -49, -14
2.443357, -1205, 515, -1458, -43, -48, -13
2.444370, -1203, 512, -1459, -38, -49, -12
2.445383, -1203, 512, -1461, -32, -50, -10
2.446397, -1207, 511, -1465, -27, -51, -8
2.447410, -1208, 507, -1467, -23, -51, -5
2.448423, -1208, 506, -1471, -17, -51, -2
2.449437, -1209, 508, -1479, -13, -51, -1
2.450451, -1208, 509, -1488, -10, -52, 1
2.451464, -1205, 510, -1496, -7, -52, 3
2.452477, -1203, 511, -1504, -3, -51, 4
2.453491, -1202, 512, -1509, -2, -51, 5
2.454504, -1200, 513, -1515, 0, -49, 7
2.455518, -1197, 516, -1522, 0, -47, 9
2.456531, -1194, 520, -1525, 1, -46, 11
2.457544, -1191, 521, -1529, 1, -45, 12
2.458558, -1187, 520, -1531, 1, -43, 13
2.459571, -1183, 520, -1532, 0, -41, 13
2.460585, -1181, 523, -1533, 1, -39, 14
2.461598, -1180, 523, -1536, 3, -38, 13
2.462612, -1177, 525, -1541, 2, -36, 12
2.463625, -1176, 527, -1544, 1, -34, 11
2.464639, -1178, 528, -1549, 1, -31, 12
2.465652, -1180, 530, -1557, 1, -30, 11
2.466666, -1182, 535, -1564, -1, -29, 10
2.467679, -1184, 537, -1568, -2, -29, 11
2.468693, -1183, 534, -1571, -3, -28, 12
2.469706, -1182, 533, -1573, -3, -28, 13
2.470719, -1183, 536, -1574, -5, -28, 14
2.471733, -1183, 534, -1575, -6, -27, 14
2.472746, -1180, 529, -1577, -7, -26, 14
2.473759, -1180, 526, -1573, -7, -25, 15
2.474773, -1185, 526, -1570, -9, -24, 15
2.475786, -1189, 525, -1571, -10, -23, 15
2.476800, -1187, 524, -1569, -10, -22, 16
2.477813, -1186, 523, -1564, -10, -22, 18
2.478827, -1189, 526, -1560, -11, -21, 19
2.479840, -1192, 527, -1556, -11, -22, 19
2.480854, -1189, 524, -1552, -11, -22, 19
2.481867, -1186, 523, -1548, -10, -22, 20
2.482884, -1186, 526, -1541, -8, -22, 20
2.483896, -1185, 526, -1533, -6, -23, 20
2.484908, -1181, 524, -1529, -3, -24, 21
2.485921, -1177, 524, -1527, -1, -25, 21
2.486935, -1177, 526, -1525, 1, -26, 19
2.487948, -1178, 527, -1522, 4, -27, 18
2.488961, -1176, 528, -1524, 6, -29, 19
2.489974, -1175, 530, -1525, 10, -31, 18
2.490988, -1179, 530, -1524, 13, -33, 17
2.492001, -1183, 531, -1525, 15, -36, 17
2.493015, -1182, 533, -1527, 18, -38, 17
2.494028, -1180, 533, -1533, 22, -39, 16
2.495042, -1178, 535, -1540, 24, -40, 16
2.496056, -1175, 539, -1545, 26, -41, 16
2.497069, -1171, 541, -1548, 28, -43, 16
2.498082, -1168, 544, -1551, 30, -44, 16
2.499096, -1164, 547, -1555, 30, -46, 15
2.500109, -1159, 546, -1557, 30, -47, 14
2.501122, -1154, 544, -1560, 31, -48, 13
2.502136, -1148, 545, -1563, 31, -47, 12
2.503149, -1143, 548, -1564, 31, -48, 11
2.504165, -1142, 552, -1564, 31, -49, 10
2.505177, -1143, 555, -1563, 32, -49, 8
2.506191, -1139, 555, -1565, 32, -49, 6
2.507203, -1131, 553, -1567, 32, -48, 4
2.508217, -1130, 551, -1567, 32, -49, 3
2.509232, -1134, 554, -1570, 32, -49, 1
2.510245, -1134, 557, -1575, 32, -48, -1
2.511257, -1131, 556, -1583, 32, -48, -2
2.512271, -1132, 557, -1591, 30, -48, -4
2.513284, -1134, 560, -1595, 28, -47, -6
2.514298, -1132, 560, -1600, 25, -46, -8
2.515311, -1130, 561, -1606, 22, -45, -9
2.516324, -1131, 564, -1612, 19, -44, -9
2.517338, -1134, 565, -1614, 17, -43, -9
2.518351, -1135, 561, -1615, 13, -41, -10
2.519365, -1136, 560, -1616, 9, -41, -12
2.520378, -1138, 564, -1616, 3, -40, -13
2.521392, -1139, 566, -1613, 0, -39, -14
2.522405, -1137, 568, -1610, -3, -37, -16
2.523418, -1135, 569, -1606, -7, -36, -16
2.524432, -1134, 570, -1601, -11, -35, -16
2.525445, -1135, 573, -1595, -14, -34, -17
2.526459, -1134, 576, -1584, -17, -33, -18
2.527472, -1132, 575, -1574, -18, -32, -20
2.528486, -1130, 575, -1563, -19, -31, -22
2.529499, -1129, 576, -1555, -20, -29, -23
2.530512, -1128, 575, -1551, -21, -25, -24
2.531526, -1131, 570, -1546, -19, -23, -25
2.532540, -1137, 568, -1545, -18, -23, -27
2.533553, -1142, 569, -1545, -18, -22, -29
2.534566, -1145, 570, -1542, -18, -20, -30
2.535581, -1151, 569, -1540, -17, -18, -31
2.536593, -1159, 569, -1540, -16, -17, -33
2.537606, -1167, 571, -1539, -16, -17, -33
2.538620, -1174, 572, -1541, -15, -16, -33
2.539633, -1178, 572, -1545, -14, -17, -32
2.540648, -1182, 574, -1549, -12, -19, -30
2.541660, -1186, 574, -1551, -11, -19, -29
2.542674, -1186, 575, -1552, -11, -20, -28
2.543687, -1183, 578, -1552, -11, -20, -27
2.544700, -1183, 579, -1549, -10, -21, -26
2.545714, -1181, 578, -1545, -9, -23, -25
2.546727, -1178, 580, -1540, -8, -23, -25
2.547741, -1177, 581, -1536, -8, -24, -25
2.548754, -1175, 580, -1531, -6, -25, -25
2.549768, -1171, 582, -1525, -4, -26, -25
2.550781, -1171, 585, -1523, 0, -27, -25
2.551794, -1174, 586, -1522, 4, -28, -26
2.552808, -1175, 587, -1520, 6, -29, -26
2.553821, -1173, 587, -1518, 8, -30, -26
2.554835, -1170, 587, -1520, 11, -31, -27
2.555848, -1172, 587, -1522, 14, -31, -28
2.556862, -1174, 589, -1523, 17, -31, -28
2.557875, -1175, 592, -1523, 20, -31, -28
2.558889, -1173, 591, -1523, 23, -30, -28
2.559902, -1170, 588, -1524, 24, -29, -28
2.560915, -1170, 590, -1523, 24, -29, -28
2.561929, -1169, 591, -1522, 26, -28, -29
2.562943, -1167, 589, -1521, 28, -28, -31
2.563956, -1167, 589, -1520, 30, -28, -32
2.564969, -1169, 589, -1522, 32, -27, -32
2.565983, -1172, 586, -1525, 33, -26, -31
2.566996, -1178, 586, -1527, 35, -25, -31
2.568010, -1181, 590, -1532, 37, -25, -32
2.569023, -1183, 594, -1538, 38, -25, -31
2.570037, -1188, 595, -1540, 39, -23, -31
2.571050, -1192, 596, -1539, 38, -22, -30
2.572063, -1192, 598, -1539, 37, -22, -28
2.573077, -1192, 598, -1539, 38, -22, -27
2.574090, -1192, 599, -1539, 38, -22, -26
2.575104, -1190, 601, -1541, 38, -21, -24
2.576117, -1186, 603, -1543, 38, -21, -22
2.577131, -1185, 606, -1547, 37, -21, -23
2.578144, -1186, 609, -1551, 37, -21, -24
2.579157, -1185, 612, -1555, 37, -19, -23
2.580171, -1181, 613, -1558, 36, -19, -22
2.581188, -1176, 615, -1560, 35, -18, -22
2.582199, -1172, 616, -1560, 34, -17, -21
2.583213, -1171, 616, -1562, 33, -17, -23
2.584225, -1171, 618, -1565, 32, -17, -25
2.585238, -1170, 620, -1565, 31, -16, -25
2.586252, -1171, 621, -1564, 29, -15, -25
2.587265, -1170, 622, -1564, 28, -14, -26
2.588278, -1168, 623, -1565, 28, -13, -27
2.589293, -1167, 626, -1569, 28, -13, -28
2.590305, -1166, 628, -1574, 27, -13, -29
2.591319, -1165, 628, -1579, 25, -13, -30
2.592332, -1162, 629, -1584, 24, -12, -30
2.593346, -1161, 631, -1594, 23, -12, -32
2.594359, -1160, 635, -1607, 20, -11, -33
2.595373, -1157, 639, -1619, 17, -9, -33
2.596386, -1153, 642, -1625, 15, -8, -34
2.597399, -1154, 640, -1631, 10, -7, -35
2.598413, -1158, 639, -1640, 5, -5, -36
2.599426, -1158, 641, -1648, 1, -3, -38
2.600440, -1155, 642, -1651, -3, -3, -40
2.601453, -1154, 641, -1654, -9, -2, -41
2.602467, -1156, 642, -1661, -15, -1, -43
2.603480, -1157, 646, -1669, -18, 1, -45
2.604493, -1156, 649, -1675, -22, 1, -46
2.605507, -1154, 652, -1679, -28, 1, -48
2.606522, -1153, 658, -1683, -33, 1, -49
2.607534, -1151, 662, -1682, -38, 1, -50
2.608547, -1149, 665, -1678, -43, 2, -52
2.609561, -1150, 668, -1676, -48, 1, -55
2.610574, -1150, 671, -1674, -50, -2, -57
2.611588, -1146, 672, -1670, -53, -4, -59
2.612601, -1144, 672, -1667, -55, -6, -61
2.613614, -1142, 673, -1664, -56, -8, -64
2.614628, -1138, 675, -1659, -55, -12, -67
2.615641, -1137, 678, -1656, -54, -15, -70
2.616655, -1137, 678, -1655, -53, -19, -74
2.617668, -1140, 675, -1657, -53, -23, -78
2.618682, -1146, 675, -1661, -53, -28, -81
2.619695, -1148, 674, -1668, -53, -31, -84
2.620709, -1147, 673, -1673, -53, -34, -86
2.621722, -1150, 676, -1677, -52, -36, -88
2.622735, -1150, 677, -1681, -52, -38, -90
2.623749, -1147, 675, -1685, -53, -40, -92
2.624763, -1143, 674, -1688, -55, -42, -96
2.625776, -1138, 670, -1691, -56, -44, -99
2.626789, -1134, 668, -1690, -57, -45, -102
2.627803, -1131, 671, -1684, -58, -46, -107
2.628816, -1126, 669, -1678, -61, -47, -111
2.629829, -1121, 665, -1676, -63, -48, -114
2.630843, -1120, 664, -1671, -63, -47, -118
2.631856, -1123, 666, -1667, -62, -48, -123
2.632870, -1128, 665, -1667, -62, -49, -129
2.633884, -1138, 660, -1666, -60, -50, -134
2.634897, -1149, 654, -1662, -58, -52, -137
2.635910, -1158, 650, -1665, -57, -53, -140
2.636924, -1165, 647, -1672, -56, -55, -143
2.637937, -1174, 644, -1682, -56, -58, -144
2.638951, -1183, 638, -1690, -56, -59, -144
2.639964, -1190, 633, -1698, -56, -61, -145
2.640978, -1198, 630, -1708, -57, -63, -147
2.641991, -1206, 626, -1718, -60, -64, -146
2.643004, -1212, 620, -1729, -62, -64, -145
2.644018, -1217, 617, -1735, -64, -65, -145
2.645031, -1222, 615, -1738, -69, -66, -145
2.646044, -1225, 611, -1745, -74, -66, -142
2.647058, -1229, 607, -1749, -80, -67, -140
2.648072, -1230, 603, -1747, -85, -68, -139
2.649085, -1229, 601, -1744, -90, -68, -137
2.650099, -1233, 601, -1741, -95, -69, -135
2.651112, -1236, 602, -1736, -99, -70, -133
2.652125, -1234, 602, -1726, -102, -71, -131
2.653139, -1232, 601, -1716, -105, -71, -131
2.654152, -1232, 603, -1709, -109, -72, -130
2.655165, -1233, 606, -1698, -113, -73, -129
2.656179, -1233, 606, -1686, -115, -73, -127
2.657193, -1226, 607, -1676, -117, -74, -126
2.658206, -1218, 610, -1664, -118, -75, -125
2.659219, -1213, 614, -1648, -118, -76, -125
2.660233, -1205, 615, -1632, -116, -75, -125
2.661247, -1192, 615, -1618, -115, -75, -126
2.662259, -1179, 617, -1608, -113, -74, -128
2.663273, -1264, 539, -1493, -107, -73, -128
2.664287, -2198, -125, -16, -38, -71, -99
2.665300, -3409, -1174, 3419, 279, -80, 43
2.666313, -2317, -1039, 4737, 876, -154, 216
2.667327, -388, 274, 1296, 1348, -402, 173
2.668340, -523, 919, -2126, 1384, -750, -16
2.669354, -1038, 558, -2363, 1225, -826, -114
2.670367, -936, 242, -1925, 1138, -559, -123
2.671381, -1021, 244, -2049, 1081, -361, -109
2.672394, -1136, 245, -1992, 1013, -394, -76
2.673408, -1198, 219, -1832, 964, -449, -45
2.674421, -1291, 221, -1775, 931, -416, -28
2.675434, -1387, 207, -1737, 903, -338, -17
2.676448, -1464, 160, -1722, 879, -254, -8
2.677461, -1503, 108, -1741, 856, -184, 1
2.678475, -1521, 79, -1785, 834, -134, 14
2.679488, -1536, 84, -1829, 812, -109, 29
2.680502, -1545, 115, -1851, 787, -127, 45
2.681518, -1547, 148, -1864, 761, -186, 57
2.682530, -1540, 180, -1893, 739, -242, 68
2.683543, -1529, 218, -1912, 721, -249, 81
2.684555, -1521, 249, -1893, 702, -237, 97
2.685569, -1506, 264, -1881, 680, -245, 115
2.686583, -1480, 280, -1880, 661, -249, 136
2.687596, -1455, 307, -1860, 642, -226, 160
2.688609, -1435, 332, -1830, 620, -201, 182
2.689623, -1413, 344, -1800, 596, -196, 203
2.690636, -1387, 346, -1769, 574, -202, 220
2.691649, -1364, 345, -1743, 555, -202, 235
2.692663, -1346, 343, -1721, 536, -197, 247
2.693676, -1333, 343, -1702, 519, -194, 256
2.694690, -1327, 351, -1688, 502, -191, 263
2.695703, -1327, 365, -1675, 485, -191, 269
2.696717, -1332, 377, -1662, 468, -197, 274
2.697730, -1338, 383, -1650, 454, -207, 280
2.698743, -1343, 382, -1635, 442, -215, 287
2.699757, -1347, 376, -1619, 433, -225, 296
2.700770, -1350, 375, -1610, 424, -233, 306
2.701784, -1352, 382, -1606, 416, -235, 316
2.702797, -1360, 390, -1590, 407, -241, 324
2.703811, -1373, 391, -1556, 396, -271, 332
2.704826, -1382, 380, -1525, 385, -336, 338
2.705838, -1369, 367, -1539, 378, -406, 341
2.706851, -1335, 374, -1580, 379, -413, 344
2.707865, -1297, 404, -1626, 381, -358, 350
2.708878, -1136, 443, -1905, 366, -317, 353
2.709891, -566, 502, -2999, 286, -304, 327
2.710905, 137, 557, -4609, 66, -255, 237
2.711918, 89, 426, -4386, -244, -128, 106
2.712931, -775, 106, -1546, -393, 17, 26
2.713945, -1307, 144, -179, -273, 74, 35
2.714959, -872, 649, -2354, -176, 48, 50
2.715972, -357, 815, -3816, -318, 42, -11
2.716986, -505, 478, -2598, -500, 105, -105
2.717999, -741, 393, -1926, -559, 175, -159
2.719012, -578, 519, -2082, -591, 196, -200
2.720026, -1089, 308, -780, -572, 191, -251
2.721039, -2110, 362, -388, -436, 172, -219
2.722053, -2143, 1016, -2477, -384, 132, -117
2.723066, -1845, 1257, -3379, -530, 109, -64
2.724080, -1860, 723, -1309, -640, 118, -36
2.725093, -1957, 265, 1001, -504, 106, 27
2.726107, -1606, 399, 649, -233, 36, 98
2.727120, -618, 693, -1374, -84, -44, 95
2.728133, -127, 805, -2891, -140, -59, 1
2.729147, -14, 840, -3751, -332, -11, -112
2.730160, 25, 599, -3067, -542, 32, -224
2.731174, -858, 292, -1339, -607, 57, -304
2.732187, -1756, 627, -1614, -551, 70, -268
2.733200, -1576, 1190, -3156, -592, 68, -185
2.734214, -1369, 1371, -4105, -781, 94, -163
2.735227, -1249, 1105, -3981, -1018, 172, -164
2.736242, -995, 450, -1921, -1152, 297, -167
2.737254, -948, 200, -432, -1050, 388, -149
2.738268, -1012, 459, -968, -894, 274, -121
2.739281, -1770, 539, -1056, -857, 141, -141
2.740294, -1973, 580, -648, -773, 207, -120
2.741308, -1073, 793, -964, -637, 194, -84
2.742321, -653, 1024, -2053, -619, 73, -141
2.743335, -573, 914, -2665, -726, 63, -241
2.744348, -732, 488, -1702, -790, 147, -309
2.745362, -1012, 654, -1775, -768, 188, -321
2.746375, -1650, 1142, -2661, -824, 140, -301
2.747389, -2154, 1215, -2303, -913, 141, -227
2.748402, -922, 1298, -2728, -980, 186, -158
2.749416, -159, 770, -1967, -1070, 243, -219
2.750429, -1449, -460, 1609, -936, 370, -268
2.751442, -2156, -120, 1513, -554, 367, -176
2.752456, -937, 1729, -3189, -436, 150, -122
2.753469, 397, 2294, -5285, -736, 10, -254
2.754483, 9, 1087, -3503, -1064, 109, -447
2.755496, -1556, -157, -704, -1115, 340, -489
2.756509, -2092, -235, 1263, -868, 467, -350
2.757523, -807, 555, 503, -543, 321, -262
2.758537, -205, 1017, -1250, -407, 84, -375
2.759550, -919, 885, -1363, -409, 41, -499
2.760563, -1203, 687, -600, -362, 145, -526
2.761577, -1574, 584, -13, -228, 170, -512
2.762590, -1511, 604, -120, -83, 73, -465
2.763603, -814, 757, -1292, -4, 6, -470
2.764619, -1272, 1086, -3227, -68, 11, -509
2.765631, -1868, 1047, -3514, -293, 17, -466
2.766644, -1136, 183, -591, -405, 5, -417
2.767658, -704, 27, 769, -212, -5, -460
2.768671, -1997, 1055, -1019, -7, 21, -474
2.769684, -3382, 1126, 65, 92, 21, -317
2.770698, -3086, 440, 2037, 332, -77, -99
2.771711, -2009, 724, -1119, 533, -190, -3
2.772724, -1119, 990, -4309, 372, -195, -9
2.773738, -222, 312, -2978, 91, -137, -69
2.774751, -438, -219, -909, 14, -114, -188
2.775765, -1860, 131, -825, 96, -115, -220
2.776778, -1566, 431, -56, 236, -138, -125
2.777792, 351, -246, 3689, 583, -198, -159
2.778805, 520, -599, 5076, 1207, -237, -377
2.779822, -781, 198, 1335, 1718, -279, -515
2.780834, -1411, 728, -1534, 1834, -381, -517
2.781846, -1568, 550, -1151, 1779, -454, -506
2.782859, -1567, 456, -844, 1776, -443, -493
2.783872, -1284, 574, -1797, 1757, -435, -479
2.784886, -1100, 571, -2292, 1652, -465, -487
2.785900, -1121, 460, -2051, 1544, -467, -505
2.786913, -1175, 424, -2024, 1473, -408, -514
2.787926, -1209, 420, -2093, 1410, -344, -513
2.788940, -1240, 382, -2102, 1349, -309, -509
2.789953, -1266, 340, -2163, 1295, -268, -505
2.790967, -1292, 334, -2214, 1242, -202, -498
2.791980, -1328, 356, -2233, 1184, -144, -490
2.792993, -1364, 375, -2240, 1124, -117, -484
2.794007, -1381, 388, -2226, 1065, -111, -480
2.795021, -1389, 403, -2198, 1009, -113, -478
2.796034, -1394, 418, -2161, 958, -120, -476
2.797047, -1392, 428, -2113, 912, -132, -473
2.798061, -1383, 437, -2059, 873, -146, -469
2.799075, -1368, 448, -2005, 838, -158, -464
2.800088, -1352, 459, -1950, 806, -168, -460
2.801101, -1336, 471, -1896, 777, -175, -454
2.802114, -1321, 478, -1847, 751, -179, -449
2.803128, -1306, 485, -1802, 730, -180, -443
2.804141, -1293, 495, -1763, 711, -178, -438
2.805155, -1285, 503, -1729, 694, -176, -434
2.806168, -1278, 505, -1696, 680, -175, -429
2.807181, -1273, 502, -1665, 668, -176, -425
2.808195, -1275, 496, -1634, 657, -178, -421
2.809208, -1279, 484, -1602, 649, -179, -415
2.810222, -1286, 470, -1578, 644, -182, -411
2.811235, -1295, 456, -1564, 639, -186, -408
2.812249, -1308, 444, -1572, 633, -189, -404
2.813262, -1327, 438, -1627, 624, -192, -397
2.814275, -1360, 448, -1810, 602, -193, -389
2.815289, -1436, 491, -2340, 547, -188, -378
2.816303, -1623, 646, -3867, 396, -165, -354
2.817316, -2006, 829, -5527, 69, -115, -305
2.818329, -2596, 581, -3406, -281, -63, -211
2.819343, -2026, -126, 2656, -197, -67, -93
2.820356, -4, -340, 4440, 398, -150, -98
2.821370, 196, 203, -148, 864, -221, -256
2.822383, -1335, 498, -2497, 868, -181, -337
2.823396, -1615, 382, -1390, 767, -136, -298
2.824410, -1359, 419, -1227, 754, -197, -282
2.825424, -1469, 524, -1506, 738, -289, -285
2.826437, -1489, 538, -1413, 714, -328, -272
2.827450, -1658, 549, -1573, 694, -332, -247
2.828464, -2151, 607, -2148, 639, -331, -190
2.829477, -2598, 701, -2822, 520, -314, -84
2.830491, -2503, 745, -3278, 343, -274, 47
2.831504, -2085, 629, -3497, 134, -230, 148
2.832517, -1602, 468, -4247, -108, -187, 205
2.833531, -222, 432, -6369, -476, -130, 193
2.834544, 109, 379, -7452, -1032, -32, 57
2.835558, -1672, -23, -3748, -1463, 105, -11
2.836572, -1413, -542, 1553, -1363, 138, 58
2.837585, -1252, -298, 2636, -881, 34, 46
2.838598, -3096, 579, 108, -485, -5, 98
2.839611, -2150, 930, -2429, -407, 39, 264
2.840625, -724, 691, -3650, -569, 51, 263
2.841638, -1894, 841, -5178, -878, 47, 216
2.842652, -2256, 1088, -5805, -1317, 62, 301
2.843665, -720, 361, -2481, -1647, 20, 337
2.844679, -19, -574, 1959, -1524, -14, 236
2.845692, -543, -340, 2395, -1046, 76, 164
2.846706, -848, 428, 271, -668, 124, 152
2.847719, -1250, 462, 1113, -459, 64, 131
2.848733, -1551, 178, 2829, -129, 14, 131
2.849746, -1532, 614, -124, 184, -25, 141
2.850760, -1634, 1338, -5227, 51, -61, 157
2.851773, -1332, 1396, -7373, -519, -50, 186
2.852786, -1586, 1044, -6248, -1149, -10, 187
2.853800, -3340, 616, -1951, -1473, 15, 278
2.854813, -2875, -31, 3170, -1251, -37, 505
2.855827, 745, -180, 1887, -748, -160, 533
2.856841, 1745, 271, -2796, -575, -131, 247
2.857854, -310, 276, -2348, -704, 52, 18
2.858867, -1043, 40, -275, -699, 145, -21
2.859881, -1127, 370, -1749, -598, 155, -21
2.860894, -1983, 924, -3961, -686, 128, 13
2.861907, -2263, 791, -3238, -926, 70, 96
2.862921, -1458, -120, 936, -931, 42, 147
2.863934, -795, -380, 3052, -524, 44, 122
2.864948, -1324, 667, -877, -171, 33, 81
2.865961, -2430, 1357, -3711, -273, -4, 110
2.866974, -2807, 688, -1278, -471, -59, 215
2.867988, -1992, 86, -380, -413, -101, 333
2.869002, -968, 592, -3826, -431, -109, 381
2.870015, -413, 775, -3763, -708, -119, 323
