Time, ax, ay, az, gx, gy, gz
0.000077, -1140, 656, -1581, 41, -17, -27
0.000367, -1138, 653, -1587, 38, -18, -27
0.001376, -1133, 653, -1589, 36, -19, -27
0.002389, -1133, 651, -1587, 34, -19, -28
0.003403, -1133, 648, -1585, 31, -18, -30
0.004416, -1131, 645, -1584, 28, -17, -32
0.005431, -1131, 645, -1579, 26, -17, -34
0.006444, -1136, 644, -1574, 24, -18, -36
0.007456, -1141, 641, -1568, 21, -18, -37
0.008470, -1143, 638, -1565, 20, -18, -37
0.009483, -1145, 634, -1564, 19, -19, -37
0.010496, -1146, 628, -1559, 18, -20, -39
0.011510, -1150, 625, -1554, 18, -21, -39
0.012523, -1152, 624, -1557, 17, -21, -39
0.013537, -1154, 622, -1561, 16, -21, -38
0.014545, -1157, 617, -1561, 17, -21, -38
0.015563, -1155, 610, -1563, 16, -21, -38
0.016577, -1155, 604, -1565, 14, -20, -39
0.017590, -1158, 602, -1569, 12, -19, -39
0.018604, -1159, 602, -1571, 12, -18, -38
0.019617, -1161, 599, -1572, 10, -18, -38
0.020631, -1164, 593, -1574, 8, -17, -38
0.021644, -1166, 590, -1578, 7, -17, -37
0.022657, -1169, 588, -1578, 6, -16, -35
0.023671, -1173, 586, -1575, 5, -14, -34
0.024685, -1174, 583, -1572, 4, -13, -35
0.025698, -1175, 579, -1571, 3, -12, -34
0.026711, -1180, 576, -1570, 2, -12, -32
0.027725, -1183, 575, -1567, 1, -12, -31
0.028738, -1185, 576, -1564, 1, -13, -31
0.029752, -1189, 575, -1562, 1, -12, -30
0.030765, -1192, 572, -1559, 1, -12, -28
0.031778, -1195, 570, -1555, 2, -14, -27
0.032792, -1200, 569, -1552, 3, -15, -26
0.033805, -1203, 569, -1551, 4, -16, -25
0.034819, -1204, 569, -1549, 5, -17, -23
0.035832, -1204, 567, -1545, 6, -18, -20
0.036846, -1205, 565, -1543, 7, -19, -18
0.037859, -1209, 562, -1546, 9, -20, -16
0.038873, -1209, 560, -1551, 9, -20, -13
0.039886, -1208, 560, -1556, 9, -21, -11
0.040900, -1210, 559, -1560, 9, -22, -10
0.041913, -1214, 559, -1563, 9, -22, -8
0.042926, -1218, 562, -1567, 8, -20, -6
0.043936, -1223, 563, -1567, 6, -19, -4
0.044953, -1227, 563, -1564, 4, -18, -2
0.045967, -1234, 562, -1559, 3, -17, 2
0.046980, -1242, 564, -1555, 1, -15, 6
0.047993, -1244, 567, -1552, -1, -13, 9
0.049007, -1245, 569, -1549, -3, -13, 12
0.050020, -1248, 570, -1544, -4, -13, 16
0.051034, -1246, 567, -1541, -6, -12, 21
0.052047, -1241, 562, -1541, -7, -11, 24
0.053062, -1239, 559, -1542, -9, -9, 27
0.054074, -1239, 561, -1541, -11, -8, 31
0.055088, -1237, 563, -1537, -12, -6, 33
0.056101, -1237, 563, -1536, -13, -3, 35
0.057114, -1238, 564, -1537, -14, -1, 40
0.058130, -1237, 567, -1539, -15, 1, 43
0.059142, -1236, 568, -1541, -16, 2, 46
0.060155, -1236, 570, -1542, -18, 5, 49
0.061168, -1236, 574, -1543, -19, 8, 52
0.062182, -1238, 577, -1545, -20, 10, 55
0.063195, -1239, 582, -1548, -22, 11, 58
0.064209, -1238, 587, -1550, -25, 13, 61
0.065223, -1236, 589, -1552, -26, 14, 65
0.066236, -1236, 592, -1556, -28, 14, 68
0.067249, -1233, 594, -1561, -30, 14, 71
0.068262, -1226, 596, -1563, -33, 15, 74
0.069276, -1217, 598, -1559, -37, 16, 78
0.070289, -1206, 601, -1554, -40, 20, 81
0.071303, -1194, 605, -1550, -43, 24, 83
0.072316, -1187, 609, -1548, -45, 25, 84
0.073330, -1181, 611, -1543, -45, 26, 85
0.074343, -1175, 615, -1535, -45, 25, 84
0.075359, -1171, 617, -1528, -45, 24, 83
0.076370, -1170, 618, -1522, -46, 25, 83
0.077383, -1171, 620, -1518, -45, 26, 82
0.078397, -1171, 625, -1516, -43, 27, 80
0.079410, -1172, 629, -1516, -41, 28, 79
0.080424, -1172, 632, -1515, -38, 26, 79
0.081437, -1172, 637, -1513, -37, 24, 80
0.082451, -1172, 643, -1513, -36, 22, 80
0.083464, -1169, 646, -1515, -35, 20, 79
0.084478, -1167, 647, -1514, -33, 20, 79
0.085491, -1165, 647, -1512, -32, 20, 79
0.086504, -1164, 649, -1514, -29, 19, 79
0.087518, -1163, 653, -1517, -27, 18, 80
0.088531, -1159, 658, -1519, -25, 17, 81
0.089545, -1151, 659, -1521, -24, 16, 79
0.090558, -1142, 661, -1528, -24, 15, 78
0.091572, -1138, 666, -1534, -24, 15, 77
0.092585, -1134, 668, -1534, -22, 15, 77
0.093598, -1130, 670, -1532, -22, 15, 76
0.094614, -1129, 675, -1532, -23, 14, 75
0.095626, -1127, 680, -1533, -24, 14, 73
0.096639, -1123, 683, -1532, -24, 15, 71
0.097652, -1120, 687, -1533, -24, 16, 69
0.098666, -1117, 689, -1535, -23, 16, 68
0.099679, -1114, 691, -1532, -22, 16, 67
0.100694, -1113, 694, -1527, -23, 16, 65
0.101706, -1109, 697, -1523, -23, 15, 62
0.102720, -1106, 702, -1521, -21, 14, 60
0.103728, -1104, 705, -1519, -20, 14, 59
0.104747, -1101, 707, -1519, -19, 14, 58
0.105761, -1099, 709, -1523, -18, 14, 55
0.106779, -1098, 714, -1528, -16, 12, 51
0.107812, -1099, 717, -1531, -15, 11, 48
0.108803, -1099, 716, -1532, -14, 10, 45
0.109813, -1099, 716, -1535, -12, 8, 42
0.110827, -1100, 716, -1540, -12, 7, 38
0.111841, -1097, 716, -1546, -10, 6, 34
0.112854, -1094, 717, -1552, -9, 5, 31
0.113867, -1098, 715, -1553, -9, 4, 28
0.114881, -1103, 713, -1553, -9, 2, 25
0.115894, -1106, 716, -1558, -9, -1, 22
0.116907, -1109, 718, -1561, -9, -4, 18
0.117921, -1111, 713, -1560, -9, -6, 15
0.118934, -1114, 708, -1560, -10, -9, 12
0.119944, -1118, 706, -1558, -10, -11, 10
0.120962, -1124, 706, -1555, -11, -12, 7
0.121975, -1127, 705, -1552, -13, -14, 5
0.122988, -1128, 703, -1547, -13, -16, 2
0.124002, -1132, 701, -1540, -13, -17, -1
0.125015, -1136, 699, -1532, -14, -18, -3
0.126029, -1137, 697, -1522, -15, -18, -5
0.127042, -1140, 694, -1514, -16, -19, -7
0.128056, -1144, 690, -1506, -15, -19, -8
0.129070, -1145, 686, -1497, -13, -19, -9
0.130083, -1145, 685, -1490, -11, -19, -10
0.131096, -1150, 682, -1485, -11, -19, -10
0.132109, -1155, 676, -1483, -9, -18, -11
0.133123, -1158, 672, -1480, -5, -18, -11
0.134137, -1161, 669, -1478, -3, -18, -11
0.135150, -1167, 665, -1477, -2, -17, -12
0.136163, -1175, 663, -1479, 0, -16, -13
0.137177, -1178, 662, -1484, 3, -16, -13
0.138190, -1181, 660, -1491, 4, -15, -13
0.139204, -1186, 658, -1495, 5, -13, -12
0.140217, -1188, 658, -1499, 7, -13, -11
0.141231, -1191, 657, -1507, 7, -14, -11
0.142244, -1196, 653, -1515, 6, -13, -10
0.143257, -1199, 652, -1521, 6, -13, -8
0.144271, -1200, 654, -1527, 6, -12, -6
0.145284, -1200, 653, -1534, 4, -12, -4
0.146298, -1199, 651, -1539, 3, -12, -3
0.147311, -1198, 652, -1539, 1, -11, -2
0.148326, -1197, 654, -1536, -1, -10, -1
0.149339, -1197, 654, -1533, -2, -9, -1
0.150355, -1195, 653, -1527, -4, -9, 0
0.151366, -1192, 656, -1519, -5, -7, 1
0.152379, -1190, 660, -1516, -7, -6, 0
0.153392, -1190, 659, -1516, -7, -6, -1
0.154405, -1190, 657, -1519, -7, -6, -1
0.155418, -1193, 656, -1527, -8, -6, -1
0.156432, -1197, 660, -1534, -9, -5, -1
0.157446, -1200, 662, -1538, -11, -3, -1
0.158461, -1199, 661, -1534, -15, 0, 0
0.159473, -1192, 658, -1526, -20, 4, 2
0.160486, -1183, 657, -1518, -23, 7, 4
0.161500, -1180, 656, -1507, -24, 9, 3
0.162513, -1181, 652, -1495, -24, 9, 0
0.163526, -1188, 647, -1487, -24, 9, -2
0.164539, -1200, 645, -1481, -22, 9, -2
0.165553, -1210, 648, -1472, -19, 8, -2
0.166567, -1216, 649, -1464, -16, 6, -2
0.167580, -1220, 648, -1459, -12, 3, -1
0.168594, -1225, 649, -1453, -8, 1, 1
0.169607, -1228, 650, -1449, -3, -2, 3
0.170621, -1228, 652, -1448, 1, -5, 5
0.171634, -1228, 654, -1450, 5, -9, 8
0.172647, -1227, 652, -1453, 8, -12, 10
0.173661, -1223, 647, -1457, 11, -15, 11
0.174674, -1217, 644, -1459, 15, -18, 12
0.175688, -1212, 646, -1460, 17, -20, 14
0.176701, -1211, 645, -1464, 20, -21, 15
0.177715, -1209, 640, -1471, 22, -22, 16
0.178728, -1204, 639, -1483, 24, -23, 17
0.179741, -1202, 640, -1496, 26, -23, 18
0.180755, -1206, 641, -1510, 25, -24, 18
0.181768, -1210, 641, -1522, 24, -23, 18
0.182782, -1206, 641, -1528, 22, -19, 20
0.183795, -1196, 641, -1528, 19, -15, 23
0.184809, -1186, 642, -1526, 16, -11, 25
0.185822, -1180, 641, -1524, 12, -8, 27
0.186836, -1177, 639, -1521, 11, -6, 26
0.187849, -1178, 639, -1522, 10, -6, 25
0.188862, -1183, 641, -1525, 9, -6, 24
0.189876, -1185, 645, -1526, 9, -6, 24
0.190890, -1187, 647, -1526, 8, -6, 22
0.191903, -1189, 650, -1523, 9, -6, 22
0.192916, -1189, 653, -1523, 10, -8, 23
0.193929, -1186, 657, -1525, 11, -10, 24
0.194943, -1184, 659, -1528, 10, -12, 25
0.195956, -1182, 662, -1530, 10, -13, 25
0.196970, -1177, 663, -1531, 10, -14, 24
0.197983, -1174, 662, -1535, 10, -15, 24
0.198997, -1171, 661, -1539, 9, -16, 24
0.200011, -1167, 661, -1538, 7, -17, 22
0.201024, -1166, 659, -1538, 5, -18, 21
0.202037, -1164, 659, -1541, 4, -19, 21
0.203051, -1163, 659, -1547, 3, -19, 19
0.204064, -1165, 657, -1556, 0, -20, 17
0.205078, -1168, 657, -1562, -4, -19, 16
0.206091, -1166, 658, -1563, -8, -17, 17
0.207104, -1163, 657, -1560, -13, -12, 17
0.208118, -1159, 654, -1553, -18, -7, 17
0.209131, -1156, 650, -1547, -21, -3, 15
0.210144, -1155, 645, -1541, -24, 0, 14
0.211158, -1157, 641, -1535, -26, 1, 13
0.212172, -1161, 641, -1530, -27, 2, 12
0.213185, -1167, 643, -1524, -28, 2, 10
0.214198, -1177, 641, -1523, -29, 2, 10
0.215212, -1184, 640, -1522, -30, 2, 11
0.216226, -1188, 640, -1520, -30, 2, 12
0.217240, -1191, 642, -1519, -30, 2, 13
0.218252, -1193, 644, -1521, -29, 3, 14
0.219266, -1192, 644, -1523, -30, 2, 16
0.220279, -1187, 644, -1524, -30, 1, 18
0.221292, -1182, 647, -1525, -29, 1, 20
0.222308, -1178, 648, -1524, -29, 1, 21
0.223320, -1175, 646, -1527, -30, 1, 21
0.224333, -1172, 644, -1533, -31, 0, 21
0.225346, -1169, 646, -1535, -31, 0, 22
0.226360, -1167, 648, -1534, -31, 1, 22
0.227373, -1165, 652, -1536, -31, 0, 22
0.228387, -1165, 656, -1538, -31, -1, 22
0.229401, -1169, 658, -1536, -32, -1, 21
0.230414, -1171, 658, -1535, -34, -1, 21
0.231427, -1169, 658, -1533, -34, -1, 22
0.232441, -1168, 661, -1530, -34, -2, 22
0.233454, -1166, 663, -1529, -34, -2, 21
0.234469, -1163, 663, -1529, -34, -2, 21
0.235482, -1160, 662, -1527, -34, -3, 22
0.236495, -1157, 664, -1525, -34, -4, 22
0.237508, -1155, 667, -1525, -34, -4, 22
0.238521, -1155, 669, -1525, -34, -3, 22
0.239534, -1154, 669, -1523, -33, -3, 23
0.240548, -1154, 671, -1521, -31, -4, 23
0.241561, -1152, 674, -1517, -30, -3, 23
0.242575, -1150, 674, -1514, -29, -3, 23
0.243588, -1146, 674, -1513, -28, -3, 23
0.244602, -1142, 676, -1512, -28, -3, 22
0.245615, -1141, 675, -1511, -25, -1, 21
0.246628, -1141, 672, -1516, -23, -1, 21
0.247642, -1142, 671, -1520, -21, -1, 21
0.248656, -1143, 671, -1522, -20, -1, 21
0.249669, -1144, 670, -1527, -20, -1, 20
0.250682, -1145, 668, -1533, -19, 0, 21
0.251696, -1143, 667, -1537, -17, 0, 20
0.252712, -1145, 666, -1540, -16, 0, 20
0.253724, -1149, 669, -1536, -16, 0, 20
0.254736, -1150, 670, -1532, -17, 1, 20
0.255750, -1148, 668, -1531, -16, 0, 21
0.256763, -1150, 667, -1525, -14, 0, 20
0.257798, -1155, 663, -1521, -13, 1, 21
0.258977, -1153, 660, -1522, -11, 1, 22
0.259816, -1148, 662, -1522, -9, 1, 22
0.260835, -1145, 664, -1521, -8, 2, 23
0.261837, -1146, 664, -1522, -8, 2, 24
0.262853, -1148, 664, -1523, -6, 1, 24
0.263860, -1150, 664, -1525, -4, 1, 25
0.264892, -1149, 664, -1529, -2, 1, 25
0.265889, -1147, 665, -1534, -2, 0, 24
0.266897, -1145, 667, -1537, -2, -1, 25
0.267911, -1144, 670, -1540, 0, -1, 26
0.268924, -1143, 668, -1546, 1, -1, 26
0.269937, -1139, 666, -1557, 1, 0, 26
0.270951, -1139, 667, -1567, 0, -1, 26
0.271965, -1143, 670, -1573, -3, 0, 26
0.272977, -1142, 672, -1574, -7, 3, 26
0.273991, -1128, 673, -1569, -11, 8, 28
0.275004, -1112, 672, -1561, -14, 12, 29
0.276014, -1105, 669, -1553, -16, 13, 28
0.277031, -1106, 665, -1545, -16, 12, 25
0.278045, -1113, 664, -1537, -16, 12, 22
0.279058, -1121, 663, -1533, -15, 13, 19
0.280072, -1127, 663, -1530, -13, 13, 17
0.281086, -1132, 667, -1527, -12, 13, 16
0.282101, -1135, 669, -1522, -10, 11, 16
0.283109, -1137, 669, -1519, -8, 9, 16
0.284127, -1138, 671, -1521, -5, 8, 16
0.285140, -1137, 672, -1524, -2, 8, 15
0.286153, -1135, 670, -1527, -1, 8, 15
0.287166, -1132, 670, -1531, 0, 7, 15
0.288182, -1131, 669, -1534, 1, 6, 15
0.289194, -1132, 666, -1536, 0, 5, 14
0.290206, -1129, 664, -1540, 1, 5, 13
0.291220, -1129, 664, -1541, 2, 4, 12
0.292234, -1132, 664, -1539, 2, 4, 10
0.293247, -1136, 665, -1541, 3, 3, 9
0.294261, -1139, 666, -1543, 2, 3, 8
0.295274, -1140, 664, -1546, 3, 3, 7
0.296287, -1142, 662, -1549, 3, 4, 7
0.297301, -1143, 659, -1549, 1, 5, 7
0.298314, -1144, 657, -1549, 0, 6, 7
0.299328, -1143, 659, -1548, 0, 7, 6
0.300341, -1144, 661, -1548, 0, 8, 6
0.301354, -1144, 660, -1549, -1, 9, 6
0.302368, -1144, 659, -1550, -3, 10, 6
0.303381, -1145, 660, -1552, -3, 12, 5
0.304395, -1147, 658, -1552, -2, 13, 4
0.305409, -1147, 657, -1550, -2, 13, 4
0.306422, -1147, 658, -1552, -3, 14, 4
0.307436, -1151, 658, -1554, -4, 16, 4
0.308449, -1155, 654, -1554, -4, 16, 3
0.309462, -1156, 651, -1555, -5, 16, 2
0.310475, -1157, 653, -1560, -6, 16, 2
0.311489, -1162, 657, -1573, -8, 16, 1
0.312502, -1174, 658, -1587, -12, 15, 0
0.313515, -1181, 661, -1588, -17, 17, 2
0.314529, -1169, 666, -1575, -21, 25, 8
0.315543, -1149, 667, -1558, -25, 31, 10
0.316556, -1140, 659, -1548, -27, 33, 9
0.317570, -1140, 653, -1539, -27, 32, 6
0.318583, -1144, 655, -1526, -26, 32, 2
0.319596, -1154, 659, -1514, -25, 32, -1
0.320610, -1165, 660, -1506, -23, 32, -2
0.321623, -1174, 658, -1498, -20, 30, -4
0.322637, -1182, 661, -1490, -16, 28, -6
0.323650, -1190, 667, -1481, -12, 25, -7
0.324664, -1193, 669, -1475, -7, 22, -5
0.325677, -1193, 671, -1474, -3, 20, -4
0.326690, -1193, 674, -1476, 0, 16, -3
0.327707, -1191, 675, -1479, 4, 14, -2
0.328718, -1189, 675, -1480, 8, 14, -1
0.329731, -1187, 675, -1479, 11, 12, -1
0.330744, -1183, 675, -1478, 12, 10, -2
0.331758, -1179, 674, -1479, 15, 10, -2
0.332771, -1179, 672, -1481, 17, 10, -1
0.333784, -1179, 674, -1483, 19, 9, 0
0.334798, -1184, 676, -1484, 20, 6, -2
0.335811, -1192, 676, -1484, 23, 4, -3
0.336825, -1196, 675, -1486, 24, 3, -3
0.337838, -1194, 676, -1489, 24, 4, -2
0.338851, -1192, 677, -1494, 24, 4, -2
0.339865, -1193, 677, -1506, 25, 4, -1
0.340879, -1197, 679, -1520, 24, 4, 0
0.341892, -1203, 681, -1528, 22, 3, 0
0.342905, -1205, 685, -1530, 18, 5, 1
0.343919, -1195, 687, -1526, 14, 12, 5
0.344932, -1179, 683, -1522, 9, 18, 8
0.345946, -1167, 677, -1521, 6, 21, 10
0.346960, -1161, 675, -1523, 4, 23, 8
0.347973, -1159, 673, -1524, 1, 26, 5
0.348986, -1161, 673, -1520, -1, 28, 2
0.349999, -1167, 675, -1510, -3, 29, 1
0.351013, -1174, 675, -1506, -5, 29, 0
0.352027, -1179, 678, -1505, -5, 29, -1
0.353035, -1182, 683, -1497, -5, 28, -1
0.354054, -1184, 688, -1489, -4, 28, -1
0.355067, -1185, 691, -1485, -3, 28, 0
0.356080, -1184, 695, -1486, -3, 26, 0
0.357096, -1182, 695, -1487, -2, 25, 0
0.358108, -1179, 693, -1487, 0, 25, 0
0.359122, -1177, 693, -1486, 2, 23, 0
0.360134, -1176, 693, -1486, 5, 21, 0
0.361147, -1171, 691, -1489, 7, 19, -1
0.362161, -1167, 689, -1491, 9, 17, -2
0.363175, -1165, 689, -1494, 11, 15, -3
0.364188, -1164, 689, -1501, 13, 14, -5
0.365201, -1162, 688, -1509, 14, 13, -5
0.366215, -1159, 687, -1518, 15, 13, -7
0.367228, -1158, 688, -1527, 14, 12, -10
0.368242, -1159, 686, -1533, 13, 12, -11
0.369255, -1160, 681, -1538, 13, 12, -12
0.370268, -1160, 677, -1545, 12, 12, -12
0.371282, -1162, 673, -1552, 9, 13, -12
0.372295, -1163, 669, -1559, 8, 14, -13
0.373309, -1163, 666, -1562, 5, 15, -15
0.374322, -1163, 663, -1561, 1, 16, -16
0.375336, -1160, 661, -1564, -2, 16, -17
0.376349, -1159, 660, -1567, -5, 18, -16
0.377363, -1163, 658, -1567, -8, 20, -17
0.378376, -1165, 654, -1564, -10, 21, -18
0.379390, -1166, 648, -1560, -11, 21, -18
0.380403, -1166, 645, -1555, -13, 23, -17
0.381417, -1165, 644, -1550, -16, 25, -18
0.382430, -1167, 645, -1546, -18, 26, -18
0.383443, -1168, 644, -1539, -19, 27, -18
0.384456, -1170, 639, -1532, -20, 28, -17
0.385470, -1172, 634, -1527, -20, 29, -16
0.386483, -1171, 630, -1526, -19, 29, -15
0.387497, -1173, 628, -1525, -17, 29, -14
0.388510, -1177, 627, -1526, -16, 30, -14
0.389524, -1182, 624, -1526, -15, 31, -14
0.390537, -1186, 621, -1523, -14, 31, -13
0.391551, -1191, 621, -1522, -14, 32, -11
0.392564, -1197, 620, -1526, -12, 31, -11
0.393578, -1202, 617, -1531, -11, 30, -9
0.394591, -1205, 618, -1535, -11, 30, -6
0.395604, -1209, 617, -1537, -10, 30, -3
0.396618, -1214, 615, -1535, -9, 30, -1
0.397631, -1216, 616, -1534, -10, 29, 2
0.398644, -1214, 620, -1533, -10, 28, 5
0.399658, -1214, 620, -1533, -9, 27, 6
0.400672, -1219, 619, -1531, -8, 26, 8
0.401685, -1222, 621, -1527, -8, 25, 11
0.402698, -1220, 621, -1522, -7, 25, 15
0.403712, -1219, 624, -1517, -7, 23, 17
0.404726, -1220, 627, -1514, -6, 22, 20
0.405739, -1218, 629, -1512, -5, 23, 22
0.406752, -1213, 630, -1513, -4, 22, 24
0.407766, -1209, 632, -1512, -3, 22, 26
0.408779, -1207, 634, -1512, -3, 23, 29
0.409793, -1202, 637, -1516, -2, 23, 31
0.410807, -1194, 642, -1519, 1, 23, 32
0.411819, -1188, 641, -1522, 1, 24, 35
0.412833, -1187, 641, -1527, 1, 24, 37
0.413846, -1185, 646, -1535, 0, 25, 38
0.414860, -1181, 650, -1542, -1, 26, 39
0.415873, -1176, 652, -1547, -3, 28, 38
0.416887, -1173, 655, -1551, -5, 27, 39
0.417900, -1170, 658, -1552, -7, 28, 40
0.418913, -1169, 659, -1555, -9, 29, 41
0.419927, -1168, 664, -1555, -11, 29, 41
0.420940, -1166, 668, -1553, -15, 29, 41
0.421954, -1162, 669, -1553, -17, 29, 41
0.422967, -1155, 671, -1556, -18, 29, 42
0.423981, -1150, 675, -1556, -20, 28, 41
0.424994, -1147, 677, -1555, -22, 28, 40
0.426007, -1142, 676, -1553, -23, 28, 39
0.427021, -1132, 678, -1552, -25, 27, 38
0.428035, -1124, 682, -1550, -27, 27, 37
0.429048, -1123, 684, -1548, -28, 28, 36
0.430062, -1124, 685, -1548, -29, 28, 34
0.431075, -1123, 687, -1548, -30, 27, 33
0.432091, -1121, 690, -1546, -31, 27, 31
0.433102, -1120, 692, -1543, -31, 27, 28
0.434117, -1120, 696, -1545, -31, 27, 26
0.435129, -1122, 698, -1548, -31, 26, 25
0.436142, -1124, 698, -1546, -31, 24, 23
0.437155, -1125, 697, -1543, -30, 21, 22
0.438170, -1128, 700, -1546, -29, 20, 21
0.439183, -1131, 703, -1549, -29, 18, 19
0.440196, -1130, 703, -1552, -30, 15, 19
0.441210, -1128, 702, -1557, -30, 13, 20
0.442223, -1124, 701, -1560, -31, 12, 18
0.443236, -1122, 703, -1562, -32, 10, 16
0.444250, -1122, 705, -1564, -33, 9, 16
0.445263, -1117, 704, -1566, -34, 7, 15
0.446276, -1108, 702, -1569, -37, 7, 13
0.447290, -1105, 703, -1571, -38, 8, 13
0.448304, -1105, 704, -1568, -40, 9, 10
0.449317, -1099, 702, -1565, -42, 9, 7
0.450330, -1093, 702, -1562, -44, 9, 4
0.451344, -1092, 703, -1560, -46, 9, 0
0.452357, -1095, 703, -1556, -48, 10, -2
0.453373, -1098, 702, -1552, -48, 10, -4
0.454384, -1101, 700, -1552, -48, 10, -6
0.455397, -1106, 698, -1551, -48, 10, -9
0.456411, -1111, 698, -1549, -49, 9, -11
0.457425, -1112, 697, -1547, -49, 9, -13
0.458438, -1112, 695, -1546, -49, 9, -15
0.459451, -1114, 697, -1544, -49, 8, -15
0.460467, -1117, 701, -1541, -49, 7, -15
0.461478, -1119, 702, -1542, -49, 5, -16
0.462492, -1120, 703, -1543, -48, 5, -18
0.463505, -1119, 701, -1541, -47, 3, -19
0.464518, -1117, 697, -1542, -46, 0, -19
0.465532, -1113, 697, -1548, -46, -1, -21
0.466545, -1110, 696, -1548, -46, -3, -23
0.467559, -1108, 691, -1546, -45, -5, -25
0.468572, -1109, 689, -1550, -45, -7, -27
0.469585, -1111, 688, -1557, -45, -8, -29
0.470599, -1111, 684, -1559, -44, -11, -32
0.471612, -1112, 682, -1560, -43, -12, -35
0.472626, -1116, 681, -1564, -42, -12, -37
0.473639, -1123, 678, -1566, -42, -13, -39
0.474653, -1129, 675, -1565, -43, -15, -40
0.475666, -1133, 672, -1565, -44, -15, -40
0.476680, -1137, 670, -1566, -44, -14, -41
0.477693, -1140, 669, -1568, -44, -14, -43
0.478706, -1143, 666, -1570, -44, -13, -43
0.479720, -1142, 662, -1570, -45, -13, -42
0.480734, -1142, 660, -1572, -46, -12, -42
0.481747, -1150, 660, -1576, -46, -11, -43
0.482760, -1155, 661, -1578, -47, -11, -43
0.483775, -1151, 660, -1577, -48, -10, -42
0.484787, -1150, 658, -1575, -50, -9, -42
0.485800, -1154, 658, -1571, -51, -9, -43
0.486814, -1157, 660, -1569, -53, -10, -44
0.487828, -1159, 660, -1567, -55, -10, -43
0.488841, -1159, 661, -1564, -56, -10, -42
0.489854, -1157, 663, -1559, -57, -10, -42
0.490870, -1156, 664, -1557, -58, -11, -42
0.491884, -1157, 666, -1554, -60, -11, -42
0.492895, -1156, 669, -1550, -61, -11, -42
0.493909, -1152, 672, -1546, -61, -11, -43
0.494922, -1149, 674, -1541, -62, -10, -44
0.495935, -1145, 674, -1534, -63, -9, -45
0.496948, -1143, 675, -1530, -65, -9, -46
0.497962, -1143, 678, -1524, -65, -9, -47
0.498975, -1142, 678, -1515, -64, -8, -48
0.499989, -1142, 678, -1501, -64, -8, -51
0.501002, -1142, 678, -1488, -64, -8, -53
0.502016, -1142, 673, -1484, -61, -8, -54
0.503032, -1143, 667, -1481, -57, -9, -55
0.504042, -1148, 667, -1475, -53, -9, -57
0.505056, -1155, 667, -1477, -51, -9, -60
0.506069, -1163, 663, -1485, -48, -9, -62
0.507083, -1174, 658, -1492, -45, -10, -63
0.508098, -1185, 659, -1500, -42, -12, -63
0.509111, -1193, 659, -1509, -40, -13, -63
0.510123, -1198, 657, -1518, -40, -14, -61
0.511137, -1201, 655, -1531, -39, -15, -58
0.512150, -1203, 651, -1544, -40, -15, -56
0.513164, -1203, 647, -1552, -42, -15, -54
0.514177, -1200, 645, -1556, -43, -14, -52
0.515191, -1199, 646, -1558, -44, -13, -51
0.516204, -1198, 645, -1556, -48, -12, -50
0.517217, -1194, 642, -1552, -52, -11, -50
0.518231, -1191, 639, -1549, -53, -10, -48
0.519245, -1188, 638, -1546, -53, -9, -47
0.520257, -1188, 642, -1543, -53, -7, -46
0.521271, -1192, 644, -1544, -54, -5, -45
0.522285, -1195, 643, -1548, -55, -3, -46
0.523298, -1198, 644, -1553, -56, -1, -45
0.524311, -1202, 648, -1560, -58, 0, -44
0.525325, -1205, 653, -1563, -61, 2, -42
0.526339, -1204, 657, -1561, -64, 6, -40
0.527351, -1201, 660, -1560, -69, 11, -39
0.528365, -1197, 663, -1562, -73, 14, -39
0.529378, -1194, 664, -1564, -75, 16, -38
0.530392, -1194, 663, -1567, -78, 18, -38
0.531405, -1199, 664, -1566, -83, 22, -39
0.532419, -1199, 665, -1556, -88, 28, -37
0.533432, -1186, 667, -1539, -92, 34, -34
0.534445, -1171, 668, -1522, -94, 39, -33
0.535461, -1171, 667, -1512, -93, 42, -36
0.536473, -1180, 666, -1508, -91, 44, -39
0.537486, -1189, 667, -1501, -90, 44, -41
0.538502, -1201, 670, -1491, -89, 45, -41
0.539513, -1214, 673, -1482, -88, 45, -40
0.540526, -1223, 672, -1473, -85, 45, -38
0.541540, -1230, 672, -1463, -81, 44, -37
0.542553, -1234, 676, -1457, -77, 42, -34
0.543567, -1234, 681, -1455, -73, 40, -30
0.544580, -1230, 681, -1453, -70, 40, -28
0.545594, -1227, 678, -1455, -67, 40, -26
0.546607, -1222, 674, -1457, -62, 39, -24
0.547621, -1213, 672, -1459, -59, 38, -22
0.548634, -1207, 674, -1464, -57, 37, -21
0.549647, -1206, 673, -1470, -54, 37, -20
0.550661, -1205, 672, -1478, -52, 37, -18
0.551674, -1202, 675, -1487, -51, 39, -16
0.552688, -1197, 681, -1493, -52, 42, -16
0.553701, -1192, 683, -1497, -52, 46, -16
0.554714, -1187, 684, -1502, -53, 50, -15
0.555728, -1183, 685, -1504, -54, 53, -15
0.556742, -1179, 685, -1500, -55, 55, -17
0.557754, -1177, 687, -1497, -54, 58, -18
0.558768, -1179, 692, -1498, -52, 59, -18
0.559782, -1182, 696, -1497, -52, 61, -19
0.560797, -1185, 698, -1495, -52, 64, -21
0.561809, -1187, 698, -1497, -51, 67, -23
0.562822, -1189, 698, -1500, -50, 68, -24
0.563835, -1191, 702, -1501, -51, 70, -25
0.564850, -1185, 706, -1505, -51, 73, -27
0.565863, -1180, 708, -1511, -50, 76, -29
0.566876, -1178, 711, -1516, -51, 79, -29
0.567890, -1172, 714, -1519, -53, 82, -29
0.568903, -1162, 717, -1520, -55, 84, -30
0.569916, -1156, 720, -1516, -56, 86, -31
0.570930, -1153, 719, -1506, -57, 87, -32
0.571943, -1149, 715, -1494, -56, 86, -33
0.572957, -1150, 712, -1484, -55, 83, -35
0.573970, -1157, 711, -1474, -54, 79, -38
0.574983, -1167, 715, -1464, -52, 75, -41
0.575997, -1175, 717, -1459, -49, 71, -43
0.577010, -1183, 716, -1459, -45, 66, -44
0.578025, -1192, 717, -1459, -42, 61, -45
0.579037, -1198, 716, -1466, -38, 56, -44
0.580051, -1195, 714, -1474, -34, 53, -41
0.581064, -1190, 712, -1480, -32, 51, -38
0.582077, -1186, 707, -1492, -30, 48, -36
0.583091, -1179, 702, -1508, -30, 45, -36
0.584105, -1169, 699, -1518, -30, 43, -36
0.585118, -1160, 695, -1530, -30, 44, -35
0.586131, -1156, 690, -1547, -30, 46, -34
0.587145, -1152, 685, -1557, -31, 48, -34
0.588158, -1146, 682, -1561, -34, 51, -35
0.589171, -1144, 679, -1568, -38, 54, -37
0.590185, -1149, 677, -1577, -42, 55, -38
0.591198, -1155, 676, -1585, -46, 57, -37
0.592212, -1161, 675, -1600, -50, 59, -38
0.593225, -1169, 677, -1621, -56, 61, -39
0.594239, -1179, 685, -1649, -63, 62, -39
0.595252, -1195, 689, -1684, -73, 64, -38
0.596265, -1211, 690, -1714, -88, 68, -36
0.597279, -1210, 694, -1732, -106, 76, -31
0.598292, -1188, 698, -1733, -126, 90, -22
0.599306, -1160, 694, -1723, -145, 104, -16
0.600320, -1136, 687, -1705, -163, 115, -13
0.601333, -1118, 679, -1677, -178, 124, -13
0.602346, -1109, 669, -1647, -192, 131, -15
0.603360, -1108, 661, -1614, -201, 136, -19
0.604373, -1113, 655, -1578, -204, 140, -24
0.605387, -1124, 648, -1549, -204, 141, -28
0.606400, -1143, 648, -1532, -202, 140, -32
0.607414, -1165, 655, -1529, -196, 136, -35
0.608427, -1185, 662, -1541, -192, 131, -35
0.609441, -1202, 669, -1559, -191, 128, -34
0.610452, -1208, 676, -1575, -192, 131, -29
0.611467, -1195, 677, -1587, -193, 140, -22
0.612481, -1170, 668, -1600, -196, 148, -16
0.613494, -1141, 663, -1610, -200, 155, -13
0.614508, -1111, 663, -1615, -205, 160, -11
0.615521, -1092, 659, -1608, -211, 166, -13
0.616537, -1087, 646, -1588, -215, 170, -17
0.617548, -1098, 631, -1566, -215, 170, -22
0.618561, -1117, 623, -1548, -211, 165, -28
0.619583, -1141, 623, -1533, -205, 159, -34
0.620588, -1166, 628, -1524, -200, 151, -37
0.621602, -1189, 638, -1525, -194, 142, -38
0.622615, -1208, 648, -1531, -188, 135, -38
0.623628, -1219, 658, -1537, -182, 129, -35
0.624643, -1220, 665, -1542, -177, 124, -29
0.625658, -1208, 667, -1546, -172, 120, -22
0.626664, -1191, 668, -1549, -167, 115, -16
0.627682, -1177, 668, -1549, -162, 110, -12
0.628696, -1163, 665, -1550, -156, 105, -9
0.629709, -1147, 659, -1556, -151, 102, -9
0.630723, -1132, 657, -1567, -146, 100, -11
0.631736, -1123, 655, -1581, -142, 97, -12
0.632749, -1117, 655, -1601, -139, 93, -14
0.633763, -1114, 658, -1625, -138, 91, -17
0.634780, -1109, 664, -1639, -138, 93, -20
0.635795, -1104, 672, -1637, -141, 98, -23
0.636804, -1102, 677, -1623, -143, 104, -25
0.637817, -1104, 676, -1604, -145, 106, -28
0.638830, -1113, 675, -1584, -146, 106, -31
0.639843, -1130, 680, -1565, -143, 102, -34
0.640857, -1152, 684, -1546, -139, 97, -34
0.641871, -1170, 685, -1529, -133, 90, -35
0.642884, -1182, 689, -1516, -125, 82, -33
0.643897, -1191, 695, -1512, -115, 74, -30
0.644911, -1192, 701, -1516, -104, 67, -27
0.645924, -1183, 706, -1531, -93, 63, -24
0.646938, -1166, 706, -1550, -85, 59, -21
0.647951, -1147, 703, -1573, -79, 54, -20
0.648965, -1134, 704, -1598, -75, 50, -18
0.649978, -1128, 705, -1628, -72, 46, -18
0.650991, -1129, 704, -1662, -72, 43, -21
0.652005, -1135, 700, -1690, -75, 40, -24
0.653018, -1138, 698, -1711, -82, 38, -26
0.654034, -1136, 699, -1720, -92, 41, -27
0.655045, -1132, 701, -1713, -102, 44, -26
0.656058, -1132, 703, -1699, -111, 46, -27
0.657072, -1136, 705, -1690, -118, 47, -29
0.658085, -1143, 704, -1680, -122, 48, -30
0.659101, -1149, 702, -1666, -124, 48, -31
0.660113, -1154, 701, -1657, -125, 48, -31
0.661126, -1155, 699, -1650, -126, 46, -31
0.662139, -1156, 697, -1642, -126, 43, -33
0.663152, -1162, 695, -1635, -122, 42, -33
0.664166, -1168, 695, -1632, -118, 38, -35
0.665179, -1169, 699, -1629, -116, 30, -35
0.666193, -1167, 704, -1630, -115, 23, -35
0.667206, -1164, 709, -1637, -112, 25, -33
0.668220, -1160, 715, -1654, -108, 35, -31
0.669233, -1162, 721, -1683, -106, 45, -28
0.670247, -1169, 729, -1720, -106, 51, -26
0.671260, -1177, 734, -1760, -109, 50, -24
0.672273, -1188, 736, -1792, -116, 43, -23
0.673287, -1201, 738, -1805, -127, 37, -22
0.674300, -1204, 736, -1801, -139, 34, -21
0.675314, -1193, 730, -1780, -150, 34, -19
0.676328, -1180, 722, -1744, -158, 33, -17
0.677341, -1173, 714, -1709, -161, 33, -16
0.678355, -1171, 709, -1677, -161, 31, -16
0.679368, -1171, 704, -1649, -158, 29, -16
0.680384, -1175, 698, -1625, -152, 27, -17
0.681395, -1180, 696, -1609, -144, 24, -18
0.682408, -1186, 699, -1600, -134, 21, -19
0.683422, -1192, 701, -1596, -124, 16, -19
0.684435, -1196, 703, -1595, -112, 9, -19
0.685448, -1199, 706, -1603, -101, 0, -20
0.686461, -1200, 710, -1619, -90, -8, -19
0.687476, -1202, 715, -1637, -80, -18, -19
0.688489, -1207, 721, -1656, -74, -26, -19
0.689502, -1208, 724, -1674, -69, -33, -18
0.690516, -1204, 724, -1689, -64, -37, -16
0.691529, -1196, 722, -1700, -59, -39, -13
0.692542, -1189, 720, -1713, -56, -40, -12
0.693555, -1186, 718, -1727, -54, -40, -10
0.694569, -1186, 718, -1737, -54, -41, -9
0.695582, -1190, 722, -1745, -55, -44, -11
0.696596, -1195, 725, -1753, -57, -47, -13
0.697609, -1199, 726, -1760, -58, -50, -14
0.698623, -1206, 726, -1769, -58, -55, -14
0.699636, -1212, 728, -1781, -59, -60, -14
0.700650, -1217, 735, -1801, -62, -65, -13
0.701664, -1223, 744, -1826, -69, -70, -11
0.702677, -1223, 754, -1840, -79, -71, -9
0.703690, -1204, 761, -1837, -91, -67, -3
0.704704, -1180, 763, -1823, -101, -62, 2
0.705717, -1162, 761, -1805, -109, -57, 3
0.706730, -1145, 760, -1789, -116, -54, 0
0.707744, -1136, 760, -1771, -119, -54, -2
0.708757, -1139, 759, -1750, -121, -56, -5
0.709771, -1142, 758, -1734, -123, -60, -9
0.710784, -1144, 758, -1721, -121, -65, -14
0.711801, -1148, 758, -1708, -118, -69, -19
0.712811, -1154, 760, -1697, -113, -74, -23
0.713824, -1163, 766, -1696, -108, -79, -27
0.714838, -1171, 773, -1707, -102, -87, -29
0.715851, -1174, 782, -1720, -98, -95, -31
0.716865, -1177, 791, -1732, -98, -102, -33
0.717878, -1183, 791, -1735, -99, -104, -33
0.718892, -1180, 786, -1728, -100, -104, -31
0.719905, -1169, 783, -1722, -100, -103, -29
0.720919, -1159, 782, -1720, -100, -103, -28
0.721932, -1158, 778, -1717, -98, -106, -30
0.722946, -1161, 777, -1713, -96, -111, -34
0.723959, -1161, 776, -1709, -95, -115, -38
0.724972, -1162, 774, -1700, -93, -119, -41
0.725986, -1170, 775, -1690, -90, -125, -44
0.726999, -1178, 777, -1685, -87, -131, -48
0.728013, -1182, 780, -1686, -83, -137, -51
0.729021, -1188, 783, -1688, -80, -143, -54
0.730039, -1200, 785, -1685, -79, -149, -56
0.731053, -1198, 786, -1677, -78, -150, -54
0.732066, -1181, 789, -1668, -77, -149, -52
0.733082, -1172, 789, -1660, -75, -150, -51
0.734094, -1172, 784, -1658, -72, -155, -53
0.735105, -1171, 780, -1659, -68, -160, -56
0.736121, -1172, 779, -1660, -66, -164, -60
0.737134, -1178, 779, -1667, -64, -168, -64
0.738147, -1184, 779, -1679, -61, -173, -67
0.739162, -1194, 780, -1696, -62, -178, -69
0.740175, -1204, 784, -1711, -66, -181, -71
0.741187, -1200, 793, -1722, -70, -180, -69
0.742201, -1183, 796, -1733, -76, -178, -67
0.743215, -1166, 793, -1745, -84, -175, -67
0.744228, -1151, 791, -1749, -92, -173, -69
0.745242, -1140, 786, -1739, -102, -168, -73
0.746255, -1135, 777, -1716, -111, -162, -77
0.747268, -1135, 765, -1692, -118, -155, -81
0.748282, -1137, 759, -1673, -121, -149, -87
0.749295, -1144, 760, -1654, -123, -146, -92
0.750308, -1160, 761, -1641, -124, -145, -96
0.751322, -1180, 762, -1635, -124, -143, -100
0.752335, -1199, 768, -1630, -125, -143, -104
0.753349, -1217, 774, -1621, -126, -144, -105
0.754362, -1228, 776, -1605, -127, -145, -103
0.755377, -1229, 777, -1581, -126, -145, -100
0.756389, -1221, 774, -1561, -123, -147, -96
0.757402, -1210, 771, -1552, -118, -151, -93
0.758416, -1203, 771, -1550, -113, -158, -93
0.759429, -1203, 769, -1549, -108, -166, -94
0.760443, -1208, 765, -1547, -104, -173, -96
0.761456, -1209, 763, -1544, -102, -180, -96
0.762470, -1201, 764, -1539, -98, -184, -94
0.763483, -1185, 765, -1538, -92, -186, -93
0.764496, -1173, 766, -1541, -87, -188, -95
0.765510, -1166, 768, -1545, -83, -189, -98
0.766525, -1160, 767, -1548, -81, -190, -101
0.767537, -1155, 765, -1547, -79, -189, -103
0.768550, -1151, 762, -1543, -77, -189, -106
0.769563, -1148, 759, -1543, -75, -189, -110
0.770577, -1147, 754, -1548, -73, -189, -115
0.771591, -1151, 751, -1554, -71, -190, -120
0.772604, -1164, 752, -1567, -69, -193, -123
0.773617, -1183, 755, -1584, -69, -198, -126
0.774631, -1204, 756, -1595, -71, -203, -129
0.775644, -1218, 755, -1593, -76, -205, -128
0.776658, -1217, 756, -1585, -82, -202, -125
0.777671, -1204, 757, -1573, -85, -198, -121
0.778685, -1192, 752, -1558, -89, -196, -118
0.779698, -1186, 746, -1544, -91, -196, -117
0.780711, -1180, 742, -1531, -92, -198, -118
0.781725, -1177, 735, -1517, -91, -201, -120
0.782739, -1180, 728, -1502, -89, -206, -122
0.783752, -1185, 724, -1487, -88, -210, -124
0.784765, -1188, 723, -1468, -85, -212, -124
0.785779, -1190, 723, -1451, -80, -214, -123
0.786792, -1193, 724, -1441, -73, -216, -123
0.787806, -1200, 722, -1436, -67, -218, -124
0.788819, -1206, 718, -1435, -61, -221, -124
0.789833, -1208, 717, -1437, -56, -224, -123
0.790847, -1206, 717, -1441, -53, -226, -122
0.791859, -1203, 713, -1444, -48, -225, -121
0.792873, -1204, 707, -1449, -46, -224, -119
0.793887, -1205, 703, -1457, -43, -224, -119
0.794900, -1204, 700, -1466, -40, -224, -120
0.795913, -1206, 695, -1473, -39, -223, -120
0.796927, -1213, 691, -1476, -38, -222, -120
0.797940, -1217, 692, -1481, -38, -220, -118
0.798954, -1216, 696, -1491, -38, -219, -116
0.799967, -1220, 698, -1501, -40, -217, -115
0.800981, -1227, 700, -1507, -43, -216, -115
0.801994, -1230, 701, -1509, -47, -215, -113
0.803007, -1232, 702, -1511, -52, -214, -111
0.804021, -1235, 702, -1515, -56, -213, -110
0.805034, -1237, 700, -1526, -61, -213, -109
0.806047, -1242, 699, -1541, -66, -214, -106
0.807061, -1250, 702, -1556, -75, -212, -104
0.808075, -1252, 708, -1564, -86, -206, -100
0.809087, -1246, 711, -1560, -99, -197, -96
0.810101, -1231, 708, -1547, -113, -187, -90
0.811115, -1214, 704, -1528, -125, -177, -86
0.812128, -1203, 702, -1510, -133, -171, -84
0.813141, -1198, 700, -1495, -139, -170, -85
0.814155, -1196, 700, -1486, -145, -170, -87
0.815168, -1192, 701, -1480, -149, -169, -87
0.816182, -1189, 701, -1471, -153, -168, -88
0.817195, -1184, 700, -1459, -155, -165, -89
0.818209, -1174, 699, -1443, -157, -162, -91
0.819222, -1165, 694, -1428, -155, -158, -94
0.820235, -1168, 691, -1428, -153, -157, -98
0.821249, -1187, 691, -1446, -152, -156, -103
0.822263, -1217, 697, -1470, -154, -156, -107
0.823276, -1239, 705, -1492, -159, -153, -108
0.824289, -1245, 710, -1501, -167, -145, -103
0.825303, -1240, 716, -1496, -177, -136, -96
0.826316, -1234, 718, -1486, -186, -130, -90
0.827330, -1231, 714, -1473, -194, -128, -87
0.828344, -1228, 709, -1457, -199, -128, -86
0.829357, -1221, 704, -1442, -202, -129, -84
0.830372, -1212, 698, -1432, -203, -129, -83
0.831383, -1204, 695, -1430, -204, -128, -83
0.832398, -1196, 699, -1434, -206, -125, -84
0.833410, -1192, 704, -1441, -208, -119, -84
0.834424, -1184, 704, -1441, -212, -112, -83
0.835438, -1166, 703, -1431, -217, -103, -81
0.836451, -1147, 702, -1415, -221, -96, -80
0.837464, -1139, 701, -1399, -223, -91, -81
0.838478, -1140, 700, -1384, -225, -89, -84
0.839491, -1150, 700, -1371, -225, -91, -86
0.840505, -1162, 700, -1352, -223, -93, -89
0.841518, -1175, 698, -1337, -221, -95, -92
0.842531, -1194, 696, -1332, -217, -96, -92
0.843545, -1208, 697, -1328, -212, -96, -89
0.844558, -1209, 701, -1319, -209, -95, -86
0.845572, -1206, 704, -1306, -204, -96, -83
0.846586, -1200, 701, -1301, -197, -97, -80
0.847599, -1188, 694, -1307, -191, -98, -76
0.848613, -1174, 691, -1317, -188, -99, -73
0.849625, -1163, 690, -1329, -184, -99, -73
0.850639, -1152, 687, -1342, -180, -99, -75
0.851652, -1140, 683, -1353, -179, -98, -75
0.852666, -1134, 680, -1362, -178, -96, -75
0.853679, -1134, 678, -1370, -177, -96, -76
0.854694, -1137, 678, -1382, -177, -97, -78
0.855706, -1137, 681, -1402, -179, -99, -81
0.856720, -1127, 682, -1418, -182, -99, -83
0.857733, -1112, 679, -1420, -185, -94, -84
0.858746, -1106, 672, -1408, -189, -85, -86
0.859760, -1109, 663, -1386, -191, -77, -90
0.860774, -1119, 656, -1362, -192, -70, -94
0.861787, -1135, 653, -1341, -191, -64, -97
0.862800, -1155, 657, -1326, -188, -59, -97
0.863814, -1172, 662, -1323, -185, -54, -96
0.864827, -1182, 666, -1331, -181, -48, -94
0.865841, -1186, 670, -1347, -178, -39, -91
0.866854, -1186, 669, -1360, -177, -30, -87
0.867867, -1182, 666, -1361, -178, -28, -84
0.868881, -1175, 665, -1353, -179, -29, -82
0.869894, -1172, 667, -1335, -181, -29, -78
0.870908, -1175, 667, -1307, -181, -29, -74
0.871921, -1179, 659, -1274, -179, -31, -72
0.872934, -1182, 651, -1238, -174, -39, -71
0.873948, -1183, 648, -1207, -165, -46, -71
0.874961, -1186, 645, -1189, -152, -50, -70
0.875975, -1192, 646, -1193, -137, -52, -69
0.876988, -1200, 653, -1213, -125, -55, -68
0.878002, -1207, 659, -1237, -116, -61, -65
0.879015, -1210, 662, -1256, -110, -65, -61
0.880029, -1210, 661, -1269, -106, -68, -58
0.881042, -1213, 656, -1278, -101, -71, -55
0.882055, -1219, 653, -1286, -99, -77, -53
0.883069, -1228, 654, -1292, -99, -82, -50
0.884082, -1232, 657, -1291, -98, -83, -47
0.885096, -1226, 657, -1282, -98, -80, -42
0.886109, -1215, 656, -1270, -98, -77, -37
0.887123, -1205, 657, -1260, -96, -76, -33
0.888137, -1196, 657, -1251, -91, -76, -30
0.889150, -1192, 654, -1244, -86, -78, -30
0.890163, -1191, 652, -1238, -79, -81, -31
0.891177, -1193, 651, -1229, -71, -85, -30
0.892190, -1195, 650, -1217, -64, -88, -31
0.893203, -1193, 650, -1211, -56, -91, -32
0.894217, -1195, 651, -1210, -46, -94, -33
0.895230, -1202, 655, -1217, -36, -97, -33
0.896244, -1207, 661, -1228, -27, -100, -32
0.897257, -1210, 666, -1240, -21, -102, -31
0.898270, -1213, 668, -1252, -17, -103, -30
0.899284, -1208, 666, -1262, -14, -101, -28
0.900298, -1199, 661, -1265, -12, -100, -24
0.901311, -1194, 657, -1266, -9, -99, -22
0.902324, -1196, 653, -1267, -5, -99, -22
0.903338, -1197, 650, -1272, -1, -99, -22
0.904351, -1201, 646, -1275, 2, -99, -22
0.905365, -1212, 643, -1276, 4, -99, -22
0.906378, -1223, 645, -1277, 6, -99, -21
0.907392, -1231, 646, -1277, 9, -100, -19
0.908405, -1235, 646, -1277, 11, -99, -15
0.909419, -1240, 649, -1283, 13, -97, -10
0.910432, -1244, 652, -1289, 15, -96, -6
0.911445, -1242, 653, -1292, 14, -95, -1
0.912459, -1238, 653, -1295, 12, -93, 3
0.913473, -1236, 653, -1300, 12, -92, 7
0.914486, -1233, 653, -1303, 11, -89, 11
0.915499, -1226, 654, -1306, 10, -86, 15
0.916513, -1218, 657, -1309, 9, -84, 18
0.917526, -1209, 659, -1311, 7, -81, 18
0.918540, -1202, 660, -1313, 4, -77, 20
0.919553, -1198, 658, -1314, 1, -73, 22
0.920566, -1198, 660, -1312, -2, -68, 23
0.921580, -1196, 667, -1312, -5, -64, 25
0.922593, -1193, 671, -1316, -7, -60, 25
0.923609, -1192, 672, -1319, -9, -56, 26
0.924620, -1195, 676, -1319, -12, -51, 28
0.925634, -1196, 680, -1319, -16, -45, 29
0.926647, -1195, 683, -1322, -18, -38, 31
0.927661, -1190, 686, -1331, -20, -28, 32
0.928674, -1179, 690, -1347, -22, -14, 33
0.929687, -1158, 694, -1360, -28, 2, 35
0.930696, -1135, 696, -1359, -35, 14, 35
0.931716, -1131, 690, -1347, -40, 17, 31
0.932728, -1151, 684, -1328, -43, 14, 24
0.933741, -1183, 685, -1308, -46, 8, 19
0.934754, -1215, 693, -1293, -47, 1, 18
0.935768, -1243, 704, -1284, -46, -3, 18
0.936782, -1264, 717, -1288, -45, -4, 20
0.937795, -1267, 727, -1307, -43, 0, 26
0.938808, -1251, 733, -1330, -42, 6, 34
0.939822, -1228, 736, -1351, -45, 8, 41
0.940835, -1200, 737, -1367, -49, 9, 47
0.941849, -1162, 733, -1372, -53, 11, 48
0.942862, -1128, 722, -1366, -56, 13, 46
0.943875, -1111, 710, -1349, -59, 14, 40
0.944889, -1114, 700, -1324, -61, 15, 32
0.945902, -1134, 697, -1297, -61, 14, 24
0.946915, -1162, 702, -1274, -59, 13, 17
0.947929, -1189, 711, -1258, -54, 12, 12
0.948943, -1214, 723, -1252, -47, 10, 11
0.949956, -1235, 734, -1261, -41, 7, 12
0.950970, -1253, 741, -1281, -36, 4, 16
0.951983, -1262, 747, -1307, -32, 1, 22
0.952996, -1258, 750, -1337, -30, -1, 26
0.954010, -1249, 747, -1361, -34, -1, 30
0.955023, -1236, 744, -1373, -40, 5, 36
0.956037, -1209, 740, -1377, -47, 15, 43
0.957050, -1174, 729, -1371, -53, 27, 46
0.958063, -1149, 716, -1365, -58, 37, 46
0.959077, -1136, 706, -1362, -62, 42, 42
0.960091, -1134, 697, -1358, -63, 47, 37
0.961104, -1144, 693, -1352, -63, 51, 31
0.962117, -1162, 694, -1345, -62, 52, 24
0.963131, -1185, 697, -1341, -60, 54, 20
0.964144, -1209, 699, -1337, -57, 57, 19
0.965157, -1229, 704, -1332, -52, 58, 18
0.966171, -1249, 712, -1334, -46, 57, 20
0.967185, -1265, 716, -1345, -40, 55, 23
0.968198, -1277, 721, -1364, -36, 53, 26
0.969211, -1285, 730, -1387, -33, 49, 31
0.970225, -1284, 733, -1410, -32, 48, 36
0.971238, -1276, 733, -1426, -33, 48, 41
0.972252, -1267, 736, -1436, -36, 48, 45
0.973265, -1253, 739, -1442, -39, 49, 48
0.974279, -1235, 739, -1446, -43, 50, 50
0.975292, -1217, 737, -1445, -45, 52, 52
0.976306, -1202, 734, -1441, -47, 54, 52
0.977319, -1190, 732, -1435, -48, 56, 49
0.978332, -1186, 732, -1426, -48, 57, 46
0.979346, -1187, 732, -1415, -45, 56, 43
0.980359, -1194, 733, -1408, -39, 55, 39
0.981372, -1204, 735, -1406, -35, 54, 35
0.982386, -1214, 737, -1406, -30, 52, 32
0.983401, -1225, 739, -1409, -24, 50, 32
0.984413, -1236, 743, -1417, -17, 47, 30
0.985427, -1245, 746, -1428, -11, 43, 29
0.986440, -1253, 749, -1445, -6, 39, 30
0.987453, -1261, 753, -1468, -3, 36, 33
0.988466, -1265, 755, -1489, -2, 35, 36
0.989480, -1259, 756, -1504, -2, 36, 40
0.990494, -1247, 759, -1513, -2, 36, 43
0.991507, -1232, 758, -1515, -3, 36, 45
0.992521, -1217, 754, -1514, -4, 34, 47
0.993534, -1197, 751, -1510, -5, 33, 46
0.994548, -1174, 749, -1500, -3, 33, 42
0.995561, -1158, 743, -1487, 0, 33, 37
0.996575, -1158, 741, -1481, 3, 34, 33
0.997588, -1167, 743, -1482, 7, 32, 28
0.998601, -1177, 750, -1482, 10, 30, 23
0.999614, -1193, 762, -1480, 13, 30, 22
1.000633, -1213, 770, -1476, 15, 33, 23
1.001647, -1225, 768, -1466, 18, 33, 23
1.002662, -1229, 761, -1453, 23, 26, 23
1.003674, -1231, 756, -1447, 30, 17, 24
1.004687, -1238, 758, -1446, 36, 9, 24
1.005698, -1252, 767, -1448, 43, 2, 26
1.006710, -1262, 771, -1452, 50, -3, 30
1.007723, -1251, 766, -1456, 54, -7, 37
1.008740, -1225, 760, -1457, 58, -11, 43
1.009751, -1197, 751, -1458, 62, -14, 45
1.010764, -1174, 738, -1457, 67, -16, 42
1.011779, -1160, 727, -1453, 74, -18, 37
1.012799, -1159, 722, -1449, 82, -21, 32
1.013807, -1165, 720, -1449, 90, -24, 28
1.014822, -1171, 721, -1456, 96, -28, 24
1.015835, -1182, 725, -1466, 103, -31, 19
1.016849, -1193, 731, -1477, 110, -32, 16
1.017863, -1200, 734, -1490, 117, -33, 16
1.018876, -1205, 735, -1506, 121, -35, 17
1.019886, -1207, 737, -1518, 124, -36, 19
1.020898, -1207, 737, -1528, 128, -37, 20
1.021910, -1207, 738, -1540, 130, -38, 21
1.022924, -1207, 741, -1551, 131, -41, 20
1.023937, -1209, 742, -1562, 132, -44, 20
1.024950, -1209, 743, -1569, 133, -46, 20
1.025963, -1209, 747, -1574, 133, -47, 21
1.026977, -1210, 752, -1581, 132, -49, 23
1.027991, -1209, 757, -1589, 132, -52, 25
1.029004, -1205, 758, -1598, 132, -55, 25
1.030017, -1206, 759, -1605, 131, -57, 25
1.031031, -1204, 760, -1608, 130, -58, 26
1.032044, -1198, 761, -1609, 127, -60, 27
1.033058, -1193, 762, -1612, 124, -62, 27
1.034071, -1185, 765, -1613, 121, -64, 28
1.035084, -1176, 767, -1610, 119, -66, 27
1.036098, -1171, 766, -1607, 117, -67, 26
1.037111, -1167, 769, -1602, 116, -68, 26
1.038125, -1162, 770, -1594, 114, -70, 24
1.039138, -1159, 768, -1590, 113, -71, 23
1.040152, -1157, 768, -1589, 114, -71, 21
1.041165, -1158, 766, -1585, 113, -72, 20
1.042178, -1158, 765, -1576, 113, -74, 18
1.043194, -1158, 768, -1568, 113, -74, 17
1.044205, -1161, 771, -1561, 114, -75, 14
1.045219, -1163, 771, -1553, 116, -78, 12
1.046232, -1163, 768, -1548, 120, -81, 10
1.047246, -1167, 767, -1546, 124, -85, 8
1.048260, -1171, 768, -1550, 127, -88, 5
1.049273, -1171, 766, -1555, 130, -92, 4
1.050286, -1172, 764, -1562, 134, -96, 2
1.051300, -1175, 765, -1573, 136, -99, 1
1.052313, -1178, 766, -1585, 138, -101, -1
1.053326, -1179, 767, -1597, 137, -103, -2
1.054342, -1176, 768, -1610, 136, -106, -3
1.055354, -1176, 767, -1620, 135, -108, -5
1.056367, -1178, 768, -1629, 132, -110, -5
1.057380, -1180, 771, -1635, 129, -111, -5
1.058394, -1177, 773, -1631, 125, -112, -6
1.059407, -1174, 774, -1623, 120, -113, -8
1.060420, -1175, 774, -1616, 116, -115, -11
1.061434, -1179, 773, -1610, 114, -119, -12
1.062447, -1182, 774, -1605, 112, -124, -14
1.063461, -1185, 776, -1599, 108, -128, -16
1.064475, -1186, 778, -1588, 105, -130, -16
1.065488, -1183, 781, -1576, 103, -132, -16
1.066501, -1178, 784, -1568, 102, -134, -18
1.067515, -1174, 786, -1563, 101, -136, -19
1.068530, -1167, 786, -1557, 100, -136, -20
1.069542, -1160, 783, -1546, 99, -136, -21
1.070556, -1155, 779, -1531, 99, -136, -23
1.071569, -1149, 779, -1517, 99, -137, -25
1.072582, -1147, 780, -1503, 101, -141, -30
1.073595, -1149, 776, -1490, 104, -144, -34
1.074609, -1153, 773, -1475, 107, -147, -38
1.075622, -1154, 775, -1462, 110, -150, -43
1.076636, -1156, 777, -1453, 114, -154, -45
1.077649, -1158, 777, -1444, 120, -157, -46
1.078663, -1157, 775, -1434, 125, -158, -49
1.079676, -1153, 774, -1420, 131, -158, -51
1.080690, -1147, 772, -1400, 137, -158, -54
1.081703, -1141, 765, -1375, 146, -159, -57
1.082717, -1134, 757, -1352, 156, -162, -61
1.083730, -1134, 750, -1339, 170, -167, -66
1.084744, -1149, 745, -1338, 186, -175, -73
1.085757, -1169, 743, -1347, 201, -185, -78
1.086770, -1188, 744, -1358, 214, -192, -82
1.087784, -1202, 747, -1369, 225, -198, -84
1.088797, -1208, 750, -1381, 234, -202, -84
1.089810, -1209, 752, -1392, 243, -205, -82
1.090824, -1207, 752, -1402, 249, -207, -81
1.091838, -1201, 747, -1409, 253, -208, -79
1.092851, -1192, 741, -1415, 257, -208, -78
1.093865, -1180, 735, -1414, 260, -209, -79
1.094878, -1171, 729, -1409, 264, -211, -80
1.095892, -1169, 721, -1404, 270, -214, -83
1.096905, -1172, 718, -1398, 276, -217, -86
1.097918, -1178, 721, -1394, 281, -221, -90
1.098931, -1184, 722, -1396, 287, -224, -93
1.099945, -1192, 720, -1398, 294, -226, -95
1.100959, -1201, 721, -1401, 299, -228, -95
1.101972, -1202, 722, -1407, 305, -229, -95
1.102985, -1203, 724, -1415, 308, -229, -94
1.103999, -1204, 724, -1428, 310, -228, -94
1.105012, -1203, 724, -1442, 310, -229, -95
1.106026, -1204, 724, -1455, 311, -230, -95
1.107039, -1207, 722, -1470, 309, -230, -94
1.108052, -1211, 720, -1484, 306, -229, -94
1.109066, -1214, 717, -1494, 300, -226, -95
1.110079, -1211, 715, -1503, 294, -222, -94
1.111093, -1209, 715, -1512, 287, -219, -93
1.112106, -1210, 716, -1522, 279, -215, -92
1.113120, -1208, 716, -1532, 270, -210, -92
1.114133, -1206, 713, -1538, 259, -204, -93
1.115146, -1206, 710, -1542, 249, -198, -93
1.116155, -1207, 710, -1545, 237, -192, -93
1.117174, -1208, 710, -1548, 224, -186, -93
1.118190, -1207, 711, -1550, 211, -178, -92
1.119202, -1207, 712, -1550, 199, -171, -91
1.120216, -1212, 711, -1549, 186, -165, -92
1.121228, -1220, 707, -1548, 172, -159, -92
1.122241, -1226, 702, -1548, 158, -151, -91
1.123254, -1230, 701, -1549, 143, -144, -89
1.124268, -1234, 702, -1553, 128, -137, -88
1.125283, -1236, 700, -1557, 113, -131, -87
1.126295, -1238, 695, -1558, 98, -124, -86
1.127308, -1238, 693, -1558, 82, -115, -85
1.128322, -1234, 691, -1556, 66, -105, -83
1.129336, -1229, 687, -1549, 49, -98, -82
1.130348, -1229, 682, -1540, 33, -89, -81
1.131362, -1228, 675, -1533, 17, -80, -80
1.132375, -1225, 671, -1519, 2, -71, -79
1.133389, -1225, 668, -1501, -11, -63, -79
1.134402, -1231, 665, -1485, -22, -55, -78
1.135415, -1236, 658, -1471, -34, -49, -77
1.136426, -1238, 653, -1456, -43, -42, -77
1.137443, -1242, 653, -1437, -50, -37, -76
1.138455, -1250, 653, -1417, -56, -32, -75
1.139470, -1258, 648, -1400, -59, -30, -74
1.140482, -1265, 646, -1384, -61, -28, -72
1.141497, -1269, 647, -1371, -61, -27, -71
1.142509, -1271, 644, -1360, -60, -27, -71
1.143519, -1274, 643, -1349, -58, -27, -70
1.144537, -1276, 645, -1341, -55, -29, -68
1.145549, -1276, 644, -1336, -50, -31, -67
1.146563, -1276, 642, -1331, -46, -32, -66
1.147576, -1277, 640, -1325, -41, -35, -63
1.148590, -1278, 634, -1325, -36, -38, -63
1.149603, -1276, 630, -1328, -30, -41, -63
1.150617, -1273, 629, -1329, -23, -43, -63
1.151630, -1273, 629, -1329, -15, -45, -63
1.152643, -1275, 627, -1333, -9, -47, -63
1.153657, -1276, 622, -1338, -2, -50, -62
1.154670, -1276, 621, -1343, 4, -53, -63
1.155684, -1278, 622, -1349, 10, -55, -63
1.156697, -1279, 621, -1355, 15, -57, -62
1.157710, -1279, 621, -1360, 19, -60, -61
1.158724, -1275, 622, -1364, 24, -64, -61
1.159738, -1275, 620, -1369, 28, -66, -61
1.160752, -1281, 616, -1378, 33, -67, -61
1.161765, -1286, 613, -1390, 37, -67, -59
1.162778, -1291, 615, -1405, 39, -67, -58
1.163792, -1295, 618, -1417, 38, -67, -56
1.164805, -1300, 622, -1429, 37, -67, -54
1.165819, -1301, 626, -1438, 35, -65, -52
1.166832, -1295, 629, -1442, 32, -64, -49
1.167847, -1286, 631, -1443, 29, -63, -45
1.168859, -1274, 633, -1439, 27, -62, -43
1.169872, -1253, 638, -1428, 26, -61, -44
1.170886, -1235, 639, -1423, 25, -61, -44
1.171899, -1231, 630, -1431, 23, -59, -45
1.172913, -1243, 620, -1447, 22, -56, -45
1.173926, -1258, 620, -1463, 20, -50, -45
1.174939, -1272, 627, -1474, 14, -44, -45
1.175953, -1285, 635, -1483, 5, -41, -45
1.176966, -1293, 647, -1482, -3, -38, -42
1.177979, -1293, 657, -1472, -12, -35, -37
1.178993, -1288, 659, -1459, -20, -33, -34
1.180007, -1280, 658, -1446, -25, -31, -30
1.181020, -1269, 658, -1434, -28, -30, -25
1.182034, -1259, 658, -1425, -31, -30, -22
1.183047, -1250, 655, -1417, -34, -30, -20
1.184061, -1239, 651, -1409, -35, -27, -18
1.185074, -1227, 647, -1403, -37, -24, -16
1.186087, -1218, 644, -1400, -37, -21, -17
1.187101, -1214, 645, -1396, -37, -19, -18
1.188115, -1210, 648, -1390, -37, -17, -20
1.189128, -1208, 650, -1386, -37, -15, -20
1.190141, -1207, 652, -1383, -37, -13, -21
1.191155, -1205, 652, -1374, -36, -11, -22
1.192168, -1206, 647, -1365, -34, -9, -23
1.193182, -1209, 645, -1359, -31, -7, -23
1.194195, -1211, 646, -1351, -28, -6, -23
1.195209, -1212, 646, -1339, -26, -5, -23
1.196222, -1212, 646, -1330, -22, -4, -23
1.197235, -1213, 643, -1322, -17, -4, -22
1.198249, -1212, 640, -1317, -11, -4, -22
1.199262, -1208, 639, -1313, -5, -3, -22
1.200275, -1207, 639, -1312, 2, -3, -20
1.201289, -1207, 637, -1314, 8, -3, -19
1.202302, -1203, 634, -1317, 14, -2, -19
1.203316, -1205, 628, -1328, 22, -3, -19
1.204329, -1216, 624, -1349, 29, -5, -18
1.205343, -1227, 625, -1372, 34, -7, -15
1.206356, -1233, 628, -1390, 36, -7, -13
1.207370, -1233, 630, -1399, 38, -6, -11
1.208383, -1234, 627, -1400, 41, -5, -7
1.209397, -1234, 626, -1400, 44, -4, -3
1.210410, -1227, 629, -1405, 48, -4, 1
1.211423, -1214, 632, -1416, 49, -5, 4
1.212437, -1204, 631, -1431, 49, -5, 6
1.213450, -1199, 629, -1445, 49, -6, 8
1.214464, -1192, 629, -1455, 48, -8, 9
1.215477, -1188, 629, -1460, 46, -9, 9
1.216492, -1189, 629, -1458, 44, -9, 9
1.217504, -1189, 633, -1456, 44, -9, 7
1.218520, -1187, 635, -1458, 44, -10, 8
1.219531, -1188, 635, -1462, 43, -9, 9
1.220544, -1188, 637, -1467, 41, -9, 8
1.221558, -1187, 639, -1469, 40, -8, 8
1.222573, -1187, 641, -1469, 39, -7, 9
1.223586, -1186, 643, -1471, 36, -6, 9
1.224598, -1184, 644, -1477, 33, -4, 9
1.225611, -1185, 645, -1479, 30, -4, 8
1.226625, -1188, 646, -1472, 28, -4, 9
1.227639, -1192, 648, -1465, 26, -3, 9
1.228652, -1193, 650, -1461, 23, -1, 10
1.229665, -1194, 651, -1459, 20, -1, 10
1.230679, -1198, 651, -1455, 16, -1, 10
1.231692, -1201, 651, -1449, 15, 0, 9
1.232706, -1202, 650, -1441, 13, 1, 8
1.233719, -1203, 648, -1434, 12, 3, 8
1.234732, -1207, 645, -1425, 11, 3, 9
1.235746, -1210, 642, -1415, 10, 4, 9
1.236760, -1214, 644, -1408, 11, 6, 9
1.237774, -1217, 646, -1402, 12, 7, 10
1.238786, -1220, 643, -1398, 13, 7, 9
1.239808, -1225, 640, -1391, 13, 9, 10
1.240813, -1231, 642, -1384, 14, 11, 11
1.241827, -1234, 643, -1380, 15, 12, 11
1.242840, -1239, 643, -1375, 17, 13, 12
1.243853, -1244, 640, -1369, 20, 13, 14
1.244867, -1248, 639, -1366, 22, 14, 15
1.245880, -1252, 641, -1364, 25, 16, 17
1.246894, -1255, 640, -1363, 28, 15, 19
1.247907, -1258, 637, -1362, 32, 15, 21
1.248921, -1259, 639, -1362, 35, 15, 22
1.249934, -1262, 644, -1361, 38, 14, 25
1.250947, -1264, 647, -1364, 41, 14, 27
1.251961, -1265, 650, -1368, 43, 15, 29
1.252974, -1261, 652, -1371, 46, 16, 31
1.253989, -1257, 656, -1375, 49, 17, 33
1.255001, -1255, 658, -1381, 51, 18, 34
1.256015, -1254, 661, -1388, 52, 19, 36
1.257028, -1256, 665, -1394, 54, 20, 37
1.258042, -1259, 668, -1402, 55, 21, 38
1.259055, -1256, 669, -1409, 57, 22, 40
1.260068, -1254, 672, -1412, 57, 22, 42
1.261081, -1256, 679, -1415, 56, 23, 41
1.262095, -1257, 685, -1416, 55, 24, 40
1.263108, -1254, 688, -1415, 55, 24, 41
1.264123, -1252, 693, -1413, 55, 25, 42
1.265136, -1247, 699, -1411, 55, 25, 42
1.266150, -1241, 703, -1408, 55, 25, 43
1.267162, -1236, 707, -1403, 56, 25, 43
1.268176, -1232, 708, -1397, 57, 26, 42
1.269189, -1227, 709, -1393, 58, 27, 41
1.270203, -1225, 711, -1396, 59, 27, 40
1.271216, -1226, 714, -1398, 62, 28, 38
1.272230, -1224, 718, -1399, 64, 28, 37
1.273243, -1223, 722, -1400, 67, 28, 35
1.274257, -1224, 723, -1402, 69, 29, 33
1.275270, -1224, 725, -1411, 71, 29, 32
1.276283, -1225, 728, -1425, 70, 30, 30
1.277297, -1227, 729, -1436, 70, 31, 29
1.278311, -1229, 728, -1444, 70, 32, 30
1.279324, -1230, 729, -1454, 69, 34, 30
1.280337, -1230, 728, -1460, 67, 36, 29
1.281351, -1228, 729, -1465, 65, 37, 29
1.282364, -1227, 729, -1472, 61, 39, 30
1.283378, -1225, 731, -1478, 58, 41, 29
1.284391, -1222, 734, -1482, 54, 43, 29
1.285404, -1218, 734, -1483, 49, 45, 29
1.286418, -1214, 733, -1482, 45, 48, 30
1.287432, -1211, 735, -1481, 44, 49, 29
1.288445, -1209, 734, -1480, 41, 51, 29
1.289458, -1206, 734, -1477, 38, 52, 28
1.290473, -1204, 736, -1476, 35, 53, 27
1.291485, -1205, 737, -1477, 33, 54, 26
1.292509, -1208, 736, -1480, 31, 57, 25
1.293514, -1208, 738, -1481, 30, 58, 24
1.294529, -1205, 739, -1481, 28, 58, 22
1.295541, -1203, 740, -1483, 24, 58, 21
1.296549, -1201, 741, -1485, 21, 59, 20
1.297566, -1196, 743, -1485, 20, 60, 18
1.298579, -1191, 744, -1484, 19, 60, 18
1.299592, -1193, 745, -1482, 19, 59, 17
1.300607, -1195, 745, -1477, 18, 58, 14
1.301620, -1192, 742, -1470, 18, 58, 11
1.302633, -1189, 739, -1467, 18, 57, 9
1.303646, -1193, 738, -1466, 19, 56, 6
1.304660, -1196, 738, -1462, 20, 55, 4
1.305673, -1195, 739, -1460, 22, 55, 3
1.306686, -1194, 740, -1461, 25, 54, 0
1.307700, -1192, 738, -1463, 27, 53, -3
1.308713, -1193, 737, -1464, 29, 51, -4
1.309727, -1198, 737, -1468, 32, 50, -6
1.310740, -1203, 738, -1476, 33, 49, -10
1.311753, -1204, 739, -1481, 34, 47, -12
1.312770, -1208, 738, -1485, 36, 46, -13
1.313782, -1216, 735, -1492, 36, 44, -15
1.314794, -1219, 735, -1498, 37, 43, -16
1.315808, -1220, 737, -1506, 37, 41, -18
1.316821, -1222, 735, -1514, 37, 40, -20
1.317836, -1225, 734, -1520, 36, 39, -20
1.318849, -1228, 735, -1525, 34, 38, -21
1.319861, -1229, 738, -1532, 31, 38, -23
1.320875, -1228, 741, -1538, 28, 38, -23
1.321888, -1229, 742, -1543, 26, 38, -24
1.322901, -1231, 739, -1547, 23, 37, -24
1.323915, -1233, 737, -1550, 19, 37, -24
1.324928, -1233, 738, -1552, 16, 37, -25
1.325942, -1232, 738, -1550, 11, 37, -26
1.326955, -1233, 737, -1547, 7, 38, -27
1.327969, -1234, 737, -1546, 4, 38, -28
1.328982, -1235, 737, -1542, 2, 39, -30
1.329996, -1239, 738, -1537, -3, 39, -30
1.331009, -1243, 738, -1536, -8, 40, -31
1.332023, -1247, 737, -1533, -10, 39, -32
1.333036, -1249, 738, -1527, -12, 38, -32
1.334050, -1252, 738, -1524, -14, 38, -33
1.335063, -1256, 734, -1524, -16, 39, -34
1.336076, -1260, 731, -1523, -17, 39, -34
1.337090, -1260, 733, -1522, -19, 37, -34
1.338103, -1258, 735, -1522, -20, 37, -33
1.339116, -1262, 733, -1522, -21, 37, -33
1.340130, -1266, 731, -1524, -22, 36, -32
1.341144, -1266, 731, -1527, -24, 35, -32
1.342157, -1267, 731, -1527, -26, 35, -32
1.343172, -1270, 731, -1527, -27, 35, -32
1.344184, -1270, 733, -1527, -29, 36, -30
1.345197, -1267, 735, -1532, -31, 36, -30
1.346211, -1265, 738, -1533, -33, 35, -30
1.347224, -1265, 739, -1531, -34, 35, -31
1.348238, -1262, 737, -1531, -35, 34, -31
1.349251, -1258, 738, -1532, -37, 32, -32
1.350264, -1257, 742, -1528, -38, 31, -32
1.351278, -1255, 743, -1525, -37, 30, -32
1.352291, -1255, 742, -1524, -36, 28, -34
1.353305, -1255, 745, -1522, -36, 26, -36
1.354318, -1254, 748, -1522, -36, 25, -38
1.355331, -1252, 748, -1526, -36, 23, -39
1.356345, -1250, 745, -1526, -36, 20, -40
1.357358, -1249, 744, -1521, -35, 17, -41
1.358371, -1249, 747, -1519, -34, 14, -43
1.359385, -1249, 746, -1521, -33, 11, -45
1.360399, -1250, 743, -1520, -32, 8, -47
1.361413, -1250, 745, -1520, -30, 5, -49
1.362426, -1247, 746, -1518, -28, 4, -50
1.363439, -1245, 742, -1517, -27, 1, -51
1.364453, -1246, 740, -1519, -25, 0, -53
1.365466, -1245, 736, -1521, -25, -2, -55
1.366480, -1244, 731, -1521, -25, -4, -56
1.367493, -1243, 729, -1520, -23, -5, -58
1.368506, -1242, 728, -1518, -19, -6, -59
1.369520, -1240, 723, -1509, -18, -6, -60
1.370533, -1237, 718, -1497, -18, -7, -62
1.371547, -1237, 716, -1491, -16, -7, -64
1.372560, -1237, 710, -1486, -13, -8, -65
1.373574, -1234, 703, -1475, -8, -9, -66
1.374587, -1234, 700, -1466, -3, -10, -67
1.375600, -1238, 696, -1461, 3, -10, -69
1.376614, -1240, 689, -1457, 9, -11, -71
1.377628, -1246, 684, -1457, 15, -13, -71
1.378641, -1259, 682, -1462, 20, -16, -72
1.379654, -1270, 680, -1469, 25, -18, -73
1.380668, -1277, 674, -1473, 30, -20, -74
1.381681, -1284, 668, -1479, 37, -23, -73
1.382695, -1288, 667, -1489, 41, -27, -70
1.383709, -1290, 669, -1500, 44, -29, -68
1.384721, -1293, 670, -1510, 46, -31, -66
1.385735, -1293, 669, -1518, 47, -33, -64
1.386749, -1290, 666, -1523, 48, -34, -60
1.387762, -1287, 664, -1529, 50, -36, -58
1.388775, -1282, 662, -1536, 49, -37, -56
1.389788, -1279, 662, -1541, 48, -37, -53
1.390802, -1277, 662, -1544, 46, -38, -52
1.391815, -1274, 662, -1547, 45, -38, -51
1.392829, -1268, 664, -1550, 44, -39, -50
1.393842, -1262, 666, -1551, 41, -40, -51
1.394856, -1258, 666, -1547, 40, -40, -52
1.395869, -1257, 667, -1540, 38, -41, -50
1.396883, -1259, 669, -1536, 36, -42, -50
1.397896, -1258, 669, -1535, 34, -43, -50
1.398909, -1256, 669, -1535, 33, -44, -51
1.399923, -1259, 668, -1530, 32, -45, -51
1.400936, -1261, 668, -1520, 30, -46, -51
1.401950, -1263, 668, -1514, 28, -47, -51
1.402963, -1266, 667, -1511, 27, -48, -51
1.403977, -1263, 664, -1510, 26, -49, -50
1.404990, -1261, 665, -1510, 26, -50, -50
1.406004, -1263, 666, -1511, 26, -50, -49
1.407017, -1262, 662, -1512, 24, -51, -49
1.408031, -1258, 659, -1514, 23, -52, -49
1.409044, -1253, 659, -1515, 22, -52, -48
1.410057, -1252, 656, -1515, 21, -52, -47
1.411071, -1255, 651, -1516, 20, -51, -48
1.412084, -1259, 650, -1519, 19, -50, -47
1.413097, -1263, 650, -1519, 17, -49, -47
1.414111, -1267, 650, -1521, 16, -48, -46
1.415126, -1270, 648, -1525, 14, -47, -46
1.416138, -1272, 648, -1523, 12, -48, -44
1.417151, -1274, 649, -1518, 10, -48, -43
1.418167, -1276, 648, -1516, 9, -48, -41
1.419180, -1277, 648, -1513, 7, -48, -39
1.420192, -1279, 650, -1510, 5, -48, -38
1.421205, -1284, 651, -1507, 4, -48, -36
1.422219, -1288, 651, -1502, 2, -49, -33
1.423233, -1287, 654, -1497, 1, -49, -30
1.424246, -1284, 655, -1496, 0, -49, -28
1.425261, -1284, 652, -1495, -1, -49, -27
1.426272, -1283, 652, -1492, -1, -49, -26
1.427286, -1278, 653, -1491, -1, -49, -23
1.428299, -1272, 653, -1489, -2, -49, -22
1.429313, -1271, 653, -1485, -3, -50, -23
1.430326, -1275, 654, -1482, -4, -50, -21
1.431340, -1275, 655, -1477, -4, -50, -19
1.432353, -1270, 657, -1473, -4, -51, -18
1.433367, -1268, 658, -1467, -3, -52, -17
1.434380, -1269, 661, -1461, -3, -52, -16
1.435393, -1268, 663, -1456, -4, -52, -14
1.436407, -1266, 667, -1452, -3, -53, -13
1.437420, -1263, 669, -1446, -1, -53, -13
1.438434, -1258, 668, -1438, -1, -53, -12
1.439447, -1252, 667, -1432, 1, -53, -11
1.440461, -1247, 669, -1428, 3, -52, -11
1.441474, -1242, 671, -1426, 5, -52, -10
1.442488, -1237, 673, -1423, 8, -51, -10
1.443501, -1231, 674, -1418, 10, -50, -11
1.444514, -1226, 676, -1416, 12, -50, -11
1.445528, -1222, 676, -1414, 14, -50, -12
1.446541, -1222, 674, -1412, 16, -50, -14
1.447555, -1225, 671, -1409, 18, -51, -14
1.448568, -1227, 674, -1409, 22, -50, -13
1.449582, -1227, 677, -1411, 25, -49, -15
1.450595, -1226, 675, -1415, 28, -49, -16
1.451609, -1227, 675, -1420, 30, -49, -17
1.452622, -1232, 676, -1427, 32, -49, -17
1.453635, -1234, 675, -1435, 34, -49, -16
1.454650, -1231, 676, -1443, 35, -49, -15
1.455662, -1230, 680, -1449, 36, -50, -14
1.456675, -1229, 684, -1456, 36, -49, -14
1.457689, -1228, 684, -1464, 35, -48, -14
1.458702, -1226, 683, -1471, 33, -48, -13
1.459716, -1223, 686, -1474, 31, -48, -12
1.460729, -1219, 688, -1475, 29, -47, -11
1.461742, -1215, 689, -1475, 27, -46, -12
1.462756, -1209, 691, -1476, 25, -45, -12
1.463769, -1206, 690, -1477, 23, -44, -11
1.464783, -1205, 688, -1477, 20, -43, -11
1.465796, -1201, 691, -1475, 16, -42, -13
1.466809, -1197, 694, -1468, 13, -40, -14
1.467824, -1198, 693, -1462, 10, -38, -13
1.468837, -1199, 693, -1460, 9, -36, -13
1.469850, -1199, 693, -1455, 8, -35, -15
1.470864, -1200, 692, -1446, 7, -34, -17
1.471877, -1203, 691, -1441, 6, -32, -17
1.472891, -1206, 691, -1443, 6, -30, -17
1.473904, -1207, 691, -1444, 6, -29, -18
1.474918, -1212, 691, -1437, 5, -28, -17
1.475931, -1218, 689, -1431, 6, -27, -16
1.476944, -1219, 690, -1428, 6, -26, -17
1.477958, -1218, 694, -1423, 7, -26, -17
1.478971, -1222, 695, -1417, 7, -26, -15
1.479985, -1226, 693, -1417, 7, -25, -14
1.480998, -1230, 693, -1417, 7, -25, -15
1.482011, -1232, 694, -1417, 8, -25, -14
1.483025, -1232, 697, -1416, 10, -26, -13
1.484040, -1232, 699, -1415, 11, -26, -12
1.485052, -1233, 697, -1414, 13, -27, -11
1.486065, -1232, 696, -1415, 13, -27, -9
1.487079, -1229, 697, -1416, 13, -29, -7
1.488092, -1229, 698, -1414, 15, -29, -8
1.489105, -1230, 698, -1412, 17, -30, -9
1.490119, -1232, 699, -1411, 18, -30, -9
1.491133, -1234, 700, -1411, 18, -31, -8
1.492146, -1235, 701, -1412, 19, -31, -8
1.493159, -1235, 702, -1410, 19, -31, -8
1.494173, -1234, 701, -1409, 21, -31, -7
1.495186, -1236, 701, -1409, 22, -30, -5
1.496200, -1236, 704, -1407, 23, -29, -4
1.497213, -1235, 706, -1408, 23, -29, -3
1.498227, -1236, 704, -1411, 24, -28, -3
1.499240, -1240, 704, -1412, 24, -27, -3
1.500253, -1240, 706, -1413, 24, -26, -3
1.501267, -1237, 708, -1418, 25, -26, -1
1.502280, -1238, 707, -1421, 26, -25, 0
1.503294, -1238, 709, -1422, 26, -25, 1
1.504309, -1237, 713, -1424, 26, -24, 2
1.505321, -1236, 713, -1425, 26, -23, 3
1.506334, -1235, 714, -1430, 25, -23, 2
1.507347, -1237, 717, -1437, 24, -22, 3
1.508361, -1242, 721, -1437, 22, -23, 4
1.509375, -1241, 722, -1436, 20, -23, 5
1.510390, -1235, 721, -1439, 20, -21, 7
1.511401, -1233, 721, -1441, 20, -19, 8
1.512415, -1232, 725, -1442, 18, -17, 7
1.513428, -1229, 730, -1442, 15, -16, 9
1.514442, -1226, 731, -1445, 14, -16, 10
1.515455, -1221, 732, -1449, 13, -15, 9
1.516468, -1219, 738, -1453, 12, -16, 9
1.517484, -1219, 742, -1452, 11, -16, 8
1.518496, -1215, 743, -1454, 9, -15, 7
1.519506, -1211, 745, -1460, 7, -15, 7
1.520523, -1210, 749, -1463, 4, -15, 7
1.521532, -1206, 752, -1463, 1, -15, 6
1.522550, -1204, 756, -1464, -1, -13, 4
1.523564, -1205, 759, -1464, -4, -12, 2
1.524577, -1206, 760, -1466, -7, -11, 0
1.525590, -1202, 760, -1467, -12, -9, -1
1.526603, -1197, 758, -1465, -15, -7, -2
1.527616, -1197, 758, -1464, -18, -5, -2
1.528630, -1200, 761, -1460, -21, -3, -4
1.529643, -1200, 761, -1454, -25, -3, -6
1.530656, -1202, 758, -1447, -28, -2, -8
1.531670, -1205, 753, -1444, -29, -2, -10
1.532683, -1208, 750, -1442, -31, -1, -11
1.533697, -1209, 750, -1440, -32, 0, -12
1.534710, -1210, 750, -1435, -32, 1, -11
1.535724, -1211, 748, -1430, -33, 2, -11
1.536737, -1212, 744, -1426, -34, 3, -12
1.537751, -1210, 741, -1423, -34, 3, -13
1.538764, -1212, 739, -1422, -34, 3, -13
1.539777, -1214, 737, -1420, -33, 4, -14
1.540791, -1216, 735, -1419, -33, 4, -16
1.541806, -1217, 733, -1423, -32, 4, -16
1.542818, -1216, 731, -1426, -32, 4, -16
1.543832, -1217, 732, -1426, -32, 4, -17
1.544845, -1219, 732, -1426, -31, 5, -18
1.545858, -1222, 729, -1430, -30, 5, -19
1.546872, -1226, 729, -1434, -31, 5, -21
1.547885, -1230, 729, -1434, -32, 5, -21
1.548898, -1234, 726, -1434, -32, 5, -21
1.549912, -1236, 725, -1434, -31, 6, -21
1.550926, -1237, 727, -1434, -32, 6, -21
1.551939, -1242, 726, -1433, -32, 6, -20
1.552952, -1243, 720, -1433, -33, 5, -20
1.553966, -1240, 718, -1432, -34, 4, -20
1.554979, -1240, 719, -1430, -34, 4, -20
1.555992, -1240, 719, -1432, -34, 4, -20
1.557006, -1239, 717, -1435, -34, 4, -19
1.558019, -1239, 716, -1431, -34, 4, -19
1.559032, -1237, 714, -1428, -35, 4, -20
1.560046, -1234, 710, -1428, -35, 5, -20
1.561059, -1232, 708, -1425, -35, 5, -20
1.562073, -1230, 708, -1421, -34, 6, -21
1.563086, -1228, 708, -1417, -33, 8, -22
1.564101, -1225, 710, -1412, -32, 8, -23
1.565114, -1223, 711, -1409, -32, 10, -23
1.566127, -1224, 709, -1407, -31, 11, -23
1.567140, -1225, 708, -1404, -30, 12, -24
1.568154, -1227, 704, -1402, -28, 13, -26
1.569168, -1231, 701, -1399, -25, 14, -28
1.570182, -1232, 703, -1398, -24, 16, -29
1.571194, -1232, 705, -1398, -22, 16, -29
1.572208, -1236, 704, -1396, -20, 15, -29
1.573221, -1239, 702, -1397, -17, 15, -30
1.574234, -1241, 699, -1400, -14, 16, -29
1.575248, -1246, 698, -1403, -12, 14, -30
1.576261, -1250, 696, -1406, -9, 13, -31
1.577275, -1253, 694, -1411, -6, 13, -31
1.578289, -1255, 693, -1418, -4, 12, -31
1.579302, -1255, 695, -1427, -4, 11, -31
1.580315, -1256, 695, -1435, -3, 10, -30
1.581328, -1258, 694, -1438, -1, 10, -30
1.582342, -1259, 693, -1439, 0, 8, -28
1.583355, -1258, 693, -1440, 0, 7, -26
1.584369, -1258, 693, -1437, 1, 8, -24
1.585382, -1260, 693, -1433, 2, 7, -23
1.586396, -1261, 693, -1432, 3, 7, -22
1.587409, -1256, 695, -1432, 3, 7, -20
1.588423, -1245, 696, -1433, 4, 7, -19
1.589436, -1237, 694, -1432, 5, 7, -19
1.590450, -1234, 691, -1429, 7, 7, -20
1.591463, -1233, 693, -1426, 8, 7, -22
1.592476, -1231, 697, -1426, 9, 7, -22
1.593490, -1228, 700, -1426, 11, 7, -22
1.594504, -1228, 701, -1427, 14, 5, -23
1.595516, -1231, 701, -1428, 16, 5, -24
1.596530, -1233, 701, -1431, 17, 5, -24
1.597544, -1237, 701, -1432, 18, 4, -25
1.598557, -1241, 703, -1434, 19, 3, -26
1.599570, -1242, 702, -1439, 21, 2, -27
1.600584, -1243, 701, -1440, 24, 0, -27
1.601597, -1248, 703, -1441, 25, -2, -26
1.602611, -1252, 705, -1445, 25, -2, -24
1.603624, -1255, 705, -1449, 27, -3, -22
1.604638, -1252, 704, -1451, 27, -5, -23
1.605651, -1248, 703, -1453, 27, -6, -22
1.606665, -1249, 702, -1455, 26, -6, -21
1.607678, -1252, 701, -1459, 27, -6, -21
1.608691, -1250, 700, -1463, 27, -6, -21
1.609705, -1248, 698, -1463, 27, -6, -19
1.610718, -1248, 697, -1464, 26, -6, -20
1.611731, -1248, 693, -1465, 26, -6, -21
1.612746, -1247, 690, -1467, 26, -6, -20
1.613758, -1251, 690, -1471, 26, -6, -19
1.614772, -1255, 692, -1473, 24, -5, -20
1.615786, -1258, 694, -1473, 22, -4, -20
1.616800, -1264, 694, -1474, 21, -3, -19
1.617813, -1267, 695, -1473, 18, -3, -18
1.618828, -1266, 694, -1472, 17, -3, -17
1.619839, -1268, 693, -1470, 17, -2, -17
1.620853, -1270, 695, -1467, 16, -2, -17
1.621866, -1269, 697, -1467, 15, -1, -16
1.622881, -1269, 699, -1468, 14, 0, -15
1.623895, -1272, 700, -1468, 13, 1, -14
1.624906, -1274, 703, -1467, 13, 1, -13
1.625921, -1274, 705, -1467, 12, 1, -13
1.626933, -1275, 706, -1465, 10, 1, -14
1.627947, -1276, 705, -1463, 9, 2, -14
1.628960, -1274, 704, -1464, 10, 2, -14
1.629974, -1274, 706, -1466, 9, 2, -13
1.630987, -1275, 706, -1465, 9, 1, -11
1.632001, -1278, 704, -1468, 9, 1, -12
1.633014, -1284, 704, -1472, 8, 0, -13
1.634027, -1285, 706, -1473, 8, -1, -13
1.635041, -1286, 708, -1473, 6, -2, -13
1.636054, -1288, 707, -1477, 4, -2, -12
1.637068, -1288, 705, -1481, 4, -1, -10
1.638081, -1289, 705, -1479, 2, -2, -10
1.639095, -1288, 704, -1476, 0, -4, -10
1.640108, -1288, 701, -1477, 0, -5, -9
1.641122, -1289, 699, -1476, -1, -5, -9
1.642135, -1289, 699, -1475, -3, -6, -8
1.643149, -1288, 700, -1471, -3, -7, -8
1.644163, -1285, 701, -1469, -4, -6, -7
1.645175, -1282, 701, -1472, -5, -5, -7
1.646189, -1281, 701, -1473, -7, -5, -6
1.647202, -1280, 702, -1472, -7, -5, -5
1.648216, -1276, 703, -1473, -7, -4, -4
1.649229, -1272, 701, -1474, -8, -4, -5
1.650243, -1271, 699, -1475, -10, -4, -6
1.651256, -1272, 700, -1476, -11, -4, -6
1.652269, -1272, 701, -1483, -11, -4, -6
1.653283, -1272, 700, -1489, -13, -3, -6
1.654296, -1270, 702, -1489, -14, -2, -5
1.655311, -1268, 704, -1490, -16, -3, -6
1.656323, -1268, 705, -1495, -18, -3, -6
1.657336, -1269, 705, -1496, -19, -2, -5
1.658350, -1267, 703, -1494, -20, -2, -6
1.659364, -1265, 702, -1495, -21, -2, -5
1.660377, -1264, 703, -1495, -22, -1, -5
1.661390, -1263, 706, -1494, -25, -1, -6
1.662404, -1259, 709, -1498, -25, -1, -6
1.663417, -1255, 706, -1501, -25, 0, -7
1.664431, -1251, 702, -1502, -26, 0, -7
1.665444, -1250, 703, -1505, -27, -1, -7
1.666458, -1248, 707, -1509, -29, -2, -7
1.667471, -1245, 709, -1509, -31, -3, -8
1.668484, -1243, 709, -1510, -33, -3, -9
1.669498, -1228, 690, -1507, -34, -4, -10
1.670511, -966, 459, -1462, -32, -4, -18
1.671524, -236, -54, -1240, -15, 4, -71
1.672538, 199, -313, -933, 36, 42, -199
1.673551, -438, 75, -1003, 112, 113, -330
1.674565, -1297, 678, -1383, 159, 168, -374
1.675578, -1531, 995, -1507, 159, 170, -354
1.676592, -1538, 1002, -1403, 146, 141, -329
1.677605, -1603, 865, -1393, 136, 121, -295
1.678619, -1579, 706, -1451, 125, 111, -249
1.679632, -1500, 582, -1468, 109, 102, -212
1.680646, -1461, 516, -1455, 96, 89, -191
1.681659, -1459, 510, -1443, 88, 78, -175
1.682673, -1472, 540, -1437, 85, 73, -162
1.683686, -1495, 575, -1441, 87, 67, -148
1.684700, -1523, 603, -1454, 92, 55, -132
1.685713, -1538, 617, -1476, 99, 38, -111
1.686726, -1531, 617, -1504, 107, 20, -86
1.687740, -1509, 609, -1537, 113, 3, -61
1.688753, -1483, 609, -1567, 116, -8, -37
1.689767, -1458, 619, -1587, 114, -15, -16
1.690780, -1438, 634, -1599, 106, -20, 4
1.691793, -1421, 648, -1602, 94, -21, 22
1.692807, -1405, 657, -1600, 82, -23, 37
1.693820, -1386, 662, -1592, 68, -28, 51
1.694834, -1361, 663, -1579, 53, -34, 63
1.695848, -1337, 660, -1563, 42, -40, 74
1.696861, -1317, 657, -1541, 31, -46, 84
1.697874, -1298, 652, -1517, 21, -52, 91
1.698887, -1282, 648, -1497, 13, -54, 96
1.699901, -1272, 644, -1480, 9, -54, 101
1.700915, -1266, 641, -1463, 8, -53, 106
1.701928, -1263, 638, -1450, 7, -51, 110
1.702941, -1264, 639, -1441, 6, -50, 114
1.703954, -1267, 641, -1435, 5, -49, 118
1.704968, -1274, 641, -1435, 5, -49, 121
1.705981, -1286, 641, -1440, 5, -50, 125
1.706995, -1296, 642, -1442, 5, -51, 131
1.708008, -1304, 647, -1443, 3, -53, 139
1.709022, -1312, 651, -1446, 2, -55, 147
1.710035, -1317, 653, -1447, 2, -57, 155
1.711048, -1317, 655, -1447, 0, -59, 163
1.712062, -1318, 658, -1450, -2, -61, 171
1.713075, -1316, 661, -1450, -2, -63, 179
1.714089, -1311, 664, -1445, -1, -64, 186
1.715102, -1304, 665, -1443, -1, -67, 192
1.716116, -1294, 667, -1444, -2, -72, 196
1.717129, -1284, 671, -1444, -3, -76, 200
1.718142, -1274, 673, -1449, -2, -80, 205
1.719157, -1262, 674, -1459, -1, -83, 209
1.720172, -1251, 675, -1468, -1, -85, 211
1.721186, -1243, 673, -1474, -2, -84, 213
1.722197, -1230, 677, -1482, -3, -82, 214
1.723210, -1211, 688, -1487, -6, -80, 213
1.724224, -1197, 698, -1487, -11, -77, 211
1.725239, -1189, 705, -1486, -15, -73, 208
1.726252, -1159, 713, -1500, -20, -70, 205
1.727265, -1084, 716, -1537, -26, -66, 196
1.728277, -986, 713, -1594, -38, -59, 181
1.729291, -857, 708, -1680, -55, -51, 157
1.730304, -651, 698, -1725, -77, -37, 118
1.731318, -550, 669, -1519, -90, -17, 60
1.732331, -668, 649, -1189, -72, 8, 4
1.733344, -689, 703, -1318, -36, 28, -37
1.734358, -564, 817, -1917, -39, 41, -84
1.735371, -565, 884, -2227, -97, 59, -143
1.736385, -799, 846, -1888, -159, 88, -192
1.737398, -1150, 783, -1411, -173, 114, -209
1.738412, -1359, 796, -1247, -147, 118, -197
1.739425, -1423, 853, -1242, -112, 100, -176
1.740438, -1527, 893, -1296, -82, 75, -152
1.741452, -1675, 916, -1346, -63, 58, -122
1.742465, -1698, 927, -1361, -51, 42, -83
1.743479, -1550, 936, -1533, -46, 15, -48
1.744492, -1388, 910, -1602, -55, -15, -26
1.745508, -1179, 835, -1377, -55, -36, -17
1.746519, -902, 793, -1332, -33, -47, -28
1.747533, -780, 815, -1644, -19, -47, -60
1.748546, -926, 828, -1808, -33, -36, -88
1.749559, -1085, 799, -1598, -48, -17, -97
1.750573, -925, 812, -1541, -45, -2, -102
1.751587, -722, 881, -1762, -50, 5, -132
1.752600, -835, 855, -1577, -65, 16, -171
1.753613, -1056, 745, -1117, -48, 32, -192
1.754627, -1273, 729, -1191, -4, 37, -194
1.755640, -1639, 771, -1407, 20, 25, -173
1.756653, -2088, 785, -1211, 35, 2, -115
1.757667, -1978, 853, -1168, 64, -29, -35
1.758680, -1342, 931, -1494, 80, -67, 2
1.759694, -1051, 895, -1725, 61, -92, -15
1.760707, -929, 791, -1753, 30, -89, -39
1.761721, -777, 721, -1679, 8, -71, -67
1.762734, -826, 685, -1592, 4, -57, -100
1.763748, -868, 647, -1596, 8, -47, -122
1.764761, -933, 633, -1493, 16, -32, -141
1.765774, -1091, 694, -1309, 38, -8, -157
1.766788, -1583, 810, -1327, 64, 12, -156
1.767811, -2320, 875, -1290, 82, 18, -93
1.768815, -2074, 868, -1233, 102, -6, 10
1.769828, -745, 829, -1580, 108, -65, 30
1.770841, 17, 717, -2025, 71, -102, -77
1.771855, -545, 568, -2011, 13, -67, -191
1.772869, -1300, 529, -1482, -11, 0, -210
1.773882, -1522, 658, -917, 34, 18, -175
1.774896, -1508, 834, -989, 111, -19, -142
1.775909, -1297, 902, -1576, 148, -56, -125
1.776922, -1091, 860, -1922, 125, -57, -127
1.777936, -971, 766, -1771, 87, -30, -145
1.778949, -1192, 699, -1462, 77, -6, -163
1.779963, -1640, 715, -1279, 91, -2, -150
1.780976, -1735, 725, -1153, 120, -25, -108
1.781990, -1696, 695, -1175, 155, -65, -71
1.783003, -1463, 690, -1489, 172, -101, -47
1.784016, -1199, 673, -1617, 160, -117, -50
1.785030, -1582, 616, -1235, 157, -96, -54
1.786043, -2248, 633, -856, 198, -71, 0
1.787056, -2249, 747, -938, 258, -98, 98
1.788070, -1603, 799, -1331, 291, -167, 157
1.789084, -1126, 711, -1575, 284, -211, 152
1.790097, -1037, 591, -1556, 266, -199, 125
1.791110, -1043, 543, -1530, 255, -166, 105
1.792124, -1062, 561, -1557, 250, -149, 88
1.793137, -1104, 593, -1560, 245, -144, 75
1.794151, -1133, 613, -1534, 241, -137, 64
1.795164, -1142, 618, -1501, 238, -121, 57
1.796178, -1152, 620, -1485, 235, -103, 47
1.797191, -1173, 620, -1464, 231, -88, 34
1.798204, -1193, 611, -1431, 228, -80, 22
1.799218, -1210, 607, -1432, 228, -79, 13
1.800231, -1223, 613, -1442, 227, -83, 4
1.801245, -1243, 616, -1401, 226, -93, -5
1.802258, -1274, 608, -1335, 230, -113, -14
1.803272, -1298, 596, -1310, 240, -141, -21
1.804285, -1307, 595, -1352, 253, -161, -26
1.805298, -1314, 611, -1384, 264, -159, -27
1.806312, -1308, 632, -1362, 277, -142, -25
1.807325, -1298, 639, -1365, 290, -131, -21
1.808340, -1316, 625, -1383, 297, -137, -20
1.809352, -1347, 606, -1369, 299, -159, -21
1.810366, -1365, 598, -1359, 302, -189, -22
1.811379, -1375, 600, -1367, 306, -213, -23
1.812392, -1381, 614, -1384, 312, -212, -21
1.813406, -1389, 632, -1397, 320, -193, -13
1.814420, -1399, 645, -1398, 326, -175, -4
1.815433, -1409, 652, -1404, 332, -167, 7
1.816447, -1420, 652, -1408, 337, -162, 21
1.817459, -1431, 646, -1405, 341, -160, 36
1.818472, -1442, 641, -1405, 343, -162, 51
1.819486, -1449, 633, -1411, 345, -166, 67
1.820503, -1454, 627, -1414, 346, -170, 81
1.821514, -1462, 627, -1416, 347, -176, 95
1.822529, -1472, 626, -1415, 350, -187, 109
1.823540, -1478, 621, -1406, 353, -206, 123
1.824554, -1475, 610, -1403, 356, -231, 135
1.825567, -1463, 600, -1425, 360, -252, 149
1.826581, -1454, 608, -1457, 364, -251, 163
1.827595, -1450, 626, -1469, 366, -240, 179
1.828608, -1448, 633, -1453, 363, -251, 192
1.829623, -1435, 622, -1444, 358, -291, 203
1.830634, -1399, 616, -1486, 355, -321, 212
1.831648, -1357, 629, -1540, 350, -312, 221
1.832662, -1343, 635, -1538, 342, -292, 227
1.833675, -1372, 628, -1493, 335, -291, 232
1.834688, -1391, 624, -1482, 331, -298, 240
1.835702, -1340, 628, -1545, 326, -294, 248
1.836715, -1122, 626, -1680, 312, -279, 247
1.837729, -759, 592, -1863, 282, -258, 216
1.838742, -1000, 549, -1695, 247, -228, 166
1.839756, -1809, 576, -1166, 250, -197, 175
1.840769, -1896, 678, -1095, 290, -206, 248
1.841782, -1459, 731, -1412, 312, -263, 288
1.842796, -1294, 672, -1532, 302, -309, 283
1.843809, -1095, 583, -1682, 282, -306, 269
1.844824, -589, 532, -2194, 237, -262, 232
1.845836, 629, 512, -3432, 114, -194, 127
1.846849, 2363, 514, -5429, -167, -93, -129
1.847863, 2590, 451, -6244, -606, 76, -511
1.848876, 1050, 378, -4983, -1013, 320, -806
1.849890, -67, 506, -3774, -1247, 545, -923
1.850903, -432, 666, -3108, -1353, 698, -965
1.851916, -905, 735, -2359, -1394, 852, -993
1.852930, -2117, 843, -1547, -1397, 993, -985
1.853944, -5929, 785, 1786, -1248, 1011, -787
1.854959, -9469, 595, 8071, -631, 786, -182
1.855971, -6703, 986, 8997, 406, 249, 513
1.856984, -1813, 1752, 1345, 1078, -385, 714
1.857997, -873, 1609, -3882, 957, -749, 554
1.859011, -1125, 696, -2292, 625, -796, 462
1.860024, -588, 259, -863, 545, -733, 441
1.861038, -503, 430, -1542, 564, -694, 411
1.862051, -624, 630, -1894, 543, -709, 399
1.863065, -570, 653, -1731, 530, -694, 391
1.864078, -568, 582, -1715, 538, -567, 365
1.865091, -435, 504, -2030, 533, -376, 324
1.866104, -123, 421, -2583, 476, -196, 249
1.867118, 251, 325, -2993, 355, -64, 130
1.868131, 543, 249, -3167, 198, 19, -34
1.869145, 548, 264, -3546, 19, 78, -220
1.870158, -61, 249, -3362, -172, 131, -388
1.871171, -1744, 50, -1263, -251, 163, -456
1.872185, -2787, 122, 344, -117, 148, -362
1.873199, -1458, 608, -909, 61, 75, -263
1.874212, 515, 894, -3234, 34, 6, -363
1.875226, 1571, 950, -5405, -250, 58, -627
1.876239, 1173, 1146, -6766, -725, 238, -901
1.877253, -485, 1327, -6084, -1226, 466, -1042
1.878266, -1630, 1211, -3734, -1547, 662, -1001
1.879280, -1661, 841, -884, -1585, 823, -892
1.880293, -1521, 416, 1194, -1329, 942, -802
1.881306, -1469, 392, 994, -959, 861, -751
1.882319, -1622, 911, -676, -759, 629, -767
1.883333, -2782, 1357, -1222, -757, 474, -750
1.884346, -4321, 995, 1818, -653, 401, -568
1.885360, -4679, 346, 5732, -138, 259, -269
1.886374, -3866, 757, 3783, 537, -47, 8
1.887387, -2706, 1574, -1005, 816, -390, 176
1.888400, -1769, 1514, -2641, 696, -566, 237
1.889414, -1194, 1049, -3045, 478, -558, 241
1.890428, -777, 800, -3787, 232, -471, 232
1.891441, -468, 690, -3814, -26, -383, 212
1.892454, -253, 527, -3127, -223, -287, 173
1.893467, -144, 275, -2348, -319, -163, 115
1.894481, -96, 141, -1818, -330, -38, 42
1.895494, 112, 234, -1857, -311, 73, -56
1.896508, 362, 380, -2420, -332, 164, -196
1.897521, -151, 421, -2606, -418, 231, -352
1.898535, -1862, 344, -1602, -479, 265, -409
1.899548, -3079, 452, -552, -422, 241, -294
1.900562, -2845, 884, -858, -321, 146, -135
1.901575, -3434, 1237, -972, -273, 25, -11
1.902589, -4852, 1398, 200, -194, -75, 223
1.903602, -3216, 1322, 552, -31, -192, 525
1.904615, 617, 540, 951, 154, -351, 543
1.905629, 1270, -440, 2871, 465, -438, 264
1.906642, -800, -308, 2119, 898, -398, 100
1.907656, -1486, 646, -1452, 1109, -378, 146
1.908669, -901, 1156, -2849, 1001, -452, 163
1.909683, -804, 1065, -1963, 848, -505, 103
1.910696, -894, 876, -1520, 787, -471, 66
1.911709, -786, 763, -1781, 751, -404, 52
1.912723, -789, 667, -1913, 704, -334, 30
1.913737, -882, 575, -1933, 659, -262, 3
1.914750, -967, 511, -2022, 612, -211, -24
1.915763, -1065, 484, -2112, 553, -187, -52
1.916776, -1133, 500, -2252, 481, -168, -77
1.917790, -1145, 540, -2512, 391, -144, -104
1.918804, -1319, 537, -2182, 303, -124, -129
1.919819, -1604, 518, -1273, 287, -121, -129
1.920832, -1593, 593, -1137, 339, -145, -107
1.921846, -1472, 699, -1711, 367, -184, -92
1.922857, -1525, 746, -2146, 332, -207, -82
1.923871, -1520, 757, -2373, 254, -198, -60
1.924884, -1218, 758, -2620, 150, -166, -44
1.925900, -1133, 729, -2479, 34, -124, -57
1.926907, -1640, 689, -1450, -23, -91, -52
1.927925, -1573, 793, -1409, -4, -86, 1
1.928938, -765, 939, -2939, -65, -86, 6
1.929951, -1047, 834, -3013, -241, -53, -49
1.930965, -1782, 664, -1670, -347, -1, -34
1.931979, -1125, 649, -1527, -350, 17, 12
1.932991, -408, 621, -2055, -369, 7, -31
1.934005, -82, 600, -2704, -447, 32, -129
1.935019, 211, 552, -2906, -584, 108, -259
1.936032, -744, 261, -2, -606, 199, -376
1.937045, -2167, 226, 3189, -270, 231, -359
1.938059, -2610, 841, 1807, 196, 127, -228
1.939072, -2184, 1315, -1152, 381, -44, -113
1.940087, -1682, 1138, -1846, 310, -133, -71
1.941099, -1534, 770, -1358, 223, -123, -62
1.942113, -1327, 590, -1156, 190, -108, -51
1.943126, -972, 569, -1312, 178, -137, -59
1.944139, -774, 582, -1635, 159, -167, -97
1.945153, -944, 548, -1593, 133, -153, -138
1.946166, -1481, 483, -798, 156, -108, -140
1.947180, -1787, 521, -299, 262, -85, -92
1.948193, -1499, 647, -1040, 360, -106, -44
1.949207, -1179, 647, -1985, 350, -139, -44
1.950220, -1360, 487, -1764, 284, -134, -62
1.951234, -1676, 381, -943, 283, -114, -50
1.952247, -1684, 440, -627, 353, -139, -17
1.953261, -1540, 543, -797, 429, -212, 4
1.954274, -1356, 600, -1453, 459, -269, 7
1.955287, -1231, 594, -2072, 419, -264, 0
1.956301, -1173, 560, -2374, 335, -216, -8
1.957314, -900, 609, -3442, 191, -164, -25
1.958327, -621, 747, -5090, -95, -86, -76
1.959341, -786, 807, -5564, -490, 29, -130
1.960354, -1006, 692, -4407, -831, 133, -144
1.961368, -987, 569, -2982, -1023, 200, -150
1.962381, -1185, 587, -2164, -1089, 232, -168
1.963395, -1614, 654, -1576, -1077, 281, -156
1.964408, -1374, 304, 1253, -920, 353, -121
1.965421, -666, -241, 5262, -416, 349, -150
1.966434, -1110, 159, 3938, 266, 207, -226
1.967448, -2150, 1167, -1472, 557, 7, -222
1.968462, -2487, 1647, -4777, 314, -118, -136
1.969476, -2494, 1542, -5105, -149, -135, -43
1.970489, -2308, 1178, -3779, -542, -106, 56
1.971502, -1546, 722, -1743, -723, -95, 144
1.972516, 370, -29, 1708, -586, -110, 120
1.973529, 1530, -580, 4447, -68, -99, -94
1.974542, -179, 24, 2291, 526, -38, -307
1.975556, -1595, 1004, -2042, 738, 11, -314
1.976570, -922, 1265, -4127, 533, -4, -282
1.977583, -682, 1094, -4410, 178, -8, -351
1.978596, -1824, 1026, -4600, -182, 48, -378
1.979610, -2817, 782, -3459, -488, 88, -262
1.980623, -2511, 13, 949, -501, 63, -107
1.981637, -1909, -542, 5877, 27, -21, -34
1.982650, -1656, -126, 5588, 864, -167, -23
1.983665, -1347, 733, 145, 1369, -337, -40
1.984677, -1300, 1001, -3387, 1295, -434, -81
1.985690, -1337, 683, -3044, 1014, -420, -106
1.986704, -1213, 488, -2763, 802, -376, -113
1.987717, -1380, 578, -3221, 613, -362, -104
1.988731, -1525, 724, -3367, 415, -343, -66
1.989744, -1674, 859, -3523, 221, -288, -21
1.990758, -1986, 947, -3899, 8, -201, 40
1.991771, -1854, 705, -3221, -204, -109, 113
1.992785, -1297, 40, -169, -235, -58, 150
1.993798, -197, -473, 2775, 81, -58, 104
1.994812, 308, -234, 2089, 551, -69, -50
1.995825, -842, 516, -988, 797, -72, -184
1.996838, -1745, 1037, -3093, 715, -88, -187
1.997852, -1534, 1061, -3697, 462, -132, -155
1.998865, -1340, 932, -4291, 161, -173, -156
1.999878, -1638, 1001, -5303, -200, -151, -144
2.000892, -2053, 933, -4239, -575, -67, -82
2.001906, -2359, 242, 1381, -609, -5, 11
2.002919, -2252, -116, 5166, -67, -51, 116
2.003932, -1561, 644, 858, 502, -161, 182
2.004947, -1665, 1419, -4714, 474, -192, 186
2.005959, -2661, 1655, -6875, -33, -100, 248
2.006972, -2880, 1484, -6878, -671, 17, 404
2.007987, -2183, 635, -3512, -1129, 34, 541
2.009000, -834, -285, 1055, -1113, -47, 580
2.010015, 824, -521, 2882, -690, -129, 465
2.011028, 1537, -204, 1530, -214, -130, 210
2.012040, 961, 418, -1435, 13, -25, -46
2.013054, 422, 771, -2708, -52, 113, -226
2.014067, -314, 681, -1899, -178, 200, -355
2.015082, -1708, 771, -1517, -241, 218, -371
2.016095, -1529, 473, 2506, -122, 169, -289
2.017109, -467, -73, 7532, 507, 61, -305
2.018122, -867, 609, 2920, 1248, -75, -395
2.019135, -1576, 1468, -3720, 1305, -162, -412
2.020150, -1500, 1117, -2473, 970, -168, -391
2.021162, -1214, 575, -284, 863, -193, -403
2.022175, -1149, 520, -1035, 891, -294, -430
2.023201, -1245, 554, -1494, 873, -387, -440
2.024206, -1305, 527, -1363, 864, -385, -435
2.025220, -1310, 517, -1455, 882, -294, -424
2.026234, -1325, 508, -1521, 895, -191, -412
2.027245, -1396, 476, -1530, 899, -150, -399
2.028254, -1545, 452, -1655, 894, -158, -382
2.029269, -1715, 465, -1834, 869, -168, -355
2.030281, -1786, 491, -1871, 828, -175, -319
2.031295, -1848, 526, -1829, 783, -193, -283
2.032309, -2014, 600, -1865, 735, -230, -239
2.033321, -2004, 659, -1815, 681, -290, -181
2.034335, -1780, 662, -1779, 629, -368, -136
2.035349, -1621, 651, -2061, 569, -434, -111
2.036362, -1776, 704, -3030, 462, -423, -84
2.037376, -2669, 958, -5213, 212, -292, -1
2.038389, -3884, 1359, -7637, -289, -114, 210
2.039402, -4169, 1576, -8239, -985, 6, 501
2.040416, -3221, 1315, -6398, -1626, 85, 748
2.041429, -350, -67, 157, -1825, 157, 844
2.042443, 3793, -2076, 10110, -1112, 203, 584
2.043456, 4507, -1978, 11162, 313, 183, 2
2.044470, 932, 366, 1460, 1277, 87, -424
2.045483, -2347, 1963, -5463, 1200, 13, -453
2.046496, -3808, 2228, -7341, 575, 37, -257
2.047510, -4563, 2282, -8845, -234, 104, 30
2.048524, -4483, 2096, -7949, -1094, 137, 359
2.049536, -3482, 1562, -5002, -1720, 146, 633
2.050550, -2397, 1106, -3508, -2013, 193, 785
2.051564, -1770, 764, -2981, -2130, 323, 855
2.052577, -1134, 212, -1271, -2127, 526, 885
2.053590, 0, -499, 1257, -1902, 698, 839
2.054606, 895, -897, 2824, -1450, 708, 688
2.055617, 1032, -680, 2673, -940, 545, 466
2.056631, 635, -156, 1872, -520, 336, 228
2.057644, 70, 237, 2089, -169, 195, 31
2.058657, -218, 553, 2226, 193, 104, -119
2.059671, -941, 1072, -79, 444, 23, -220
2.060685, -2109, 1533, -2658, 401, -13, -203
2.061698, -2511, 1497, -2748, 176, -20, -75
2.062711, -2057, 943, -432, 59, -43, 44
2.063725, -1398, 432, 1478, 210, -82, 94
2.064738, -959, 552, -337, 419, -108, 87
2.065752, -1150, 798, -2691, 392, -76, 60
2.066762, -1869, 742, -2736, 218, 8, 75
2.067780, -1383, 401, -144, 169, 56, 127
2.068794, 847, -219, 4234, 515, -12, 45
2.069805, 1725, -256, 3273, 1128, -163, -242
2.070819, -262, 395, -1980, 1397, -278, -486
2.071833, -2106, 718, -3103, 1256, -296, -491
2.072846, -2093, 723, -1761, 1134, -275, -396
2.073860, -1675, 810, -1701, 1103, -297, -355
2.074873, -1579, 832, -1768, 1060, -352, -343
2.075886, -1522, 752, -1602, 1021, -384, -325
2.076900, -1487, 702, -1694, 996, -373, -309
2.077913, -1517, 717, -1883, 964, -323, -293
2.078927, -1582, 755, -1952, 919, -263, -266
2.079941, -1587, 766, -1907, 871, -237, -230
2.080954, -1465, 741, -1804, 829, -252, -197
2.081967, -1324, 707, -1687, 798, -275, -182
2.082980, -1320, 695, -1676, 777, -286, -179
2.083994, -1430, 722, -1802, 754, -279, -172
2.085007, -1515, 764, -1876, 720, -259, -152
2.086021, -1589, 800, -1859, 679, -236, -125
2.087034, -1807, 834, -1932, 632, -227, -84
2.088047, -2217, 866, -2116, 565, -235, -13
2.089061, -2336, 859, -2177, 479, -250, 94
2.090076, -1660, 733, -2008, 397, -273, 174
2.091088, -1598, 633, -2477, 312, -271, 188
2.092101, -3126, 902, -4924, 99, -203, 268
2.093115, -4516, 1601, -8855, -446, -85, 524
2.094129, -3170, 1722, -9561, -1282, 25, 826
2.095141, -16, 632, -5759, -1959, 104, 867
2.096155, 541, -260, -2852, -2210, 220, 660
2.097169, -655, -313, -943, -2153, 432, 548
2.098182, -1176, 172, -277, -1921, 626, 563
2.099196, -986, 883, -2256, -1795, 657, 594
2.100209, 553, 798, -2103, -1842, 627, 522
2.101222, 297, 568, -958, -1832, 664, 318
2.102236, -1664, 527, -336, -1757, 699, 253
2.103249, -1397, -4, 2135, -1540, 696, 319
2.104263, -865, 103, 3222, -1121, 602, 294
2.105275, -619, 653, 2986, -682, 367, 213
2.106289, -5, 687, 3086, -266, 134, 83
2.107303, -827, 960, 742, 46, 33, -52
2.108317, -1718, 1493, -2637, 42, 30, -53
2.109329, -1679, 1620, -3801, -230, 39, 12
2.110345, -1712, 1379, -3408, -536, 55, 63
2.111352, -1663, 1002, -2516, -736, 92, 127
2.112373, -1486, 621, -1231, -784, 119, 192
2.113384, -940, 279, 231, -664, 119, 213
2.114397, -57, -8, 1136, -400, 119, 134
2.115406, 32, -102, 999, -81, 136, -16
2.116425, -498, 3, 489, 195, 145, -142
2.117439, -1046, 283, -385, 382, 115, -217
2.118451, -1713, 695, -1795, 432, 54, -238
2.119464, -2040, 937, -2637, 342, -10, -199
2.120478, -2011, 917, -2581, 204, -58, -143
2.121491, -1942, 829, -2308, 91, -78, -84
2.122505, -1820, 758, -2076, 15, -83, -27
2.123518, -1707, 675, -1743, -25, -72, 21
2.124531, -1418, 506, -879, -2, -53, 53
2.125545, -1177, 358, -61, 115, -58, 49
2.126558, -991, 351, 4, 279, -73, 25
2.127572, -786, 343, 461, 457, -90, -17
2.128585, -1282, 507, 382, 660, -130, -59
2.129599, -1817, 902, -1421, 762, -177, -37
2.130614, -1264, 996, -2282, 689, -227, -2
2.131625, -776, 790, -1624, 598, -274, -41
2.132639, -1304, 771, -1591, 571, -277, -80
2.133652, -1671, 911, -2240, 527, -242, -44
2.134665, -1820, 971, -3008, 412, -215, 15
2.135679, -2298, 960, -3715, 218, -182, 93
2.136693, -1483, 663, -2627, 27, -134, 184
2.137706, 1097, -62, 935, 79, -97, 106
2.138720, 1958, -377, 3087, 480, -64, -201
2.139733, -478, 345, 905, 912, -39, -435
2.140747, -2363, 1205, -2291, 1012, -88, -395
2.141760, -2041, 1373, -3506, 823, -215, -281
2.142773, -1853, 1189, -3902, 550, -278, -240
2.143787, -2380, 1105, -4645, 238, -199, -171
2.144800, -2624, 966, -4501, -112, -89, -37
2.145814, -2761, 584, -1937, -325, -40, 100
2.146827, -2557, 457, -519, -272, -37, 236
2.147840, -1367, 819, -3384, -257, -74, 308
2.148854, -385, 666, -3350, -464, -93, 251
2.149868, -192, -181, 2144, -403, -54, 137
2.150881, -414, -192, 3276, 97, -27, 40
2.151895, -1187, 692, -448, 459, -46, 0
2.152907, -1979, 1109, -1611, 484, -88, 38
2.153920, -2433, 1155, -1884, 415, -125, 127
2.154934, -2496, 1349, -4132, 213, -138, 244
2.155948, -2174, 1384, -5475, -196, -124, 353
2.156961, -2195, 1316, -5432, -660, -72, 437
2.157974, -1589, 809, -2898, -998, 12, 515
2.158988, -298, -502, 3937, -837, 47, 501
2.160002, 211, -984, 6871, -43, -17, 374
2.161015, 856, 2, 1779, 673, -107, 200
2.162028, 273, 832, -2460, 798, -123, -12
2.163042, -2370, 1108, -3260, 600, -45, -78
2.164055, -3832, 1394, -4497, 294, 12, 110
2.165069, -3337, 1605, -5911, -152, -46, 353
2.166083, -2215, 1414, -5812, -661, -121, 497
2.167096, -994, 780, -4077, -1044, -107, 525
2.168109, -108, 27, -1460, -1168, -30, 448
2.169123, 254, -519, 1149, -974, 68, 317
2.170136, 438, -392, 1071, -594, 146, 175
2.171150, 323, 452, -2237, -402, 192, 11
2.172163, -326, 1092, -4517, -570, 257, -133
2.173176, -1027, 962, -3378, -846, 337, -197
2.174190, -1261, 554, -942, -937, 392, -199
2.175203, -1221, 609, -425, -836, 399, -190
2.176217, -1529, 1051, -1490, -762, 340, -183
2.177231, -1826, 1084, -1103, -768, 268, -153
2.178243, -545, 368, 1904, -615, 237, -151
2.179257, 1297, -333, 5016, -120, 172, -319
2.180271, 111, -107, 5109, 567, 54, -571
2.181284, -2658, 786, 2695, 1124, -30, -596
2.182297, -2921, 1527, -433, 1347, -131, -415
2.183311, -1743, 1617, -2342, 1248, -307, -316
2.184324, -1411, 1173, -2288, 1036, -439, -318
2.185337, -1428, 745, -1833, 894, -441, -303
2.186351, -1205, 591, -1850, 827, -366, -276
2.187364, -1127, 594, -2226, 771, -288, -271
2.188378, -1445, 622, -2928, 676, -218, -264
2.189391, -2126, 704, -4069, 502, -121, -206
2.190405, -2976, 918, -5723, 200, 0, -63
2.191418, -3227, 1020, -6659, -268, 53, 112
2.192432, -3026, 800, -5657, -763, 49, 244
2.193445, -3320, 571, -3962, -1078, 60, 382
2.194459, -3429, 610, -3023, -1211, 71, 567
2.195472, -2594, 625, -2254, -1250, 96, 732
2.196485, -1688, 39, 352, -1135, 129, 801
2.197499, -982, -544, 2714, -767, 104, 787
2.198512, 16, -63, 818, -368, -13, 696
2.199526, 176, 753, -2059, -268, -150, 528
2.200539, -555, 1002, -2384, -383, -174, 401
2.201553, -561, 947, -1600, -485, -107, 355
2.202566, 150, 768, -189, -473, -67, 285
2.203580, 610, 603, 672, -316, -61, 149
2.204593, 409, 692, -283, -145, -31, 9
2.205608, 432, 574, 386, -24, 31, -108
2.206620, 699, 198, 3289, 268, 90, -266
2.207635, 16, 425, 3134, 740, 104, -432
2.208647, -958, 1086, -159, 1020, 66, -504
2.209660, -1332, 1309, -1972, 975, 7, -507
2.210674, -1547, 1111, -1863, 827, -43, -501
2.211687, -1910, 934, -2049, 708, -84, -473
2.212702, -2378, 910, -2932, 564, -115, -399
2.213715, -2353, 860, -3066, 384, -119, -295
2.214727, -2021, 727, -2604, 250, -102, -220
2.215741, -2488, 742, -3340, 135, -72, -154
2.216755, -2921, 846, -4420, -72, -29, -23
2.217768, -2375, 682, -3973, -323, 1, 114
2.218781, -1571, 93, -1695, -435, 3, 169
2.219795, -942, -363, 254, -299, -9, 146
2.220808, -742, 80, -1149, -98, -27, 79
2.221822, -1354, 883, -3634, -131, -27, 25
2.222835, -2358, 1146, -3748, -355, -3, 57
2.223848, -2855, 1100, -2988, -562, -10, 179
2.224862, -2421, 1089, -2742, -713, -50, 322
2.225875, -1213, 982, -2542, -836, -61, 400
2.226890, 584, 260, -211, -852, -3, 334
2.227903, 1736, -705, 3723, -531, 92, 103
2.228916, 619, -315, 3222, 28, 129, -152
2.229929, -1368, 1074, -1086, 319, 95, -237
2.230942, -2092, 1756, -3239, 192, 51, -175
2.231956, -1425, 1330, -1016, 12, 19, -118
2.232969, -90, 535, 2536, 159, -26, -161
2.233983, 624, 412, 1681, 520, -81, -304
2.234996, 198, 768, -1617, 666, -84, -459
2.236010, -694, 830, -2255, 568, -20, -546
2.237025, -1296, 732, -1490, 479, 44, -559
2.238037, -1513, 748, -1418, 456, 45, -542
2.239050, -1862, 796, -1659, 433, 12, -509
2.240063, -2767, 845, -2160, 382, 2, -425
2.241077, -3494, 900, -2948, 268, 9, -258
2.242090, -3150, 802, -2668, 118, -18, -69
2.243104, -2377, 593, -1525, 50, -85, 50
2.244117, -1659, 493, -1678, 65, -147, 94
2.245130, -1654, 506, -3113, 8, -165, 97
2.246144, -2718, 571, -4114, -188, -121, 159
2.247158, -3105, 616, -3753, -426, -63, 334
2.248171, -1816, 473, -1937, -555, -72, 470
2.249184, -674, 296, -360, -496, -125, 448
2.250198, -1117, 486, -1228, -381, -125, 383
2.251211, -1707, 860, -3024, -421, -71, 402
2.252225, -1735, 955, -3142, -598, -24, 454
2.253238, -1352, 719, -1887, -729, 2, 492
2.254251, 986, 1, 931, -665, 11, 440
2.255266, 4009, -943, 5517, -206, 30, 100
2.256279, 3521, -664, 5528, 571, 69, -426
2.257292, 467, 897, -1137, 1000, 103, -745
2.258305, -1445, 1727, -4447, 787, 131, -778
2.259319, -2125, 1389, -1885, 481, 161, -706
2.260332, -2265, 1037, -226, 435, 146, -602
2.261346, -1890, 995, -754, 476, 76, -507
2.262359, -1593, 960, -1442, 460, 31, -463
2.263373, -1759, 826, -1701, 400, 59, -443
2.264386, -2119, 671, -1644, 345, 104, -399
2.265399, -2361, 587, -1828, 304, 101, -322
2.266413, -2508, 572, -2338, 242, 54, -225
2.267427, -2747, 616, -2680, 148, 9, -115
2.268440, -3818, 1137, -3681, 17, -3, 52
2.269453, -4050, 1464, -4238, -204, -29, 315
2.270466, -2558, 606, -2702, -425, -133, 504
2.271480, -2884, 168, -2189, -508, -191, 576
2.272494, -3900, 803, -3353, -576, -149, 760
2.273507, -2651, 904, -3062, -722, -161, 977
2.274521, -642, 261, -1450, -792, -218, 1008
2.275534, 594, -166, -591, -715, -200, 861
2.276547, 750, 1, -728, -592, -112, 655
2.277561, 970, 286, -779, -496, -28, 477
2.278574, 2093, 219, -7, -388, 8, 251
2.279588, 2553, 1, 1630, -166, 37, -84
2.280601, 1189, 248, 1687, 166, 101, -386
2.281614, -839, 1035, -899, 359, 162, -499
2.282628, -2025, 1574, -2714, 266, 183, -449
2.283642, -2017, 1436, -2214, 67, 173, -358
2.284655, -1633, 1009, -1158, -44, 152, -312
2.285668, -2057, 826, -1203, -72, 145, -284
2.286681, -2989, 976, -2088, -131, 154, -183
2.287695, -3561, 1152, -2436, -248, 143, -2
2.288708, -3585, 1150, -2284, -361, 88, 201
2.289722, -2559, 842, -1682, -422, 5, 376
2.290735, 312, 33, 136, -347, -71, 380
2.291749, 2593, -714, 1702, -60, -94, 87
2.292762, 1402, -429, 732, 299, -34, -281
2.293776, -635, 463, -1544, 479, 53, -433
2.294789, -1830, 1065, -2750, 429, 77, -419
2.295804, -3097, 1324, -2740, 282, 46, -309
2.296816, -3846, 1389, -2338, 138, 4, -94
2.297830, -3530, 1284, -1845, 32, -51, 149
2.298843, -2052, 927, -1138, -16, -118, 299
2.299857, -431, 416, -550, 12, -168, 277
2.300870, -34, 155, -693, 93, -126, 156
2.301886, -530, 247, -1470, 153, -8, 75
2.302898, -1117, 435, -1893, 133, 16, 28
2.303911, -1675, 648, -1676, 79, -57, 9
2.304923, -1892, 875, -1842, 52, -83, 59
2.305937, -2136, 1025, -2528, -8, -78, 136
2.306951, -2389, 965, -2351, -120, -69, 237
2.307964, -613, 372, -52, -116, -62, 296
2.308980, 1651, -277, 2046, 147, -93, 118
2.309998, 748, 27, 581, 478, -83, -176
2.311006, -1307, 814, -2053, 571, -1, -276
2.312018, -1993, 1171, -2571, 446, 42, -210
2.313031, -2202, 1173, -1867, 312, 3, -128
2.314044, -2372, 1061, -1368, 247, -57, -37
2.315058, -2324, 901, -990, 238, -94, 68
2.316072, -2026, 765, -687, 276, -113, 157
2.317085, -1436, 662, -986, 325, -136, 199
2.318098, -1113, 548, -1356, 340, -161, 181
2.319111, -1773, 562, -1451, 336, -157, 169
2.320125, -2751, 826, -2246, 303, -141, 251
2.321138, -3240, 1204, -3997, 139, -152, 417
2.322152, -3067, 1425, -5313, -196, -173, 599
2.323166, -2013, 1217, -4990, -589, -173, 727
2.324179, 293, 338, -3162, -861, -154, 713
2.325192, 3110, -832, -963, -881, -93, 444
2.326206, 2934, -910, -538, -707, 49, -5
2.327219, 474, -15, -786, -532, 237, -293
2.328233, 40, 320, 875, -331, 342, -387
2.329246, -121, 449, 1809, -10, 322, -510
2.330259, -2083, 1126, 46, 247, 263, -559
2.331273, -3792, 1762, -2260, 242, 212, -396
2.332286, -4168, 1924, -3527, 2, 138, -130
2.333300, -3445, 1616, -3087, -304, 34, 105
2.334313, -2082, 931, -1094, -468, -57, 233
2.335327, -696, 152, 1349, -356, -101, 234
2.336340, 532, -254, 2605, 0, -112, 119
2.337353, 1283, -38, 1352, 391, -107, -94
2.338367, 303, 484, -996, 587, -58, -317
2.339381, -2176, 966, -2543, 556, 33, -363
2.340394, -3595, 1337, -3647, 370, 79, -178
2.341407, -3001, 1381, -4218, 83, 24, 46
2.342421, -2007, 986, -3405, -195, -49, 160
2.343434, -1489, 454, -1841, -327, -50, 194
2.344448, -919, 81, -658, -285, -6, 183
2.345461, -431, -14, -303, -144, 16, 109
2.346475, -353, 141, -750, -6, 15, 2
2.347488, -372, 334, -1401, 60, 19, -102
2.348501, -872, 514, -1738, 56, 37, -188
2.349514, -2011, 797, -1965, 13, 58, -192
2.350528, -1693, 856, -1479, -36, 49, -104
2.351542, 1221, 301, 851, 53, 0, -154
2.352555, 2892, -33, 1687, 349, -16, -498
2.353569, 944, 561, -1280, 554, 76, -844
2.354582, -1287, 1139, -2823, 472, 213, -918
2.355595, -1836, 1172, -1500, 347, 262, -842
2.356609, -2000, 1141, -1087, 327, 209, -770
2.357622, -2826, 1198, -1698, 302, 143, -674
2.358636, -4524, 1286, -2295, 216, 117, -472
2.359649, -6664, 1467, -3210, 52, 90, -91
2.360662, -7155, 1462, -3096, -167, -10, 436
2.361676, -5413, 1040, -1363, -284, -200, 885
2.362689, -3843, 639, -659, -238, -399, 1128
2.363703, -2642, 383, -917, -147, -511, 1262
2.364717, -1259, 178, -1000, -60, -542, 1319
2.365730, -345, 243, -2048, -15, -529, 1273
2.366743, 678, 248, -2891, -79, -484, 1152
2.367756, 1913, -95, -2386, -173, -418, 936
2.368770, 2274, -306, -1730, -200, -308, 631
2.369784, 2021, -111, -1388, -171, -145, 335
2.370797, 1914, 198, -1188, -122, 19, 67
2.371810, 1182, 502, -1217, -83, 149, -192
2.372824, -193, 802, -1385, -76, 255, -354
2.373837, -1083, 944, -1309, -99, 319, -396
2.374851, -1712, 963, -1025, -118, 320, -385
2.375864, -2412, 1000, -972, -123, 281, -323
2.376878, -2724, 1048, -1176, -135, 228, -213
2.377891, -2732, 1048, -1302, -160, 169, -98
2.378904, -2493, 923, -1156, -172, 113, 7
2.379918, -1844, 684, -938, -145, 69, 80
2.380931, -1181, 487, -926, -89, 29, 80
2.381945, -752, 407, -1048, -23, 2, 36
2.382958, -189, 362, -1051, 46, -7, -33
2.383972, 410, 301, -460, 146, 2, -156
2.384985, 267, 372, 17, 308, 23, -314
2.385998, -904, 738, -1264, 435, 53, -414
2.387012, -2213, 1113, -2750, 386, 87, -381
2.388025, -2784, 1177, -2445, 238, 88, -253
2.389039, -2996, 1123, -1914, 129, 38, -106
2.390053, -3143, 1096, -2047, 43, -22, 52
2.391066, -2215, 894, -1878, -42, -71, 195
2.392079, 217, 381, -1412, -88, -113, 177
2.393093, 1705, -47, -1463, -85, -104, -67
2.394106, 86, 142, -1842, -80, 4, -321
2.395119, -2665, 734, -1598, -83, 125, -317
2.396133, -3793, 1187, -1134, -58, 114, -97
2.397146, -3466, 1325, -1183, -25, -14, 140
2.398161, -1171, 943, -1191, -10, -127, 277
2.399177, 3177, 28, -951, 15, -147, 91
2.400188, 3182, -360, -1212, 58, -31, -425
2.401200, -2828, 489, -1909, 66, 186, -641
2.402213, -6407, 1593, -2228, 4, 257, -256
2.403227, -5199, 1989, -2076, -97, 50, 236
2.404241, -3604, 1650, -1594, -180, -195, 519
2.405256, -2615, 968, -1052, -209, -268, 661
2.406269, -1690, 475, -835, -192, -239, 705
2.407281, -1336, 348, -754, -139, -216, 700
2.408295, -968, 314, -820, -61, -242, 701
2.409307, 1254, 50, -1229, 0, -294, 608
2.410321, 4632, -360, -1559, 23, -281, 228
2.411334, 5088, -359, -1837, 31, -122, -381
2.412348, 1749, 262, -2389, 7, 156, -833
2.413361, -2101, 1031, -2445, -68, 382, -891
2.414375, -4343, 1520, -1683, -133, 418, -652
2.415388, -4963, 1665, -957, -144, 304, -304
2.416402, -4746, 1536, -667, -124, 169, 27
2.417415, -4027, 1218, -692, -108, 74, 291
2.418429, -3146, 867, -911, -111, -10, 458
2.419442, -2539, 589, -972, -119, -109, 543
2.420457, -2235, 430, -669, -95, -212, 601
2.421469, -2046, 457, -519, -21, -308, 661
2.422482, -1668, 652, -770, 72, -386, 719
2.423496, -392, 711, -1564, 125, -426, 726
2.424509, 1993, 281, -3143, 61, -399, 565
2.425522, 3496, -288, -3632, -123, -254, 199
2.426536, 3506, -495, -1604, -224, 0, -227
2.427549, 3015, -268, 198, -96, 235, -617
2.428563, 1139, 408, -646, 94, 377, -925
2.429577, -1494, 1149, -2119, 121, 460, -1014
2.430590, -2750, 1427, -1992, 20, 489, -901
2.431603, -2921, 1330, -1237, -59, 448, -751
2.432617, -2774, 1110, -1125, -93, 384, -620
2.433630, -2407, 833, -1392, -132, 348, -518
2.434644, -2475, 657, -1187, -168, 352, -442
2.435657, -3517, 750, -320, -133, 344, -320
2.436670, -4784, 1020, 68, -20, 222, -81
2.437684, -4936, 1188, -243, 96, -28, 242
2.438697, -4128, 1130, -412, 186, -279, 530
2.439711, -2889, 885, -918, 255, -409, 718
2.440724, -454, 405, -2012, 260, -429, 783
2.441738, 4407, -427, -3834, 131, -377, 537
2.442751, 6469, -985, -4897, -141, -183, -133
2.443765, 692, -324, -3195, -365, 174, -668
2.444778, -5318, 1060, -1355, -382, 442, -506
2.445791, -5756, 1891, -1022, -307, 391, 12
2.446805, -3984, 1795, -917, -261, 169, 373
2.447819, -2753, 1215, -807, -250, 34, 532
2.448832, -2095, 630, -671, -246, 31, 604
2.449845, -1150, 214, -386, -220, 33, 607
2.450858, -551, 67, -133, -147, -38, 518
2.451872, -1344, 320, -94, -37, -140, 441
2.452886, -2193, 800, 81, 97, -238, 486
2.453899, -1907, 1140, 315, 258, -327, 582
2.454915, -776, 1013, -147, 408, -392, 611
2.455927, 315, 557, -1186, 478, -385, 528
2.456939, 788, 256, -1960, 453, -291, 368
2.457953, 687, 228, -2106, 381, -163, 193
2.458966, 205, 369, -1978, 314, -61, 42
2.459981, -394, 584, -1847, 263, -1, -59
2.460993, -1031, 762, -1630, 228, 30, -103
2.462006, -1404, 821, -1446, 210, 49, -105
2.463020, -1516, 781, -1362, 202, 52, -93
2.464033, -1661, 730, -1334, 196, 39, -72
2.465047, -1876, 715, -1271, 194, 19, -35
2.466060, -1971, 707, -1135, 207, -10, 13
2.467074, -1911, 696, -1155, 233, -55, 61
2.468087, -1673, 636, -1534, 241, -100, 100
2.469100, -1335, 531, -2139, 200, -119, 114
2.470114, -1369, 542, -1992, 130, -103, 108
2.471128, -1459, 664, -1108, 120, -84, 117
2.472141, -523, 673, -1203, 166, -99, 112
2.473154, 376, 567, -1911, 165, -109, 6
2.474168, -685, 589, -1702, 125, -41, -122
2.475181, -2430, 839, -900, 136, 56, -88
2.476195, -2976, 1120, -323, 213, 51, 76
2.477208, -2514, 1186, -468, 302, -62, 219
2.478222, -2074, 1069, -869, 347, -165, 304
2.479235, -1979, 972, -949, 357, -195, 364
2.480248, -1830, 926, -1108, 357, -206, 416
2.481262, -1467, 810, -1335, 344, -244, 451
2.482275, -841, 607, -1578, 324, -283, 448
2.483289, 223, 353, -2798, 253, -282, 375
2.484302, 1269, 106, -4341, 47, -207, 200
2.485316, 1140, 58, -3732, -211, -50, -32
2.486329, 283, 225, -1698, -312, 119, -208
2.487343, -263, 444, -775, -237, 210, -308
2.488356, -1096, 688, -814, -125, 237, -359
2.489369, -2305, 978, -611, -33, 249, -318
2.490383, -3026, 1261, -236, 61, 231, -182
2.491396, -3082, 1352, -217, 148, 148, -17
2.492409, -2780, 1169, -458, 204, 25, 127
2.493423, -2334, 923, -697, 229, -78, 234
2.494436, -1841, 786, -867, 240, -145, 300
2.495452, -1378, 723, -954, 252, -192, 327
2.496465, -976, 680, -1040, 270, -221, 320
2.497479, -632, 645, -1208, 294, -219, 285
2.498490, -393, 632, -1433, 313, -191, 229
2.499504, -313, 642, -1666, 315, -143, 163
2.500517, -336, 651, -1871, 295, -84, 96
2.501531, -401, 643, -1998, 254, -24, 33
2.502544, -513, 629, -2023, 200, 31, -25
2.503558, -674, 626, -1961, 145, 76, -75
2.504574, -862, 637, -1835, 95, 108, -116
2.505586, -1062, 664, -1675, 54, 125, -145
2.506598, -1255, 702, -1509, 29, 130, -160
2.507611, -1419, 738, -1362, 20, 123, -157
2.508625, -1530, 764, -1254, 25, 110, -140
2.509640, -1586, 781, -1194, 40, 90, -115
2.510653, -1598, 793, -1177, 60, 65, -89
2.511665, -1571, 801, -1190, 80, 42, -61
2.512679, -1504, 806, -1217, 96, 25, -32
2.513692, -1407, 802, -1249, 108, 14, -9
2.514706, -1301, 790, -1285, 115, 11, 6
2.515719, -1198, 775, -1323, 119, 11, 12
2.516734, -1107, 765, -1364, 120, 14, 11
2.517746, -1040, 754, -1398, 117, 19, 4
2.518759, -1001, 741, -1415, 111, 26, -9
2.519773, -981, 729, -1417, 105, 35, -26
2.520786, -977, 718, -1417, 100, 45, -44
2.521800, -998, 711, -1417, 95, 52, -63
2.522813, -1044, 711, -1412, 92, 57, -81
2.523826, -1100, 715, -1401, 89, 64, -97
2.524839, -1147, 717, -1382, 87, 72, -106
2.525853, -1184, 716, -1366, 87, 80, -110
2.526866, -1216, 715, -1357, 87, 85, -111
2.527880, -1246, 716, -1352, 87, 88, -108
2.528893, -1270, 718, -1345, 87, 89, -103
2.529907, -1283, 716, -1328, 87, 89, -99
2.530920, -1284, 711, -1303, 87, 88, -93
2.531934, -1280, 704, -1283, 91, 83, -88
2.532947, -1286, 698, -1276, 98, 72, -85
2.533961, -1300, 698, -1278, 106, 62, -84
2.534974, -1302, 697, -1280, 111, 57, -80
2.535988, -1292, 692, -1281, 115, 55, -73
2.537001, -1277, 684, -1283, 120, 56, -67
2.538015, -1254, 678, -1289, 125, 57, -63
2.539028, -1225, 674, -1297, 130, 60, -60
2.540041, -1201, 669, -1297, 133, 64, -59
2.541054, -1186, 662, -1290, 137, 70, -58
2.542068, -1176, 653, -1293, 144, 73, -60
2.543081, -1175, 650, -1305, 150, 73, -66
2.544095, -1188, 656, -1320, 154, 72, -74
2.545108, -1209, 663, -1332, 157, 73, -78
2.546121, -1225, 666, -1336, 159, 76, -79
2.547135, -1236, 667, -1333, 159, 79, -80
2.548150, -1243, 671, -1327, 161, 82, -79
2.549162, -1243, 676, -1321, 164, 85, -76
2.550175, -1240, 683, -1318, 167, 86, -74
2.551189, -1236, 688, -1322, 172, 84, -74
2.552202, -1234, 690, -1330, 177, 81, -73
2.553216, -1236, 692, -1338, 180, 76, -74
2.554229, -1237, 693, -1342, 182, 73, -74
2.555243, -1233, 691, -1345, 185, 73, -75
2.556256, -1223, 692, -1353, 190, 74, -74
2.557270, -1216, 694, -1365, 193, 74, -75
2.558283, -1213, 698, -1377, 194, 72, -78
2.559298, -1211, 701, -1386, 193, 71, -80
2.560312, -1206, 701, -1392, 193, 72, -81
2.561323, -1199, 700, -1397, 192, 73, -82
2.562337, -1191, 699, -1399, 191, 74, -85
2.563351, -1183, 696, -1394, 191, 75, -88
2.564364, -1175, 692, -1383, 191, 76, -92
2.565377, -1174, 688, -1370, 193, 76, -96
2.566391, -1188, 681, -1362, 198, 72, -103
2.567404, -1209, 677, -1365, 204, 65, -111
2.568418, -1230, 681, -1375, 208, 60, -115
2.569431, -1250, 685, -1386, 211, 57, -116
2.570445, -1262, 686, -1402, 212, 54, -114
2.571458, -1265, 687, -1423, 210, 54, -111
2.572472, -1260, 688, -1441, 208, 56, -107
2.573485, -1251, 683, -1450, 204, 59, -104
2.574498, -1240, 678, -1460, 198, 64, -101
2.575511, -1225, 673, -1474, 190, 68, -99
2.576525, -1212, 666, -1485, 182, 72, -99
2.577538, -1205, 661, -1491, 173, 77, -100
2.578553, -1202, 660, -1492, 165, 81, -103
2.579565, -1204, 658, -1492, 156, 86, -104
2.580579, -1206, 657, -1484, 147, 93, -107
2.581592, -1207, 659, -1472, 139, 101, -109
2.582606, -1209, 660, -1460, 132, 107, -108
2.583619, -1209, 662, -1447, 126, 113, -107
2.584633, -1210, 665, -1429, 123, 117, -107
2.585646, -1213, 665, -1412, 122, 119, -109
2.586659, -1211, 664, -1397, 125, 116, -111
2.587673, -1199, 666, -1388, 131, 110, -116
2.588686, -1190, 668, -1400, 138, 103, -122
2.589700, -1197, 673, -1439, 142, 98, -126
2.590713, -1211, 676, -1475, 139, 96, -126
2.591729, -1218, 671, -1485, 132, 103, -126
2.592741, -1218, 670, -1478, 125, 111, -125
2.593755, -1215, 679, -1467, 119, 116, -122
2.594767, -1212, 684, -1461, 114, 121, -120
2.595780, -1221, 678, -1468, 107, 124, -121
2.596794, -1239, 668, -1483, 99, 125, -121
2.597807, -1254, 666, -1488, 88, 127, -121
2.598820, -1260, 670, -1479, 78, 129, -119
2.599834, -1256, 674, -1465, 70, 132, -115
2.600847, -1246, 675, -1460, 64, 136, -111
2.601860, -1237, 672, -1459, 60, 139, -108
2.602874, -1227, 671, -1455, 57, 143, -107
2.603885, -1212, 669, -1455, 54, 147, -104
2.604901, -1192, 665, -1460, 53, 151, -103
2.605915, -1179, 663, -1471, 52, 151, -105
2.606928, -1185, 662, -1485, 51, 150, -111
2.607942, -1200, 664, -1497, 48, 150, -115
2.608956, -1208, 669, -1505, 44, 152, -116
2.609970, -1212, 675, -1507, 39, 156, -116
2.610984, -1218, 680, -1503, 33, 159, -116
2.611996, -1220, 688, -1499, 28, 160, -115
2.613009, -1214, 698, -1492, 26, 161, -113
2.614022, -1204, 705, -1484, 24, 162, -112
2.615036, -1197, 704, -1471, 21, 164, -112
2.616051, -1190, 700, -1453, 17, 164, -112
2.617063, -1170, 697, -1433, 18, 166, -111
2.618076, -1152, 695, -1421, 23, 166, -114
2.619090, -1156, 693, -1421, 29, 160, -121
2.620103, -1170, 693, -1425, 33, 154, -126
2.621116, -1174, 695, -1431, 37, 151, -129
2.622129, -1174, 692, -1445, 41, 152, -131
2.623143, -1179, 687, -1484, 44, 153, -132
2.624157, -1394, 611, -2171, 20, 156, -128
2.625170, -1695, 461, -3850, -124, 169, -93
2.626184, -1328, 354, -4623, -408, 206, -49
2.627198, -655, 281, -3237, -656, 270, -72
2.628211, -638, 255, -1324, -707, 335, -142
2.629224, -972, 348, -323, -591, 371, -188
2.630237, -1275, 523, -198, -422, 382, -200
2.631251, -1454, 716, -334, -274, 371, -187
2.632264, -1529, 872, -438, -162, 340, -163
2.633277, -1704, 936, -636, -85, 296, -126
2.634291, -1786, 874, -993, -49, 238, -76
2.635304, -1737, 722, -1388, -58, 181, -27
2.636318, -1591, 650, -1123, -77, 147, 14
2.637331, -1395, 715, -509, -31, 122, 37
2.638345, -1728, 763, -1396, 30, 97, 58
2.639358, -2391, 788, -4321, -91, 92, 141
2.640372, -1808, 741, -6260, -482, 132, 254
2.641385, -22, 355, -3772, -856, 256, 243
2.642399, 684, -57, 438, -830, 460, 83
2.643412, 5, 49, 1827, -479, 567, -64
2.644425, -283, 398, 1197, -120, 451, -143
2.645439, -199, 634, 495, 140, 282, -237
2.646452, -663, 825, -192, 308, 227, -333
2.647466, -1405, 998, -662, 393, 235, -363
2.648480, -2052, 1009, -1087, 411, 211, -318
2.649492, -2254, 912, -1754, 367, 146, -224
2.650506, -1776, 934, -1907, 283, 67, -146
2.651519, -1357, 961, -1266, 232, 10, -129
2.652533, -1360, 927, -571, 276, -6, -127
2.653546, -1493, 861, -1022, 364, -12, -104
2.654559, -1822, 654, -2589, 353, -23, -53
2.655575, -1777, 486, -3217, 213, -5, 16
2.656587, -1076, 496, -2210, 92, 30, 43
2.657600, -449, 551, -877, 108, 40, -4
2.658614, -388, 574, -414, 235, 33, -91
2.659627, -1529, 501, -2131, 312, 26, -146
2.660640, -2597, 381, -4916, 138, 41, -81
2.661654, -2171, 445, -4831, -222, 84, 52
2.662667, -1413, 605, -2031, -433, 105, 116
2.663681, -652, 535, 11, -362, 81, 77
2.664694, -221, 406, 575, -149, 66, -19
2.665708, -840, 474, 382, 78, 90, -95
2.666721, -2184, 687, -513, 234, 122, -65
2.667735, -2464, 968, -1686, 256, 112, 79
2.668748, -119, 970, -2134, 169, 27, 132
2.669761, 1752, 526, -1825, 68, -39, -78
2.670775, 500, 238, -1640, 16, 58, -330
2.671788, -1611, 506, -1741, -5, 235, -373
2.672802, -2722, 998, -1748, -25, 299, -253
2.673815, -2758, 1214, -1462, -40, 225, -95
2.674828, -1783, 970, -731, -17, 124, 7
2.675842, -397, 603, 181, 96, 80, -14
2.676857, 206, 401, 80, 266, 87, -142
2.677870, -316, 282, -1461, 360, 123, -263
2.678882, -809, 237, -3769, 255, 154, -311
2.679896, -930, 365, -4608, -31, 171, -340
2.680909, -1303, 654, -2667, -260, 227, -367
2.681922, -1599, 897, -668, -259, 272, -350
2.682936, -1534, 1067, 322, -98, 249, -317
2.683949, -1594, 1170, 884, 136, 211, -286
2.684963, -2020, 889, -638, 323, 181, -225
2.685976, -2322, 464, -3760, 254, 159, -115
2.686990, -2111, 466, -5317, -93, 169, -4
2.688003, -1608, 597, -3906, -463, 186, 38
2.689017, -1094, 482, -974, -578, 192, 12
2.690034, -852, 428, 441, -418, 220, -28
2.691044, -842, 546, 8, -189, 241, -53
2.692059, -951, 659, -184, -22, 205, -77
2.693070, -1070, 794, -29, 119, 161, -99
2.694084, -1212, 850, -606, 238, 144, -102
2.695097, -1532, 701, -3177, 199, 125, -84
2.696111, -1438, 619, -6111, -149, 135, -45
2.697126, -953, 621, -4800, -611, 219, -37
2.698138, -880, 496, -786, -754, 360, -71
2.699152, -864, 452, 973, -539, 460, -104
2.700165, -954, 587, 833, -251, 422, -140
2.701178, -1713, 697, 201, -27, 304, -144
2.702192, -1980, 746, -734, 103, 221, -81
2.703205, -1321, 786, -1217, 140, 174, -41
2.704218, -1232, 758, -1423, 129, 131, -67
2.705232, -1487, 675, -1691, 96, 106, -61
2.706245, -1044, 650, -1750, 54, 88, -41
2.707258, -693, 693, -1589, 29, 81, -76
2.708272, -762, 732, -1143, 47, 97, -122
2.709286, -948, 825, -811, 116, 106, -154
2.710299, -1690, 797, -2284, 139, 104, -148
2.711312, -2636, 546, -4034, -24, 121, -50
2.712327, -2496, 505, -2930, -236, 158, 91
2.713339, -2230, 703, -2286, -324, 163, 172
2.714353, -2743, 784, -4073, -461, 123, 259
2.715366, -1307, 523, -3368, -686, 123, 358
2.716380, 1158, 100, -330, -693, 233, 248
2.717393, 1035, 56, 355, -469, 343, -15
2.718407, -305, 320, -110, -261, 324, -167
2.719420, -808, 529, 255, -84, 252, -197
2.720433, -570, 734, 253, 109, 220, -219
2.721447, -297, 931, -372, 250, 196, -287
2.722461, -707, 995, -1127, 291, 183, -368
2.723474, -1660, 1018, -1534, 256, 192, -384
2.724487, -2459, 1018, -1325, 212, 181, -303
2.725500, -2447, 913, -1084, 208, 128, -171
2.726514, -1990, 837, -1164, 226, 57, -72
2.727527, -1961, 795, -1607, 231, -2, -22
2.728541, -2034, 669, -3450, 132, -30, 30
2.729554, -1222, 413, -4315, -117, -10, 71
2.730567, 119, 89, -1540, -259, 51, 11
2.731581, 419, -15, 651, -93, 114, -147
2.732595, -285, 233, 151, 181, 141, -276
2.733608, -752, 634, -485, 370, 145, -328
2.734621, -1244, 927, -1030, 474, 137, -351
2.735635, -2905, 955, -2257, 463, 113, -294
2.736648, -4111, 836, -3445, 297, 79, -71
2.737661, -2669, 846, -3346, 53, 26, 158
2.738675, -829, 805, -2380, -125, -30, 179
2.739688, -948, 516, -1795, -191, -45, 87
2.740702, -2467, 383, -1913, -213, 2, 104
2.741715, -3393, 608, -2322, -252, 48, 285
2.742729, -2136, 763, -2004, -301, 13, 469
2.743742, 225, 529, -394, -261, -64, 449
2.744756, 1605, 220, 1031, -56, -80, 229
2.745769, 1826, 231, 1022, 229, -10, -44
2.746783, 1693, 453, 374, 473, 65, -304
2.747796, 873, 667, -548, 619, 102, -529
2.748810, -512, 804, -1704, 639, 126, -644
2.749823, -1724, 880, -2566, 536, 144, -631
2.750837, -2364, 1025, -2907, 362, 149, -544
2.751845, -2638, 1117, -3113, 167, 154, -434
2.752864, -2738, 925, -3277, -38, 169, -314
2.753876, -2120, 670, -2460, -205, 175, -217
2.754890, -1836, 540, -936, -223, 156, -180
2.755904, -2205, 497, -280, -93, 119, -127
2.756917, -1725, 556, -495, 62, 67, -52
2.757930, -1145, 592, -862, 174, 19, -40
2.758944, -1382, 529, -1560, 218, -3, -58
2.759958, -2009, 461, -2479, 168, 8, -24
2.760971, -2221, 472, -2585, 52, 28, 71
2.761984, -1095, 664, -1599, -22, 12, 129
2.762998, -77, 833, -1221, -10, -23, 51
2.764011, -323, 661, -2030, -15, -3, -60
2.765024, -569, 474, -1992, -79, 74, -114
2.766039, -542, 606, -814, -81, 139, -163
2.767052, -849, 727, -429, 13, 152, -212
2.768065, -1240, 627, -1746, 61, 137, -220
2.769078, -1847, 582, -3764, -74, 150, -200
2.770092, -4911, 971, -6183, -435, 230, -52
2.771105, -7424, 1620, -8478, -1037, 337, 425
2.772119, -3861, 1545, -6331, -1660, 427, 914
2.773132, 255, 618, -989, -1850, 535, 932
2.774145, -70, -70, 708, -1625, 587, 729
2.775159, -901, -125, -840, -1397, 533, 675
2.776172, -583, 63, -1703, -1312, 480, 663
2.777186, -349, 206, -1448, -1276, 463, 586
2.778200, 60, 175, -792, -1214, 478, 474
2.779213, 1078, -35, 428, -1087, 514, 305
2.780226, 2319, -217, 3177, -786, 507, 23
2.781240, 2846, -10, 5953, -193, 439, -364
2.782253, 1982, 560, 5295, 520, 330, -745
2.783267, 461, 1091, 2268, 1008, 220, -978
2.784280, -734, 1470, 104, 1186, 132, -1039
2.785293, -1266, 1832, -560, 1200, 46, -1028
2.786307, -1720, 1861, -784, 1175, -28, -1003
2.787322, -3249, 1171, -1922, 1105, -56, -894
2.788333, -5143, 495, -4284, 886, -32, -606
2.789349, -6328, 706, -7267, 425, 15, -179
2.790360, -4991, 1051, -7651, -203, 25, 225
2.791374, -990, 563, -3413, -618, -14, 355
2.792388, 736, -199, 746, -525, -27, 165
2.793401, -569, -372, 1056, -133, 36, -18
2.794415, -2440, 72, -1899, 136, 109, 9
2.795428, -3528, 595, -5206, 31, 109, 207
2.796443, -1961, 671, -4681, -292, 40, 388
2.797455, 429, 309, -1201, -428, -20, 325
2.798468, 1177, 33, 983, -255, -7, 81
2.799481, 1058, 209, 1055, 34, 54, -154
2.800495, 788, 637, 392, 275, 101, -338
2.801508, 143, 977, -449, 415, 119, -480
2.802522, -630, 1178, -1109, 446, 129, -553
2.803535, -1098, 1457, -1009, 423, 128, -562
2.804548, -2193, 1612, -1217, 401, 110, -527
2.805562, -6785, 1541, -6885, 134, 108, -266
2.806576, -10122, 1617, -13994, -833, 156, 470
2.807589, -4533, 1104, -8015, -1941, 230, 1163
2.808603, 1645, -21, 3081, -2011, 319, 1086
2.809616, 1058, -290, 2236, -1392, 344, 684
2.810631, -403, 37, -2633, -1129, 270, 550
2.811643, -539, 114, -2410, -1152, 284, 526
2.812656, -970, 213, -1316, -1088, 414, 483
2.813670, -1217, 449, -1400, -997, 465, 476
2.814683, -1013, 573, -1308, -960, 407, 476
2.815696, -585, 507, -832, -926, 348, 436
2.816710, 337, 287, 147, -834, 338, 330
2.817724, 2357, -16, 1949, -607, 336, 92
2.818737, 4268, -3, 3854, -185, 303, -356
2.819750, 2996, 450, 4305, 372, 271, -880
2.820763, -1871, 845, 1160, 787, 241, -1089
2.821777, -4488, 1033, -2611, 787, 160, -832
2.822791, -2578, 1267, -2096, 592, 80, -538
2.823805, -2129, 1449, -1125, 516, 46, -489
2.824817, -5127, 1418, -3804, 377, 24, -350
2.825831, -6414, 1336, -6463, -49, 25, 108
2.826844, -2781, 1040, -4753, -517, 23, 489
2.827858, 542, 296, -742, -625, -11, 422
2.828871, 314, -433, 1628, -337, -8, 191
2.829885, 200, -615, 2140, 119, 16, 75
2.830898, 1155, -304, 1399, 556, -14, -76
2.831911, 665, 140, -887, 817, -58, -318
2.832924, -1208, 485, -3983, 754, -57, -445
2.833938, -2402, 820, -5192, 425, 1, -392
2.834951, -3849, 1309, -5079, 42, 69, -237
2.835966, -4510, 1551, -4800, -326, 67, 47
2.836979, -2015, 1071, -2020, -554, -6, 271
2.837992, 508, 297, 1683, -410, -54, 197
2.839005, 718, -78, 2751, 20, -41, -17
2.840019, 351, 83, 1452, 431, -20, -176
2.841033, 181, 467, -192, 657, -16, -296
2.842046, -313, 722, -1142, 719, -34, -401
2.843059, -1184, 806, -1818, 690, -64, -455
2.844073, -2907, 994, -2768, 578, -71, -402
2.845086, -4283, 1327, -3374, 382, -68, -177
2.846100, -3359, 1292, -3208, 177, -112, 95
2.847113, -2338, 771, -2836, 15, -183, 221
2.848126, -2335, 383, -1835, -65, -185, 291
2.849140, -1332, 312, -260, 8, -151, 354
2.850153, 299, 274, 700, 226, -165, 280
2.851167, 1489, 321, 518, 483, -196, 65
2.852180, 1928, 483, -744, 654, -201, -212
2.853194, 950, 437, -2080, 666, -177, -457
2.854207, -874, 249, -3035, 559, -102, -559
2.855221, -2450, 397, -4496, 342, 12, -495
2.856235, -2965, 893, -5060, 4, 100, -339
2.857247, -2292, 1184, -3032, -281, 124, -217
2.858261, -2103, 1033, -1131, -342, 106, -175
2.859275, -2891, 822, -1488, -302, 99, -92
2.860288, -2656, 706, -1791, -306, 95, 69
2.861301, -1066, 524, -820, -283, 40, 134
2.862315, -158, 323, -42, -163, -22, 49
2.863328, -138, 275, -130, -1, -40, -57
2.864342, 15, 400, -809, 119, -35, -148
2.865355, -129, 534, -1408, 160, -17, -253
2.866368, -657, 628, -1425, 161, 15, -331
2.867382, -1395, 755, -1402, 165, 38, -358
2.868395, -2480, 886, -1628, 158, 46, -288
2.869409, -2390, 974, -1582, 129, 27, -144
2.870422, -1180, 960, -1105, 120, -18, -100
2.871435, -2080, 871, -1596, 126, -31, -121
2.872449, -4459, 894, -4042, -11, -11, 57
2.873462, -4190, 944, -4900, -351, -32, 391
2.874476, -1870, 686, -2061, -587, -99, 556
2.875489, -860, 253, -101, -518, -150, 513
2.876503, -917, 91, -1101, -367, -155, 458
2.877516, -347, 163, -1916, -324, -129, 418
2.878529, 1091, 121, -1216, -299, -85, 287
2.879543, 2503, -9, -396, -190, -26, 3
2.880557, 2320, 10, -253, -30, 46, -363
2.881570, 244, 217, -466, 110, 138, -611
2.882583, -1736, 599, -689, 207, 217, -622
2.883597, -2220, 1067, -1065, 254, 214, -520
2.884611, -1959, 1335, -1844, 216, 150, -443
2.885625, -1783, 1239, -2161, 98, 102, -402
