Time, ax, ay, az, gx, gy, gz
0.000460, -175, 82, 1954, -578, 5971, -939
0.001783, -186, 83, 1964, -596, 5971, -965
0.002994, -198, 77, 1966, -627, 5947, -1014
0.004253, -222, 63, 1981, -631, 5932, -1039
0.005523, -249, 64, 1985, -629, 5917, -1060
0.007294, -288, 58, 1990, -615, 5888, -1108
0.008408, -317, 44, 1991, -604, 5876, -1134
0.009574, -347, 33, 1992, -595, 5865, -1160
0.010673, -367, 30, 2000, -584, 5854, -1176
0.011854, -387, 22, 2001, -576, 5842, -1179
0.013121, -407, 20, 2016, -554, 5814, -1168
0.014219, -414, 13, 2017, -543, 5802, -1153
0.015402, -423, 10, 2020, -535, 5791, -1132
0.016497, -431, 8, 2016, -520, 5782, -1113
0.017682, -442, 13, 1971, -499, 5777, -1099
0.018781, -450, 24, 2013, -482, 5777, -1089
0.019963, -447, 10, 2000, -472, 5771, -1084
0.021058, -453, 7, 2006, -470, 5755, -1084
0.022243, -465, 6, 2007, -444, 5744, -1078
0.023510, -476, 12, 2016, -428, 5745, -1077
0.024607, -480, 16, 2002, -416, 5745, -1084
0.025791, -497, 15, 2000, -394, 5742, -1092
0.026886, -514, 15, 2001, -370, 5731, -1097
0.028071, -527, 22, 1997, -349, 5717, -1101
0.029168, -545, 20, 1989, -332, 5707, -1109
0.030352, -563, 15, 1987, -300, 5684, -1126
0.031466, -572, -2, 1992, -286, 5669, -1127
0.032632, -584, 1, 1999, -279, 5651, -1127
0.033735, -587, -6, 2004, -275, 5633, -1124
0.034913, -583, 0, 2009, -270, 5619, -1115
0.036013, -592, -6, 2005, -263, 5615, -1106
0.037193, -593, -1, 2011, -254, 5614, -1093
0.038295, -607, 7, 2014, -247, 5616, -1081
0.039474, -611, -3, 2029, -243, 5643, -1060
0.040573, -671, 1, 2044, -240, 5658, -1041
0.041754, -599, 10, 1966, -231, 5665, -1018
0.042854, -600, 20, 2017, -214, 5636, -986
0.044035, -602, 2, 2088, -195, 5598, -942
0.045135, -614, 8, 2078, -211, 5619, -898
0.046315, -611, 6, 2045, -249, 5678, -870
0.047417, -599, 16, 2077, -246, 5721, -848
0.048596, -576, 12, 2094, -197, 5744, -779
0.049696, -569, 18, 2080, -192, 5760, -734
0.050876, -568, 17, 2086, -177, 5784, -695
0.051976, -567, 18, 2096, -154, 5805, -671
0.053157, -552, 23, 2099, -135, 5826, -654
0.054253, -546, 28, 2097, -125, 5848, -631
0.055437, -525, 24, 2101, -116, 5867, -602
0.056544, -517, 21, 2109, -102, 5880, -576
0.057718, -493, 24, 2113, -78, 5908, -524
0.058818, -481, 27, 2111, -58, 5928, -507
0.059998, -471, 19, 2117, -39, 5952, -496
0.061097, -462, 22, 2116, -21, 5977, -488
0.062279, -459, 19, 2115, 2, 6000, -484
0.063376, -455, 29, 2115, 25, 6022, -483
0.064559, -449, 37, 2115, 50, 6045, -484
0.065658, -439, 41, 2115, 78, 6065, -483
0.066840, -445, 41, 2102, 123, 6105, -487
0.067938, -449, 39, 2103, 147, 6124, -492
0.069120, -449, 39, 2099, 177, 6139, -493
0.070217, -442, 41, 2098, 203, 6156, -493
0.071400, -433, 44, 2102, 225, 6173, -490
0.072498, -428, 36, 2087, 250, 6190, -484
0.073681, -417, 42, 2074, 277, 6207, -472
0.074779, -414, 34, 2063, 304, 6227, -459
0.076469, -406, 48, 2044, 356, 6282, -456
0.077735, -404, 56, 2021, 383, 6305, -461
0.079509, -406, 71, 1991, 430, 6351, -481
0.080777, -414, 83, 1961, 449, 6370, -492
0.082043, -424, 91, 1944, 472, 6406, -523
0.083160, -424, 102, 1919, 476, 6421, -525
0.084324, -429, 108, 1904, 477, 6428, -529
0.085429, -424, 111, 1905, 473, 6434, -537
0.086604, -417, 105, 1903, 463, 6439, -531
0.087705, -411, 97, 1901, 449, 6448, -517
0.088884, -405, 93, 1894, 438, 6467, -504
0.089984, -404, 99, 1889, 435, 6496, -493
0.091165, -420, 97, 1868, 423, 6565, -482
0.092271, -441, 100, 1862, 420, 6607, -484
0.093445, -449, 105, 1849, 414, 6651, -488
0.094546, -464, 101, 1846, 402, 6699, -492
0.095726, -473, 108, 1837, 385, 6744, -492
0.096825, -486, 119, 1834, 361, 6788, -485
0.098006, -504, 122, 1842, 332, 6833, -474
0.099105, -514, 121, 1837, 298, 6878, -459
0.100287, -522, 127, 1846, 232, 6960, -425
0.101382, -527, 116, 1857, 198, 7003, -405
0.102567, -530, 119, 1859, 162, 7041, -381
0.103667, -527, 103, 1873, 136, 7077, -357
0.104848, -525, 99, 1877, 117, 7112, -333
0.105948, -521, 96, 1880, 103, 7153, -302
0.107128, -527, 100, 1865, 93, 7202, -266
0.108228, -528, 108, 1862, 84, 7250, -233
0.109409, -532, 114, 1847, 70, 7354, -165
0.110507, -544, 119, 1839, 65, 7406, -136
0.112197, -570, 124, 1827, 53, 7455, -110
0.113302, -581, 131, 1815, 33, 7503, -82
0.114477, -605, 134, 1823, -8, 7586, -25
0.115576, -608, 136, 1816, -30, 7623, 2
0.116757, -624, 133, 1826, -53, 7658, 33
0.117854, -627, 131, 1831, -78, 7691, 67
0.119042, -633, 121, 1850, -98, 7725, 102
0.120144, -633, 121, 1866, -112, 7762, 137
0.121318, -625, 115, 1871, -124, 7802, 176
0.122414, -622, 111, 1881, -133, 7853, 215
0.123599, -606, 103, 1894, -145, 7973, 289
0.124698, -589, 95, 1899, -151, 8036, 324
0.125879, -592, 98, 1906, -150, 8102, 353
0.126979, -589, 101, 1913, -147, 8171, 378
0.128159, -593, 95, 1926, -146, 8244, 400
0.129266, -595, 97, 1925, -145, 8316, 421
0.130440, -599, 92, 1942, -142, 8385, 441
0.131542, -605, 96, 1953, -136, 8450, 461
0.132721, -614, 96, 1962, -118, 8566, 499
0.133820, -605, 92, 1975, -107, 8626, 517
0.135001, -611, 89, 1970, -90, 8687, 536
0.136268, -606, 95, 1974, -69, 8747, 557
0.137368, -596, 92, 1969, -48, 8801, 582
0.138548, -589, 90, 1955, -24, 8851, 608
0.140070, -582, 98, 1948, 33, 8935, 656
0.141337, -573, 100, 1925, 58, 8970, 677
0.142456, -566, 106, 1925, 82, 9004, 696
0.145423, -535, 111, 1897, 131, 9101, 734
0.146658, -534, 120, 1889, 147, 9126, 744
0.147926, -525, 129, 1884, 175, 9171, 751
0.149193, -519, 126, 1871, 186, 9184, 745
0.150459, -509, 120, 1867, 196, 9196, 733
0.151726, -506, 123, 1854, 210, 9207, 721
0.153500, -513, 129, 1821, 250, 9210, 669
0.155313, -525, 129, 1813, 262, 9205, 644
0.156540, -544, 110, 1788, 269, 9198, 621
0.158061, -583, 113, 1772, 268, 9173, 555
0.159327, -606, 104, 1759, 267, 9155, 528
0.160852, -646, 104, 1743, 268, 9138, 510
0.162369, -678, 100, 1744, 260, 9098, 491
0.163635, -701, 100, 1745, 249, 9077, 478
0.164902, -725, 92, 1755, 234, 9064, 471
0.166168, -746, 87, 1765, 198, 9053, 466
0.167436, -763, 77, 1765, 182, 9052, 469
0.168703, -786, 64, 1771, 166, 9061, 477
0.171237, -810, 53, 1785, 128, 9127, 530
0.172359, -832, 51, 1782, 115, 9154, 556
0.173517, -850, 52, 1784, 100, 9184, 592
0.174784, -865, 54, 1788, 90, 9216, 630
0.176051, -882, 53, 1791, 81, 9246, 671
0.177318, -892, 58, 1796, 58, 9305, 769
0.178429, -908, 61, 1795, 46, 9330, 816
0.179598, -932, 60, 1807, 35, 9353, 865
0.180709, -936, 60, 1814, 28, 9377, 920
0.181879, -953, 59, 1820, 20, 9396, 976
0.182991, -960, 62, 1825, 11, 9414, 1032
0.184159, -974, 58, 1843, 6, 9438, 1092
0.185451, -980, 52, 1842, 3, 9482, 1207
0.186693, -990, 46, 1844, 5, 9501, 1266
0.187961, -991, 53, 1846, 11, 9524, 1323
0.189075, -992, 44, 1849, 19, 9551, 1375
0.190240, -996, 50, 1845, 25, 9578, 1428
0.191351, -999, 51, 1857, 30, 9606, 1482
0.192521, -997, 45, 1859, 57, 9677, 1587
0.193634, -999, 50, 1860, 74, 9719, 1643
0.194802, -989, 44, 1861, 92, 9762, 1699
0.195913, -983, 39, 1858, 115, 9805, 1752
0.197336, -961, 22, 1839, 146, 9850, 1799
0.198663, -954, 11, 1818, 222, 9928, 1871
0.201199, -924, 4, 1779, 306, 9994, 1896
0.202403, -928, 2, 1749, 350, 10021, 1889
0.203923, -925, 5, 1721, 435, 10080, 1830
0.205190, -932, 16, 1700, 471, 10105, 1787
0.206312, -935, 22, 1681, 501, 10123, 1741
0.207471, -936, 41, 1651, 526, 10151, 1691
0.208579, -943, 53, 1635, 545, 10188, 1641
0.209751, -948, 66, 1615, 568, 10254, 1549
0.210852, -950, 81, 1611, 572, 10288, 1503
0.212031, -957, 90, 1598, 571, 10313, 1460
0.213298, -957, 95, 1598, 562, 10333, 1418
0.214395, -957, 112, 1585, 555, 10358, 1381
0.215579, -950, 123, 1595, 552, 10381, 1349
0.216674, -937, 129, 1589, 548, 10401, 1317
0.217859, -948, 131, 1597, 533, 10442, 1259
0.218958, -939, 141, 1607, 524, 10460, 1233
0.220139, -957, 144, 1596, 514, 10480, 1204
0.221237, -959, 151, 1595, 506, 10498, 1177
0.222420, -977, 157, 1583, 504, 10513, 1153
0.223687, -983, 170, 1569, 504, 10521, 1128
0.224786, -1002, 160, 1560, 500, 10522, 1099
0.225968, -1020, 169, 1551, 482, 10520, 1045
0.227064, -1040, 172, 1543, 469, 10510, 1016
0.228248, -1052, 171, 1537, 447, 10499, 991
0.229344, -1071, 161, 1546, 425, 10489, 973
0.230529, -1080, 159, 1551, 407, 10478, 961
0.231627, -1069, 152, 1552, 389, 10470, 957
0.232809, -1077, 148, 1565, 366, 10469, 962
0.234076, -1079, 141, 1570, 323, 10490, 977
0.235343, -1091, 146, 1578, 304, 10511, 985
0.236441, -1088, 142, 1583, 285, 10538, 993
0.237623, -1082, 143, 1591, 267, 10574, 1004
0.238723, -1087, 141, 1598, 250, 10614, 1015
0.239905, -1074, 140, 1603, 241, 10657, 1024
0.241171, -1064, 142, 1607, 219, 10744, 1042
0.242438, -1074, 144, 1617, 207, 10789, 1054
0.243546, -1063, 146, 1618, 200, 10830, 1066
0.244718, -1055, 134, 1629, 193, 10873, 1076
0.245814, -1032, 111, 1631, 186, 10914, 1086
0.246999, -1012, 100, 1626, 183, 10951, 1091
0.248098, -998, 99, 1610, 187, 10987, 1085
0.249280, -988, 101, 1586, 218, 11043, 1010
0.250389, -987, 108, 1575, 247, 11058, 949
0.251560, -996, 122, 1545, 275, 11062, 875
0.252827, -998, 121, 1534, 300, 11062, 789
0.254095, -1012, 135, 1518, 327, 11059, 699
0.255214, -1028, 135, 1509, 344, 11055, 611
0.256374, -1051, 139, 1509, 353, 11053, 462
0.257473, -1059, 150, 1514, 353, 11052, 402
0.260529, -1093, 137, 1520, 331, 11078, 276
0.261696, -1108, 135, 1514, 328, 11091, 242
0.263217, -1127, 128, 1511, 334, 11108, 210
0.264336, -1127, 121, 1499, 347, 11131, 178
0.265496, -1128, 109, 1487, 374, 11185, 112
0.266595, -1130, 113, 1470, 396, 11207, 80
0.267777, -1135, 107, 1443, 419, 11233, 50
0.268878, -1135, 111, 1433, 439, 11264, 14
0.270057, -1143, 105, 1414, 452, 11292, -26
0.271158, -1142, 107, 1404, 459, 11314, -66
0.272338, -1154, 97, 1394, 458, 11331, -107
0.273438, -1160, 100, 1387, 453, 11343, -158
0.274618, -1175, 100, 1390, 442, 11366, -265
0.275718, -1192, 94, 1392, 437, 11373, -317
0.276899, -1209, 91, 1390, 433, 11377, -366
0.277997, -1228, 97, 1385, 432, 11378, -409
0.279179, -1248, 100, 1383, 435, 11380, -449
0.280283, -1273, 90, 1380, 437, 11381, -486
0.281460, -1304, 91, 1379, 440, 11378, -520
0.282556, -1322, 97, 1377, 446, 11372, -549
0.283740, -1348, 97, 1366, 465, 11359, -590
0.284838, -1371, 102, 1361, 475, 11347, -609
0.286077, -1389, 103, 1351, 482, 11333, -625
0.287288, -1413, 96, 1343, 489, 11317, -633
0.288555, -1437, 98, 1334, 496, 11296, -635
0.289652, -1458, 103, 1326, 497, 11273, -636
0.290835, -1480, 88, 1323, 493, 11219, -634
0.291934, -1505, 88, 1321, 491, 11193, -628
0.293116, -1527, 82, 1307, 487, 11171, -614
0.294214, -1539, 84, 1305, 485, 11149, -596
0.295396, -1563, 77, 1284, 485, 11126, -574
0.296491, -1582, 80, 1280, 483, 11107, -548
0.297676, -1603, 82, 1268, 483, 11089, -519
0.299958, -1656, 65, 1266, 484, 11032, -456
0.301225, -1671, 62, 1270, 482, 11014, -434
0.302492, -1693, 43, 1276, 478, 11000, -407
0.304266, -1722, 32, 1287, 464, 10981, -330
0.305808, -1737, 28, 1296, 464, 10977, -292
0.307053, -1734, 23, 1292, 466, 10991, -203
0.308320, -1724, 11, 1301, 478, 11002, -157
0.309587, -1728, 10, 1305, 492, 11012, -113
0.310854, -1719, 7, 1303, 500, 11030, -70
0.312121, -1717, 2, 1301, 523, 11092, 7
0.313388, -1719, 5, 1298, 536, 11123, 43
0.314655, -1721, 20, 1294, 548, 11154, 72
0.315922, -1734, 25, 1283, 562, 11188, 96
0.317189, -1739, 40, 1277, 589, 11250, 135
0.318456, -1752, 45, 1277, 598, 11275, 150
0.319722, -1754, 53, 1268, 606, 11296, 166
0.320989, -1759, 51, 1263, 617, 11313, 182
0.322256, -1765, 52, 1254, 630, 11340, 211
0.323777, -1778, 51, 1249, 642, 11349, 222
0.325044, -1778, 47, 1246, 659, 11357, 241
0.326311, -1768, 58, 1241, 683, 11366, 293
0.327578, -1760, 57, 1236, 696, 11371, 322
0.328695, -1748, 66, 1241, 705, 11380, 352
0.329858, -1719, 70, 1232, 710, 11393, 383
0.331125, -1701, 80, 1248, 717, 11408, 414
0.332392, -1676, 84, 1237, 733, 11455, 468
0.333659, -1646, 85, 1234, 744, 11481, 485
0.334926, -1625, 100, 1225, 754, 11506, 500
0.336193, -1605, 104, 1223, 762, 11530, 514
0.337459, -1589, 107, 1203, 790, 11571, 516
0.338574, -1585, 119, 1190, 802, 11591, 506
0.339739, -1567, 130, 1181, 816, 11604, 493
0.340846, -1549, 138, 1164, 832, 11613, 472
0.342021, -1532, 144, 1155, 847, 11624, 450
0.343288, -1529, 147, 1151, 864, 11633, 428
0.344554, -1517, 149, 1139, 883, 11625, 360
0.345821, -1507, 158, 1137, 891, 11614, 322
0.347089, -1520, 161, 1135, 903, 11603, 287
0.348355, -1514, 164, 1145, 912, 11586, 250
0.349465, -1515, 158, 1137, 917, 11566, 211
0.350889, -1515, 165, 1146, 933, 11541, 146
0.352156, -1516, 169, 1143, 944, 11530, 120
0.353423, -1507, 180, 1144, 954, 11521, 102
0.354538, -1506, 182, 1137, 966, 11513, 86
0.355706, -1506, 191, 1122, 987, 11492, 44
0.356821, -1502, 189, 1110, 992, 11477, 23
0.357984, -1521, 196, 1095, 1001, 11458, 1
0.359251, -1527, 194, 1076, 1013, 11435, -24
0.360364, -1522, 191, 1075, 1022, 11407, -45
0.361531, -1538, 192, 1054, 1027, 11373, -65
0.364572, -1566, 194, 1031, 1044, 11275, -104
0.367214, -1559, 206, 1001, 1044, 11143, -96
0.368372, -1569, 217, 978, 1052, 11093, -86
0.369639, -1573, 219, 960, 1062, 11042, -80
0.370754, -1591, 223, 937, 1068, 10987, -83
0.371949, -1605, 230, 917, 1062, 10855, -102
0.373188, -1623, 219, 910, 1050, 10784, -108
0.374306, -1631, 212, 906, 1037, 10716, -111
0.375468, -1636, 197, 910, 1021, 10645, -113
0.376586, -1640, 187, 919, 996, 10570, -117
0.377748, -1657, 166, 924, 971, 10498, -110
0.378860, -1663, 148, 929, 954, 10432, -92
0.380789, -1689, 138, 932, 930, 10341, -56
0.382056, -1714, 133, 915, 934, 10255, 4
0.383584, -1755, 132, 895, 941, 10217, 30
0.384843, -1784, 141, 871, 948, 10183, 58
0.386364, -1825, 129, 864, 952, 10132, 99
0.387477, -1848, 123, 860, 953, 10110, 113
0.388645, -1878, 110, 866, 943, 10088, 131
0.390246, -1905, 98, 874, 917, 10047, 179
0.391431, -1932, 92, 884, 908, 10042, 206
0.394791, -1999, 66, 882, 883, 10058, 289
0.395992, -2028, 64, 876, 878, 10072, 328
0.397259, -2046, 60, 876, 877, 10103, 414
0.398527, -2053, 58, 875, 871, 10120, 451
0.399640, -2069, 50, 879, 870, 10143, 495
0.401156, -2087, 39, 876, 872, 10167, 544
0.403594, -2088, 30, 866, 887, 10253, 667
0.404861, -2093, 28, 855, 896, 10286, 711
0.406128, -2091, 39, 842, 906, 10317, 753
0.407414, -2085, 40, 829, 939, 10385, 827
0.408662, -2087, 42, 820, 948, 10417, 864
0.409966, -2070, 44, 806, 957, 10447, 901
0.411196, -2054, 48, 786, 966, 10476, 937
0.412304, -2055, 56, 781, 971, 10506, 968
0.413475, -2047, 60, 778, 972, 10556, 1019
0.414743, -2044, 71, 758, 968, 10585, 1032
0.416010, -2032, 84, 738, 976, 10611, 1040
0.417278, -2013, 90, 733, 994, 10620, 1041
0.418797, -1995, 88, 718, 1020, 10630, 1039
0.420064, -1987, 96, 713, 1022, 10634, 1037
0.421331, -1973, 89, 696, 1028, 10635, 1029
0.422599, -1947, 91, 703, 1046, 10639, 995
0.423866, -1919, 92, 677, 1055, 10645, 971
0.425385, -1914, 97, 657, 1067, 10650, 946
0.426653, -1906, 103, 638, 1112, 10676, 873
0.427920, -1896, 114, 630, 1124, 10687, 824
0.429186, -1905, 131, 600, 1132, 10684, 778
0.430453, -1906, 147, 588, 1146, 10685, 734
0.431720, -1919, 164, 573, 1171, 10690, 651
0.432987, -1936, 168, 573, 1176, 10690, 610
0.434254, -1931, 167, 558, 1174, 10688, 579
0.435376, -1923, 162, 557, 1166, 10678, 557
0.436534, -1920, 166, 554, 1160, 10663, 532
0.437655, -1908, 164, 554, 1155, 10648, 514
0.438814, -1892, 159, 550, 1147, 10617, 482
0.439928, -1873, 164, 549, 1151, 10601, 455
0.441095, -1862, 166, 524, 1161, 10583, 421
0.442362, -1859, 172, 519, 1173, 10564, 377
0.443629, -1858, 169, 505, 1187, 10550, 326
0.444897, -1865, 167, 504, 1210, 10529, 220
0.446163, -1869, 159, 499, 1218, 10524, 171
0.447430, -1878, 155, 493, 1223, 10518, 127
0.448697, -1875, 149, 489, 1222, 10517, 90
0.449964, -1881, 150, 484, 1214, 10530, 33
0.451232, -1879, 148, 470, 1211, 10533, 12
0.452499, -1877, 160, 475, 1207, 10534, -7
0.453766, -1869, 165, 467, 1197, 10534, -20
0.455032, -1861, 172, 468, 1176, 10526, -51
0.456299, -1850, 183, 475, 1167, 10516, -74
0.457566, -1863, 179, 470, 1153, 10502, -100
0.458833, -1865, 172, 471, 1142, 10482, -127
0.460100, -1875, 170, 472, 1135, 10433, -190
0.461366, -1889, 178, 469, 1134, 10401, -216
0.462635, -1897, 174, 460, 1137, 10362, -233
0.463900, -1911, 179, 443, 1145, 10322, -248
0.465167, -1914, 193, 432, 1156, 10244, -268
0.466434, -1929, 194, 408, 1162, 10202, -275
0.467701, -1937, 193, 403, 1169, 10162, -284
0.468969, -1939, 192, 398, 1169, 10122, -289
0.470090, -1938, 190, 377, 1161, 10083, -292
0.471249, -1945, 189, 372, 1142, 10022, -288
0.472770, -1941, 199, 358, 1133, 9996, -287
0.474036, -1944, 213, 350, 1119, 9973, -288
0.475556, -1945, 216, 349, 1088, 9929, -291
0.476822, -1941, 220, 342, 1073, 9914, -286
0.477942, -1935, 215, 333, 1055, 9898, -273
0.479129, -1926, 214, 322, 1035, 9879, -256
0.480624, -1926, 219, 301, 995, 9847, -216
0.481890, -1924, 231, 283, 980, 9825, -197
0.483012, -1924, 233, 272, 963, 9798, -182
0.484171, -1929, 238, 254, 942, 9766, -168
0.485280, -1928, 249, 245, 922, 9728, -159
0.486451, -1930, 252, 229, 885, 9646, -140
0.487557, -1916, 251, 228, 863, 9606, -124
0.488731, -1911, 254, 215, 842, 9569, -106
0.489838, -1901, 240, 219, 817, 9535, -87
0.491265, -1875, 230, 215, 787, 9504, -69
0.492374, -1847, 227, 227, 754, 9478, -52
0.493546, -1819, 226, 224, 698, 9444, -24
0.494649, -1810, 225, 221, 679, 9440, -14
0.495826, -1798, 231, 212, 658, 9440, -13
0.496924, -1797, 222, 213, 632, 9445, -24
0.498107, -1795, 217, 214, 609, 9453, -42
0.499208, -1810, 203, 223, 586, 9461, -63
0.500387, -1818, 192, 222, 561, 9471, -82
0.501656, -1834, 194, 243, 515, 9482, -109
0.502760, -1850, 187, 247, 493, 9484, -117
0.503936, -1879, 192, 255, 471, 9487, -125
0.505203, -1904, 204, 257, 455, 9491, -136
0.506324, -1933, 199, 266, 443, 9489, -142
0.507736, -1950, 183, 280, 425, 9469, -131
0.509257, -1961, 173, 298, 420, 9461, -116
0.511033, -1958, 151, 308, 420, 9447, -71
0.512298, -1943, 125, 317, 431, 9451, -39
0.513840, -1921, 107, 314, 477, 9478, 26
0.515085, -1926, 103, 315, 498, 9500, 47
0.516605, -1931, 102, 303, 521, 9523, 64
0.517726, -1948, 113, 293, 542, 9546, 71
0.519183, -1988, 118, 289, 583, 9597, 66
0.520407, -2010, 130, 292, 603, 9618, 58
0.521673, -2032, 124, 281, 621, 9639, 58
0.523194, -2040, 123, 288, 650, 9673, 85
0.524460, -2042, 118, 293, 665, 9688, 108
0.525727, -2032, 99, 299, 682, 9704, 136
0.527248, -2026, 89, 304, 739, 9724, 194
0.528769, -2002, 85, 293, 776, 9735, 216
0.530035, -1976, 83, 274, 871, 9770, 242
0.531302, -1956, 78, 246, 924, 9792, 251
0.532570, -1939, 87, 221, 977, 9818, 252
0.533836, -1915, 83, 181, 1036, 9846, 244
0.535103, -1897, 87, 151, 1148, 9908, 202
0.536371, -1885, 98, 103, 1191, 9938, 167
0.537636, -1879, 107, 71, 1227, 9960, 124
0.538904, -1887, 106, 47, 1256, 9977, 76
0.540170, -1891, 115, 28, 1293, 10006, -45
0.541437, -1892, 124, 9, 1302, 10012, -108
0.542559, -1910, 132, 8, 1308, 10013, -163
0.543794, -1915, 135, 7, 1316, 10014, -213
0.544984, -1920, 141, -2, 1323, 10015, -261
0.546096, -1933, 145, -11, 1329, 10014, -304
0.547265, -1942, 145, -24, 1353, 10012, -365
0.548532, -1950, 152, -38, 1365, 10006, -390
0.549656, -1956, 153, -49, 1379, 10000, -421
0.550813, -1963, 156, -60, 1399, 9999, -447
0.551941, -1966, 153, -74, 1417, 10001, -458
0.553093, -1948, 154, -85, 1428, 10006, -467
0.554203, -1954, 149, -97, 1433, 10016, -472
0.555373, -1934, 152, -108, 1435, 10036, -470
0.556499, -1919, 153, -117, 1433, 10048, -472
0.557654, -1907, 153, -132, 1424, 10063, -474
0.558921, -1886, 154, -128, 1410, 10081, -479
0.560188, -1878, 154, -134, 1391, 10100, -489
0.561311, -1876, 166, -135, 1369, 10116, -504
0.562468, -1879, 169, -130, 1322, 10142, -552
0.563735, -1882, 170, -130, 1301, 10152, -583
0.564849, -1888, 175, -129, 1281, 10159, -613
0.566016, -1893, 179, -128, 1259, 10164, -638
0.567283, -1890, 183, -140, 1239, 10166, -658
0.568550, -1901, 185, -143, 1213, 10175, -694
0.569674, -1895, 195, -154, 1204, 10176, -706
0.570831, -1900, 185, -164, 1196, 10173, -717
0.571950, -1903, 193, -167, 1187, 10169, -725
0.573111, -1894, 182, -181, 1180, 10168, -731
0.574230, -1881, 185, -181, 1168, 10168, -736
0.575392, -1870, 173, -191, 1155, 10173, -743
0.576510, -1851, 179, -196, 1143, 10182, -750
0.577690, -1822, 166, -201, 1121, 10214, -774
0.579192, -1803, 164, -199, 1107, 10242, -791
0.580460, -1779, 159, -203, 1090, 10275, -812
0.581726, -1759, 162, -206, 1060, 10370, -858
0.582993, -1736, 172, -204, 1041, 10428, -885
0.584260, -1711, 175, -196, 1021, 10485, -913
0.585397, -1699, 181, -194, 1000, 10544, -942
0.586541, -1677, 188, -197, 976, 10607, -976
0.587807, -1659, 201, -186, 926, 10734, -1054
0.589074, -1647, 203, -192, 905, 10789, -1091
0.590189, -1645, 216, -189, 887, 10837, -1135
0.591609, -1651, 219, -195, 872, 10883, -1182
0.592875, -1671, 214, -191, 850, 10946, -1279
0.593994, -1694, 215, -192, 844, 10968, -1331
0.595156, -1724, 214, -199, 842, 10985, -1381
0.596423, -1737, 207, -211, 842, 11000, -1425
0.597536, -1758, 208, -218, 849, 11016, -1458
0.598703, -1770, 202, -229, 860, 11035, -1477
0.599818, -1763, 202, -230, 869, 11053, -1493
0.600984, -1768, 192, -255, 880, 11094, -1518
0.602099, -1755, 179, -253, 886, 11128, -1527
0.604531, -1735, 140, -298, 893, 11210, -1545
0.606051, -1733, 125, -309, 883, 11311, -1567
0.607387, -1718, 126, -326, 872, 11367, -1577
0.608585, -1715, 134, -357, 858, 11423, -1586
0.609705, -1723, 141, -374, 844, 11479, -1596
0.610865, -1718, 162, -387, 828, 11537, -1606
0.611987, -1719, 162, -397, 806, 11588, -1620
0.613401, -1743, 166, -399, 750, 11667, -1658
0.614921, -1770, 165, -410, 715, 11693, -1686
0.616186, -1793, 167, -414, 664, 11715, -1747
0.617453, -1824, 176, -415, 647, 11712, -1776
0.618720, -1853, 183, -413, 637, 11706, -1800
0.619830, -1869, 176, -406, 628, 11694, -1813
0.621001, -1883, 166, -405, 625, 11676, -1815
0.622267, -1896, 158, -396, 613, 11623, -1807
0.623534, -1893, 142, -385, 607, 11600, -1789
0.624802, -1899, 117, -382, 602, 11577, -1770
0.626068, -1910, 88, -381, 600, 11560, -1745
0.627170, -1921, 74, -381, 601, 11548, -1713
0.628348, -1934, 52, -389, 619, 11510, -1639
0.629443, -1950, 46, -407, 632, 11488, -1595
0.630629, -1959, 36, -415, 642, 11469, -1547
0.631740, -1973, 40, -442, 650, 11453, -1493
0.632909, -1994, 42, -461, 655, 11434, -1433
0.634032, -2006, 45, -482, 657, 11411, -1374
0.635190, -2013, 57, -515, 654, 11383, -1317
0.636287, -2020, 64, -530, 645, 11350, -1269
0.637470, -2030, 70, -547, 631, 11254, -1179
0.638562, -2033, 71, -559, 628, 11196, -1140
0.639751, -2047, 74, -573, 623, 11130, -1112
0.640845, -2073, 61, -585, 618, 11057, -1091
0.642032, -2107, 64, -600, 618, 10975, -1074
0.643806, -2155, 57, -624, 619, 10790, -1050
0.645072, -2174, 56, -633, 622, 10692, -1037
0.646175, -2176, 48, -626, 627, 10591, -1022
0.647352, -2171, 45, -632, 632, 10492, -1000
0.648447, -2163, 21, -617, 636, 10398, -969
0.649633, -2142, 2, -604, 642, 10243, -884
0.650728, -2124, -10, -597, 643, 10190, -843
0.651914, -2121, -22, -606, 650, 10153, -807
0.653008, -2114, -21, -606, 667, 10133, -781
0.654194, -2108, -18, -623, 690, 10127, -770
0.655304, -2103, -8, -635, 711, 10135, -763
0.656475, -2095, -5, -650, 726, 10152, -753
0.657596, -2085, -12, -656, 737, 10176, -747
0.658755, -2083, -13, -656, 747, 10224, -754
0.659865, -2076, -23, -668, 750, 10248, -764
0.661035, -2071, -34, -682, 751, 10278, -780
0.662134, -2067, -34, -700, 755, 10308, -805
0.663316, -2067, -29, -718, 758, 10330, -838
0.664419, -2064, -39, -729, 763, 10345, -877
0.665596, -2059, -38, -751, 768, 10355, -922
0.666695, -2064, -24, -760, 776, 10353, -972
0.667877, -2061, -19, -781, 806, 10329, -1075
0.668974, -2068, -20, -792, 820, 10314, -1126
0.670158, -2066, 2, -807, 833, 10297, -1173
0.671255, -2064, 9, -825, 852, 10276, -1214
0.672438, -2058, 7, -837, 876, 10255, -1247
0.673705, -2050, 14, -849, 897, 10237, -1277
0.674803, -2043, 10, -871, 915, 10220, -1309
0.675985, -2045, 9, -887, 955, 10169, -1379
0.677086, -2037, 21, -900, 978, 10137, -1422
0.678267, -2044, 21, -932, 999, 10101, -1475
0.679536, -2047, 38, -949, 1021, 10057, -1535
0.680801, -2047, 54, -979, 1046, 10009, -1586
0.682067, -2055, 56, -1008, 1084, 9893, -1674
0.683335, -2059, 85, -1032, 1096, 9829, -1718
0.684601, -2083, 85, -1054, 1099, 9755, -1754
0.685722, -2103, 97, -1070, 1099, 9671, -1789
0.686881, -2126, 113, -1095, 1094, 9585, -1831
0.687982, -2148, 110, -1099, 1087, 9491, -1872
0.689162, -2172, 127, -1112, 1069, 9273, -1920
0.690262, -2183, 126, -1122, 1057, 9158, -1927
0.691442, -2188, 127, -1125, 1046, 9035, -1925
0.692548, -2194, 121, -1108, 1038, 8902, -1920
0.693723, -2184, 119, -1102, 1034, 8765, -1912
0.694824, -2179, 116, -1096, 1033, 8632, -1900
0.696003, -2165, 111, -1092, 1034, 8501, -1881
0.697097, -2164, 100, -1090, 1035, 8368, -1858
0.698284, -2154, 89, -1080, 1036, 8115, -1812
0.699551, -2144, 76, -1076, 1039, 7989, -1791
0.700659, -2146, 77, -1082, 1047, 7862, -1769
0.701831, -2143, 85, -1088, 1057, 7741, -1743
0.703098, -2145, 95, -1095, 1066, 7627, -1715
0.704365, -2155, 109, -1100, 1073, 7411, -1667
0.705483, -2172, 121, -1108, 1067, 7302, -1647
0.706645, -2204, 118, -1116, 1054, 7184, -1627
0.707744, -2229, 123, -1124, 1041, 7061, -1606
0.708926, -2244, 122, -1120, 1029, 6965, -1573
0.710024, -2264, 118, -1121, 1016, 6883, -1527
0.711206, -2272, 104, -1124, 1002, 6777, -1480
0.712309, -2269, 102, -1131, 989, 6664, -1427
0.713487, -2283, 93, -1126, 967, 6443, -1295
0.714588, -2292, 86, -1135, 964, 6321, -1229
0.715767, -2299, 78, -1139, 960, 6194, -1165
0.716865, -2315, 81, -1148, 958, 6061, -1103
0.718048, -2332, 85, -1149, 956, 5922, -1040
0.720329, -2338, 83, -1137, 953, 5629, -909
0.721659, -2331, 78, -1135, 935, 5307, -772
0.722862, -2322, 69, -1131, 928, 5142, -702
0.723966, -2311, 64, -1122, 928, 4975, -630
0.725143, -2305, 67, -1116, 925, 4807, -561
0.726242, -2279, 62, -1105, 924, 4640, -503
0.727423, -2254, 49, -1100, 928, 4474, -452
0.728531, -2239, 43, -1090, 927, 4307, -403
0.729704, -2222, 49, -1074, 931, 3987, -329
0.730805, -2221, 51, -1071, 939, 3833, -302
0.731984, -2222, 46, -1060, 947, 3687, -284
0.733083, -2222, 50, -1057, 954, 3551, -273
0.734265, -2231, 46, -1048, 958, 3418, -261
0.735364, -2240, 47, -1038, 961, 3290, -248
0.736545, -2237, 50, -1022, 964, 3170, -233
0.737645, -2238, 55, -1023, 967, 3059, -213
0.738826, -2243, 45, -1008, 972, 2855, -179
0.739930, -2254, 34, -1002, 971, 2760, -159
0.741106, -2260, 23, -994, 975, 2672, -131
0.742205, -2261, 28, -987, 978, 2590, -100
0.743387, -2260, 32, -997, 981, 2514, -71
0.744484, -2259, 37, -1006, 989, 2446, -36
0.745667, -2251, 36, -1008, 1000, 2384, 1
0.746765, -2244, 38, -1022, 1004, 2325, 39
0.747948, -2234, 43, -1026, 1004, 2206, 116
0.749048, -2228, 45, -1032, 1000, 2142, 153
0.750228, -2232, 36, -1029, 994, 2080, 186
0.751337, -2216, 35, -1033, 987, 2016, 221
0.752509, -2206, 36, -1023, 978, 1949, 258
0.753607, -2189, 28, -1042, 967, 1883, 294
0.754789, -2161, 24, -1030, 957, 1822, 333
0.755889, -2144, 29, -1027, 946, 1764, 369
0.757070, -2116, 28, -1037, 933, 1639, 425
0.758170, -2099, 29, -1037, 929, 1582, 446
0.759350, -2075, 35, -1037, 930, 1527, 457
0.760455, -2056, 35, -1030, 933, 1473, 459
0.761632, -2047, 37, -1037, 935, 1420, 457
0.762899, -2041, 39, -1040, 941, 1369, 448
0.764020, -2044, 48, -1043, 949, 1318, 432
0.765179, -2042, 49, -1046, 958, 1206, 401
0.766446, -2044, 53, -1046, 960, 1141, 386
0.767712, -2051, 49, -1045, 962, 1075, 369
0.768980, -2052, 50, -1051, 961, 1007, 356
0.770246, -2053, 49, -1049, 954, 863, 339
0.771368, -2053, 46, -1047, 955, 787, 339
0.772526, -2055, 50, -1059, 953, 708, 345
0.773630, -2057, 51, -1060, 952, 629, 355
0.774807, -2044, 49, -1069, 955, 548, 366
0.775909, -2038, 52, -1077, 958, 463, 376
0.777087, -2025, 53, -1086, 960, 380, 387
0.778187, -2012, 54, -1085, 961, 302, 397
0.779368, -1980, 70, -1101, 950, 150, 419
0.780467, -1964, 65, -1106, 943, 81, 432
0.781648, -1932, 72, -1108, 933, 16, 445
0.782746, -1917, 67, -1105, 923, -40, 450
0.783929, -1895, 71, -1103, 907, -88, 450
0.785032, -1886, 71, -1092, 883, -135, 449
0.786209, -1870, 75, -1086, 860, -177, 443
0.787317, -1871, 75, -1092, 837, -209, 432
0.788490, -1868, 75, -1088, 786, -259, 399
0.789590, -1873, 74, -1084, 762, -284, 378
0.790770, -1873, 77, -1085, 735, -308, 357
0.791874, -1876, 74, -1088, 712, -331, 334
0.793051, -1883, 74, -1091, 693, -353, 308
0.794149, -1885, 73, -1086, 671, -375, 281
0.795331, -1899, 70, -1083, 646, -397, 259
0.796426, -1900, 76, -1082, 626, -417, 240
0.797612, -1908, 72, -1079, 582, -454, 207
0.798709, -1906, 75, -1074, 558, -464, 200
0.799892, -1911, 69, -1068, 532, -468, 198
0.800990, -1917, 67, -1057, 501, -470, 196
0.802173, -1915, 68, -1054, 468, -468, 198
0.803274, -1914, 68, -1044, 438, -464, 206
0.804453, -1914, 71, -1047, 411, -457, 217
0.805554, -1910, 71, -1039, 384, -446, 229
0.806734, -1910, 66, -1026, 319, -420, 246
0.807852, -1901, 67, -1031, 283, -406, 255
0.809269, -1893, 64, -1015, 251, -388, 268
0.810536, -1879, 55, -1001, 221, -368, 283
0.811656, -1866, 44, -990, 191, -343, 296
0.812816, -1841, 45, -980, 133, -290, 319
0.813934, -1821, 40, -979, 104, -257, 326
0.815096, -1795, 45, -967, 83, -222, 330
0.816201, -1782, 44, -956, 67, -186, 329
0.817376, -1770, 44, -958, 50, -149, 321
0.818474, -1762, 48, -945, 32, -115, 306
0.819657, -1761, 55, -949, 17, -86, 287
0.820756, -1768, 64, -951, 3, -63, 266
0.821937, -1762, 72, -947, -27, -16, 219
0.823042, -1766, 78, -950, -41, 8, 200
0.824218, -1772, 85, -942, -55, 28, 184
0.825316, -1776, 88, -951, -69, 40, 170
0.826498, -1777, 89, -944, -84, 42, 157
0.827616, -1779, 92, -959, -95, 35, 148
0.828784, -1783, 93, -945, -104, 22, 141
0.830052, -1780, 86, -944, -122, -30, 120
0.831313, -1779, 81, -935, -125, -62, 113
0.832422, -1784, 82, -928, -124, -94, 107
0.833593, -1780, 86, -920, -127, -129, 99
0.834690, -1784, 89, -907, -129, -163, 92
0.835873, -1785, 71, -900, -129, -196, 85
0.836973, -1793, 72, -883, -130, -228, 77
0.838159, -1799, 67, -876, -125, -277, 64
0.839256, -1796, 54, -865, -113, -296, 63
0.840434, -1799, 53, -860, -103, -311, 60
0.841528, -1804, 55, -855, -97, -317, 55
0.842715, -1803, 50, -854, -91, -322, 54
0.843820, -1809, 50, -849, -83, -324, 52
0.844996, -1811, 48, -848, -74, -321, 49
0.846112, -1827, 52, -854, -69, -317, 46
0.847276, -1820, 48, -853, -63, -314, 41
0.848378, -1836, 61, -859, -60, -314, 39
0.849556, -1847, 58, -847, -60, -316, 37
0.850655, -1841, 55, -844, -59, -324, 39
0.851837, -1842, 60, -842, -59, -339, 44
0.852938, -1839, 58, -841, -62, -356, 48
0.854118, -1840, 55, -837, -61, -377, 53
0.855385, -1836, 53, -832, -49, -434, 64
0.856652, -1834, 56, -830, -42, -458, 69
0.857919, -1832, 50, -832, -29, -484, 78
0.859036, -1830, 52, -831, -13, -513, 86
0.860199, -1837, 55, -839, 5, -541, 88
0.861297, -1834, 56, -842, 22, -566, 87
0.862479, -1829, 54, -845, 59, -611, 90
0.863578, -1823, 54, -842, 80, -631, 88
0.864760, -1820, 57, -849, 97, -652, 86
0.865861, -1820, 65, -852, 108, -671, 84
0.867040, -1830, 62, -857, 118, -684, 80
0.868137, -1830, 64, -868, 132, -697, 74
0.869321, -1838, 65, -869, 141, -714, 67
0.870414, -1843, 66, -879, 142, -732, 61
0.871601, -1845, 63, -883, 151, -768, 43
0.872701, -1855, 63, -891, 155, -793, 27
0.873882, -1872, 67, -907, 154, -819, 10
0.874980, -1878, 68, -906, 157, -848, -8
0.876162, -1896, 67, -911, 162, -881, -23
0.877260, -1908, 68, -922, 167, -914, -33
0.878443, -1921, 62, -927, 171, -950, -45
0.879541, -1938, 70, -931, 171, -988, -57
0.880723, -1956, 63, -940, 171, -1056, -67
0.881823, -1963, 75, -943, 171, -1095, -69
0.883004, -1968, 71, -950, 173, -1137, -68
0.884100, -1970, 63, -955, 175, -1176, -65
0.885284, -1967, 62, -958, 171, -1218, -62
0.886383, -1975, 59, -949, 161, -1258, -58
0.887565, -1976, 52, -959, 153, -1295, -53
0.888666, -1980, 50, -958, 146, -1329, -46
0.889845, -1990, 52, -959, 123, -1393, -35
0.890948, -1998, 50, -958, 111, -1426, -31
0.892126, -2015, 58, -959, 101, -1457, -28
0.893224, -2020, 55, -957, 92, -1488, -25
0.894406, -2034, 50, -956, 78, -1524, -19
0.895510, -2047, 49, -953, 60, -1562, -9
0.896687, -2055, 50, -950, 45, -1606, 1
0.897954, -2057, 35, -942, 22, -1699, 32
0.899221, -2070, 38, -940, 12, -1752, 51
0.900337, -2074, 23, -940, 5, -1804, 69
0.901501, -2086, 25, -931, 1, -1852, 89
0.902769, -2079, 19, -940, 2, -1900, 111
0.904036, -2084, 21, -950, 10, -1991, 148
0.905303, -2090, 20, -951, 15, -2032, 167
0.906569, -2096, 14, -960, 28, -2075, 187
0.907836, -2094, 12, -976, 42, -2119, 201
0.909104, -2099, 17, -985, 58, -2191, 226
0.910221, -2098, 4, -987, 67, -2222, 239
0.911383, -2100, 7, -994, 73, -2250, 250
0.912480, -2105, 8, -998, 78, -2276, 258
0.913664, -2100, 8, -998, 82, -2301, 262
0.914785, -2108, 10, -1010, 83, -2324, 269
0.915945, -2110, 8, -1013, 85, -2346, 279
0.917055, -2114, 16, -1012, 85, -2368, 285
0.918225, -2111, 6, -1012, 82, -2410, 291
0.919327, -2111, 11, -1003, 77, -2433, 299
0.920505, -2118, 7, -1006, 74, -2455, 303
0.921602, -2127, 4, -1001, 80, -2483, 303
0.922786, -2133, 8, -998, 91, -2518, 301
0.924053, -2147, 2, -1016, 103, -2552, 298
0.925160, -2167, 4, -1022, 118, -2592, 296
0.926333, -2191, 11, -1046, 159, -2696, 287
0.927435, -2203, 13, -1053, 181, -2760, 282
0.928614, -2225, 19, -1083, 201, -2836, 280
0.929713, -2233, 14, -1085, 219, -2919, 282
0.930894, -2255, 9, -1103, 236, -3007, 288
0.931998, -2261, 8, -1104, 249, -3100, 298
0.933175, -2267, -1, -1110, 258, -3200, 312
0.934281, -2275, -5, -1111, 268, -3308, 332
0.935455, -2280, -10, -1128, 292, -3521, 383
0.936566, -2283, -11, -1139, 309, -3635, 405
0.937736, -2275, -5, -1150, 320, -3750, 426
0.938847, -2272, -16, -1160, 328, -3868, 448
0.940017, -2283, -23, -1174, 341, -3993, 466
0.941128, -2285, -16, -1188, 355, -4123, 472
0.942297, -2287, -18, -1204, 366, -4251, 474
0.943399, -2290, -24, -1212, 373, -4379, 476
0.944577, -2303, -30, -1225, 384, -4656, 468
0.945682, -2305, -24, -1229, 386, -4801, 466
0.946858, -2313, -27, -1229, 385, -4948, 464
0.947957, -2319, -26, -1237, 382, -5101, 461
0.949138, -2318, -22, -1240, 379, -5255, 460
0.950232, -2322, -30, -1252, 374, -5415, 460
0.951419, -2336, -23, -1263, 375, -5584, 460
0.952518, -2342, -24, -1270, 380, -5760, 467
0.953699, -2349, -30, -1272, 382, -6141, 485
0.954969, -2356, -29, -1275, 387, -6344, 495
0.956066, -2360, -32, -1286, 398, -6558, 507
0.957247, -2367, -19, -1296, 416, -6782, 525
0.958342, -2380, -20, -1296, 438, -7013, 549
0.959527, -2384, -7, -1303, 457, -7249, 570
0.960621, -2391, 6, -1318, 471, -7496, 585
0.961808, -2393, 0, -1318, 501, -8027, 624
0.962905, -2404, 19, -1323, 510, -8303, 644
0.964088, -2403, 16, -1341, 517, -8587, 661
0.965355, -2395, 27, -1346, 528, -8876, 680
0.966454, -2387, 32, -1358, 539, -9169, 700
0.967636, -2374, 32, -1376, 551, -9463, 724
0.968732, -2362, 34, -1386, 563, -9752, 751
0.969916, -2339, 40, -1396, 568, -10323, 792
0.971015, -2313, 37, -1408, 573, -10610, 808
0.972197, -2279, 39, -1425, 574, -10893, 825
0.973290, -2259, 44, -1432, 572, -11173, 835
0.974477, -2232, 50, -1437, 570, -11454, 836
0.975744, -2213, 60, -1441, 564, -11733, 833
0.976850, -2201, 74, -1440, 552, -12010, 825
0.978025, -2188, 83, -1434, 518, -12563, 788
0.979292, -2162, 87, -1430, 498, -12836, 764
0.980559, -2126, 91, -1412, 478, -13113, 744
0.981671, -2088, 90, -1403, 458, -13390, 727
0.982840, -2030, 96, -1391, 437, -13665, 708
0.983960, -1999, 94, -1373, 417, -13936, 682
0.985119, -1979, 85, -1379, 385, -14463, 594
0.986221, -1945, 110, -1372, 374, -14736, 528
0.987400, -1942, 111, -1294, 367, -15036, 456
0.988499, -1937, 95, -1291, 355, -15321, 381
0.989680, -1954, 106, -1264, 337, -15543, 298
0.990779, -1982, 104, -1257, 326, -15745, 209
0.991961, -2003, 108, -1262, 328, -15963, 125
0.993059, -2027, 109, -1229, 329, -16184, 51
0.994241, -2028, 106, -1178, 305, -16636, -64
0.995343, -2032, 103, -1147, 277, -16855, -101
0.996522, -2023, 86, -1102, 255, -17066, -129
0.997628, -2009, 75, -1080, 244, -17266, -152
0.998802, -1993, 71, -1056, 237, -17450, -177
1.000070, -1982, 59, -1039, 237, -17619, -207
1.001183, -1976, 53, -1014, 241, -17773, -243
1.002350, -1979, 55, -989, 236, -18056, -341
1.003453, -1973, 59, -954, 225, -18193, -394
1.004631, -1994, 59, -880, 205, -18325, -453
1.005737, -2010, 50, -889, 184, -18452, -515
1.006911, -2060, 67, -826, 169, -18577, -572
1.008010, -2070, 58, -832, 167, -18696, -624
1.009193, -2099, 68, -813, 169, -18810, -670
1.010459, -2137, 68, -804, 179, -19078, -723
1.011726, -2168, 61, -780, 179, -19186, -733
1.012993, -2186, 61, -735, 149, -19285, -743
1.014115, -2208, 49, -695, 110, -19380, -745
1.015273, -2206, 38, -641, 75, -19459, -735
1.016540, -2198, 25, -609, 23, -19599, -695
1.017806, -2193, 16, -559, 21, -19666, -671
1.019075, -2173, 7, -521, 23, -19715, -647
1.020342, -2167, 5, -475, 21, -19747, -622
1.021460, -2147, -3, -462, 23, -19768, -595
1.022621, -2129, -9, -432, 46, -19763, -547
1.023736, -2117, -10, -405, 51, -19734, -524
1.024902, -2090, -8, -385, 54, -19690, -508
1.026016, -2068, -9, -355, 59, -19637, -499
1.027182, -2047, -4, -332, 67, -19576, -491
1.028277, -2025, -5, -312, 72, -19504, -485
1.029463, -2005, -3, -287, 73, -19425, -485
1.030730, -1987, 6, -271, 77, -19258, -493
1.031998, -1981, 12, -236, 80, -19162, -503
1.033264, -1979, 9, -209, 78, -19060, -516
1.034385, -1992, 14, -180, 67, -18953, -529
1.035545, -1987, 21, -149, 55, -18844, -540
1.036558, -1994, 19, -114, 44, -18733, -544
1.037317, -1988, 24, -108, 34, -18620, -538
1.038078, -1993, 33, -89, 30, -18507, -521
1.038838, -1997, 30, -90, 33, -18384, -501
1.039598, -1995, 38, -84, 33, -18384, -501
1.040363, -2006, 38, -67, 45, -18252, -477
1.041118, -1996, 39, -58, 57, -18122, -444
1.041878, -2002, 43, -49, 61, -17999, -404
1.042638, -2006, 44, -42, 61, -17999, -404
1.043399, -2013, 45, -40, 68, -17878, -361
1.044182, -2016, 48, -56, 77, -17753, -317
1.044963, -2011, 44, -183, 80, -17622, -274
1.045761, -2075, 84, -398, 80, -17622, -274
1.046693, -2052, 124, 31, 70, -17492, -233
1.047453, -2022, 53, -38, 25, -17390, -200
1.048213, -2016, 65, 51, -113, -17372, -179
1.048973, -2044, 58, 228, -273, -17375, -141
1.049734, -2043, 20, 206, -273, -17375, -141
1.050747, -2034, -2, 88, -308, -17244, -63
1.051508, -2059, 14, 126, -266, -17015, 11
1.052522, -2054, 25, 123, -209, -16801, 58
1.053361, -2038, 15, 91, -139, -16596, 112
1.054295, -2008, 37, 167, -117, -16409, 187
1.055086, -1986, 38, 214, -127, -16253, 279
1.055827, -1959, 33, 222, -127, -16253, 279
1.056575, -1951, 31, 253, -132, -16102, 372
1.057335, -1948, 32, 286, -137, -15935, 441
1.058095, -1949, 27, 297, -131, -15738, 489
1.058855, -1946, 25, 299, -131, -15738, 489
1.059615, -1939, 19, 304, -112, -15514, 528
1.060376, -1934, 21, 298, -90, -15275, 560
1.061136, -1916, 27, 287, -66, -15039, 595
1.061896, -1901, 22, 286, -66, -15039, 595
1.062656, -1878, 15, 290, -48, -14812, 646
1.063670, -1860, 19, 294, -42, -14586, 705
1.064430, -1843, 12, 298, -54, -14356, 763
1.065190, -1825, 7, 301, -86, -14125, 811
1.065950, -1821, 14, 321, -86, -14125, 811
1.066711, -1809, 13, 333, -127, -13897, 847
1.068738, -1792, 21, 353, -204, -13433, 891
1.069506, -1790, 33, 359, -239, -13201, 905
1.070270, -1775, 38, 367, -270, -12976, 920
1.071033, -1769, 48, 372, -270, -12976, 920
1.071789, -1769, 46, 377, -294, -12759, 941
1.072539, -1768, 48, 377, -315, -12547, 956
1.073298, -1770, 51, 382, -336, -12336, 967
1.074059, -1755, 56, 393, -336, -12336, 967
1.074819, -1750, 56, 401, -356, -12131, 982
1.075579, -1753, 64, 400, -374, -11931, 1000
1.076339, -1751, 57, 403, -394, -11736, 1021
1.077100, -1748, 59, 403, -394, -11736, 1021
1.077859, -1750, 61, 407, -415, -11549, 1043
1.078620, -1753, 60, 411, -428, -11368, 1067
1.079380, -1748, 68, 418, -433, -11193, 1093
1.080140, -1744, 70, 406, -433, -11193, 1093
1.080901, -1744, 65, 412, -440, -11025, 1117
1.081947, -1742, 67, 410, -447, -10867, 1144
1.082731, -1747, 71, 410, -447, -10716, 1171
1.083479, -1753, 71, 413, -444, -10570, 1203
1.084222, -1747, 81, 402, -444, -10570, 1203
1.084993, -1734, 77, 409, -447, -10431, 1242
1.085739, -1720, 81, 412, -451, -10302, 1282
1.086475, -1716, 85, 409, -452, -10175, 1322
1.087236, -1694, 89, 402, -452, -10175, 1322
1.088049, -1672, 97, 405, -456, -10049, 1367
1.088797, -1666, 103, 409, -464, -9930, 1409
1.089537, -1639, 113, 399, -467, -9817, 1444
1.090276, -1626, 110, 397, -467, -9817, 1444
1.091036, -1608, 128, 394, -469, -9708, 1474
1.091796, -1588, 126, 395, -476, -9605, 1499
1.092556, -1572, 132, 398, -486, -9509, 1515
1.093316, -1559, 134, 395, -486, -9509, 1515
1.094377, -1540, 138, 393, -495, -9421, 1518
1.095128, -1535, 145, 404, -505, -9347, 1506
1.095869, -1528, 141, 405, -515, -9292, 1488
1.096611, -1520, 136, 407, -520, -9250, 1463
1.097371, -1513, 139, 411, -520, -9250, 1463
1.098131, -1513, 136, 415, -525, -9215, 1430
1.098893, -1517, 146, 420, -528, -9186, 1392
1.099651, -1514, 152, 422, -528, -9168, 1352
1.100411, -1517, 146, 429, -528, -9168, 1352
1.101172, -1532, 145, 431, -525, -9158, 1314
1.101944, -1542, 150, 445, -518, -9154, 1278
1.102692, -1547, 150, 452, -509, -9162, 1242
1.103452, -1552, 149, 458, -509, -9162, 1242
1.104212, -1561, 149, 471, -503, -9179, 1208
1.104988, -1572, 142, 482, -493, -9199, 1176
1.105986, -1584, 136, 484, -482, -9220, 1147
1.107253, -1597, 128, 496, -469, -9243, 1121
1.108014, -1609, 126, 505, -452, -9271, 1101
1.108773, -1614, 121, 513, -433, -9297, 1082
1.109534, -1610, 122, 510, -433, -9297, 1082
1.110294, -1619, 112, 512, -415, -9321, 1067
1.111118, -1634, 110, 508, -396, -9349, 1057
1.111867, -1633, 106, 502, -377, -9378, 1049
1.112607, -1638, 109, 506, -377, -9378, 1049
1.113338, -1649, 112, 512, -357, -9408, 1038
1.113950, -1649, 108, 506, -342, -9440, 1025
1.114561, -1645, 107, 509, -342, -9440, 1025
1.115361, -1652, 108, 518, -333, -9477, 1013
1.115974, -1664, 105, 517, -327, -9517, 1002
1.116587, -1667, 103, 522, -327, -9517, 1002
1.117200, -1672, 104, 523, -320, -9556, 991
1.117811, -1677, 106, 529, -320, -9556, 991
1.118425, -1683, 104, 543, -317, -9596, 983
1.119162, -1688, 103, 539, -314, -9643, 980
1.119775, -1687, 102, 550, -314, -9643, 980
1.120387, -1694, 99, 550, -308, -9690, 982
1.120999, -1703, 101, 556, -300, -9734, 979
1.121611, -1708, 90, 564, -300, -9734, 979
1.122223, -1720, 85, 572, -290, -9783, 973
1.122835, -1716, 84, 577, -290, -9783, 973
1.123447, -1725, 86, 581, -277, -9838, 972
1.124059, -1732, 77, 585, -258, -9891, 980
1.124672, -1727, 84, 590, -258, -9891, 980
1.125496, -1734, 78, 587, -235, -9943, 985
1.126256, -1746, 78, 592, -210, -9998, 989
1.127017, -1747, 79, 591, -182, -10055, 994
1.127777, -1758, 73, 594, -182, -10055, 994
1.128538, -1766, 63, 594, -152, -10115, 994
1.129297, -1781, 64, 591, -119, -10180, 988
1.130057, -1796, 58, 587, -84, -10250, 981
1.130675, -1790, 56, 588, -84, -10250, 981
1.131287, -1801, 53, 582, -49, -10326, 974
1.132084, -1814, 39, 590, -12, -10409, 964
1.132697, -1819, 36, 591, -12, -10409, 964
1.133312, -1820, 43, 597, 27, -10493, 955
1.133923, -1828, 40, 589, 27, -10493, 955
1.134537, -1835, 29, 600, 67, -10578, 953
1.135152, -1835, 33, 597, 103, -10658, 952
1.135764, -1840, 31, 595, 103, -10658, 952
1.136377, -1840, 28, 596, 133, -10734, 946
1.136988, -1849, 30, 601, 133, -10734, 946
1.137601, -1853, 30, 607, 160, -10811, 939
1.138214, -1859, 33, 605, 187, -10884, 933
1.138825, -1864, 33, 609, 187, -10884, 933
1.139439, -1874, 27, 608, 210, -10954, 930
1.140053, -1884, 26, 605, 210, -10954, 930
1.140666, -1899, 34, 604, 231, -11025, 928
1.141278, -1914, 43, 605, 258, -11100, 928
1.141889, -1926, 41, 601, 258, -11100, 928
1.142503, -1942, 57, 590, 291, -11182, 929
1.143115, -1945, 55, 585, 291, -11182, 929
1.143726, -1954, 58, 582, 323, -11268, 937
1.144337, -1965, 55, 584, 359, -11361, 948
1.144948, -1973, 66, 578, 359, -11361, 948
1.145559, -1978, 65, 583, 394, -11463, 960
1.146282, -1980, 67, 581, 417, -11566, 978
1.146896, -1978, 70, 583, 417, -11566, 978
1.147509, -1985, 66, 585, 437, -11664, 1006
1.148123, -1974, 60, 589, 437, -11664, 1006
1.148736, -1969, 63, 586, 460, -11761, 1034
1.149348, -1965, 60, 580, 483, -11853, 1063
1.149961, -1964, 60, 584, 483, -11853, 1063
1.150687, -1959, 54, 581, 502, -11936, 1096
1.151664, -1952, 61, 576, 522, -12013, 1125
1.152400, -1948, 59, 568, 544, -12088, 1143
1.153015, -1950, 62, 560, 544, -12088, 1143
1.153629, -1955, 64, 551, 564, -12153, 1156
1.154243, -1953, 65, 544, 564, -12153, 1156
1.154855, -1944, 58, 534, 583, -12210, 1166
1.155467, -1952, 60, 528, 601, -12257, 1173
1.156080, -1948, 66, 521, 601, -12257, 1173
1.156691, -1951, 65, 512, 616, -12293, 1179
1.158203, -1964, 61, 508, 620, -12321, 1184
1.158965, -1968, 66, 503, 614, -12338, 1187
1.159704, -1968, 70, 511, 603, -12345, 1191
1.160464, -1968, 57, 509, 585, -12344, 1195
1.161224, -1979, 64, 519, 585, -12344, 1195
1.161837, -1976, 59, 524, 564, -12335, 1201
1.162452, -1978, 56, 528, 564, -12335, 1201
1.163065, -1978, 53, 532, 541, -12317, 1210
1.163679, -1983, 58, 546, 519, -12290, 1221
1.164292, -1973, 55, 563, 519, -12290, 1221
1.164905, -1974, 52, 563, 494, -12254, 1234
1.165518, -1965, 52, 583, 494, -12254, 1234
1.166131, -1952, 53, 590, 464, -12215, 1249
1.166744, -1946, 52, 592, 436, -12179, 1258
1.167357, -1942, 54, 587, 436, -12179, 1258
1.167973, -1947, 56, 584, 419, -12135, 1261
1.168587, -1939, 56, 583, 406, -12076, 1265
1.169333, -1935, 58, 588, 406, -12076, 1265
1.170093, -1927, 51, 589, 391, -12009, 1267
1.170707, -1921, 51, 594, 369, -11940, 1265
1.171446, -1911, 55, 594, 369, -11940, 1265
1.173162, -1888, 56, 596, 317, -11790, 1258
1.173911, -1878, 58, 586, 297, -11718, 1248
1.174654, -1865, 63, 595, 279, -11642, 1235
1.175414, -1864, 71, 591, 279, -11642, 1235
1.176174, -1854, 69, 592, 259, -11565, 1222
1.176941, -1847, 66, 598, 232, -11496, 1212
1.177694, -1837, 76, 599, 201, -11433, 1202
1.178454, -1831, 83, 600, 201, -11433, 1202
1.179215, -1826, 84, 608, 169, -11375, 1185
1.179827, -1829, 82, 613, 139, -11327, 1163
1.180441, -1830, 87, 617, 139, -11327, 1163
1.181242, -1826, 103, 622, 110, -11286, 1139
1.181855, -1823, 103, 626, 80, -11245, 1117
1.182578, -1818, 106, 639, 80, -11245, 1117
1.183301, -1811, 112, 645, 46, -11208, 1101
1.184029, -1811, 117, 653, 10, -11179, 1093
1.184789, -1802, 119, 661, -22, -11156, 1089
1.185549, -1793, 119, 667, -22, -11156, 1089
1.186309, -1786, 122, 665, -49, -11139, 1083
1.186923, -1780, 124, 670, -74, -11129, 1076
1.187644, -1766, 111, 672, -74, -11129, 1076
1.188365, -1746, 119, 684, -96, -11126, 1073
1.188977, -1739, 115, 682, -114, -11129, 1068
1.189698, -1723, 116, 683, -114, -11129, 1068
1.190419, -1695, 117, 687, -131, -11135, 1059
1.191143, -1688, 128, 686, -145, -11145, 1044
1.191755, -1669, 121, 686, -145, -11145, 1044
1.192477, -1658, 128, 681, -158, -11157, 1022
1.193200, -1643, 135, 683, -168, -11167, 995
1.193812, -1634, 130, 684, -168, -11167, 995
1.194425, -1628, 142, 691, -179, -11180, 965
1.195178, -1625, 143, 704, -197, -11197, 929
1.195791, -1624, 150, 703, -197, -11197, 929
1.196514, -1623, 150, 712, -218, -11209, 884
1.197126, -1626, 151, 715, -244, -11219, 838
1.197739, -1623, 157, 727, -244, -11219, 838
1.198472, -1628, 157, 739, -277, -11233, 798
1.199232, -1624, 161, 758, -310, -11247, 759
1.199844, -1626, 161, 761, -310, -11247, 759
1.200568, -1638, 164, 784, -345, -11259, 722
1.201290, -1643, 169, 792, -379, -11268, 689
1.202052, -1646, 163, 816, -409, -11280, 662
1.202780, -1648, 159, 833, -409, -11280, 662
1.203540, -1666, 162, 845, -437, -11291, 637
1.204300, -1673, 157, 862, -459, -11296, 616
1.205060, -1681, 150, 889, -475, -11298, 600
1.205674, -1686, 152, 904, -475, -11298, 600
1.206285, -1693, 152, 909, -486, -11300, 587
1.207087, -1716, 142, 918, -491, -11302, 576
1.207702, -1714, 138, 924, -491, -11302, 576
1.208429, -1715, 131, 931, -490, -11301, 569
1.209157, -1729, 126, 954, -482, -11305, 570
1.209773, -1730, 127, 961, -482, -11305, 570
1.210386, -1736, 117, 971, -472, -11312, 581
1.211142, -1742, 111, 979, -462, -11312, 592
1.211750, -1738, 119, 980, -462, -11312, 592
1.212472, -1740, 111, 987, -455, -11308, 601
1.213193, -1740, 108, 990, -444, -11303, 613
1.213929, -1737, 105, 991, -444, -11303, 613
1.214689, -1740, 110, 997, -432, -11292, 628
1.215449, -1739, 105, 997, -418, -11280, 643
1.216209, -1738, 106, 996, -404, -11270, 657
1.216821, -1745, 106, 999, -404, -11270, 657
1.217545, -1732, 107, 1009, -396, -11258, 668
1.218159, -1727, 106, 1009, -396, -11258, 668
1.218997, -1715, 99, 1027, -392, -11247, 679
1.219612, -1716, 102, 1031, -392, -11240, 692
1.220350, -1708, 103, 1040, -396, -11232, 702
1.221082, -1702, 106, 1039, -396, -11232, 702
1.221696, -1695, 101, 1049, -398, -11223, 703
1.222312, -1686, 109, 1050, -395, -11222, 701
1.222925, -1689, 109, 1055, -395, -11222, 701
1.223564, -1669, 103, 1064, -387, -11225, 700
1.224177, -1664, 103, 1064, -387, -11225, 700
1.224903, -1658, 107, 1075, -379, -11226, 695
1.225516, -1659, 103, 1085, -377, -11232, 687
1.226129, -1645, 101, 1094, -377, -11232, 687
1.226743, -1638, 94, 1104, -373, -11246, 680
1.227357, -1637, 87, 1108, -358, -11260, 672
1.227972, -1630, 88, 1115, -358, -11260, 672
1.228584, -1630, 89, 1124, -336, -11270, 661
1.229196, -1618, 83, 1133, -336, -11270, 661
1.229810, -1624, 85, 1132, -314, -11281, 644
1.230423, -1626, 86, 1142, -293, -11294, 619
1.231039, -1624, 82, 1142, -293, -11294, 619
1.231649, -1627, 79, 1145, -267, -11304, 596
1.232263, -1630, 92, 1151, -267, -11304, 596
1.232987, -1634, 86, 1164, -236, -11308, 571
1.233713, -1650, 84, 1153, -202, -11309, 542
1.234328, -1659, 86, 1156, -202, -11309, 542
1.234966, -1655, 95, 1154, -171, -11310, 520
1.235578, -1662, 92, 1152, -142, -11315, 505
1.236189, -1660, 94, 1161, -142, -11315, 505
1.236800, -1678, 95, 1170, -114, -11322, 492
1.237523, -1688, 93, 1178, -92, -11327, 481
1.238135, -1693, 95, 1178, -92, -11327, 481
1.238745, -1696, 94, 1182, -76, -11330, 476
1.239359, -1702, 91, 1192, -76, -11330, 476
1.239972, -1709, 98, 1203, -65, -11334, 476
1.240586, -1721, 91, 1201, -56, -11340, 478
1.241201, -1718, 94, 1203, -56, -11340, 478
1.241814, -1731, 93, 1214, -42, -11352, 489
1.242431, -1732, 98, 1216, -42, -11352, 489
1.243044, -1730, 90, 1222, -24, -11368, 508
1.243657, -1745, 95, 1228, -6, -11390, 528
1.244272, -1751, 98, 1233, -6, -11390, 528
1.244885, -1759, 101, 1241, 13, -11414, 553
1.245498, -1757, 96, 1248, 13, -11414, 553
1.246111, -1764, 97, 1256, 33, -11445, 585
1.246724, -1770, 95, 1258, 58, -11483, 618
1.247338, -1774, 101, 1257, 58, -11483, 618
1.247953, -1778, 100, 1261, 89, -11522, 651
1.248684, -1775, 99, 1267, 119, -11567, 688
1.249412, -1778, 96, 1263, 119, -11567, 688
1.250165, -1767, 105, 1273, 146, -11615, 731
1.250924, -1768, 93, 1283, 178, -11668, 779
1.251717, -1759, 93, 1282, 214, -11716, 832
1.252447, -1754, 86, 1291, 214, -11716, 832
1.253060, -1753, 84, 1289, 247, -11752, 886
1.253672, -1741, 84, 1285, 247, -11752, 886
1.254286, -1729, 91, 1286, 284, -11785, 937
1.254898, -1722, 82, 1283, 324, -11818, 986
1.255738, -1710, 79, 1276, 360, -11843, 1041
1.256350, -1694, 78, 1279, 360, -11843, 1041
1.256961, -1686, 73, 1275, 393, -11858, 1094
1.257572, -1672, 77, 1280, 393, -11858, 1094
1.258183, -1655, 71, 1274, 425, -11867, 1141
1.258793, -1644, 72, 1273, 455, -11868, 1191
1.259539, -1636, 74, 1275, 455, -11868, 1191
1.260152, -1625, 71, 1268, 480, -11867, 1244
1.260764, -1616, 68, 1263, 480, -11867, 1244
1.261377, -1593, 73, 1262, 496, -11863, 1295
1.261989, -1580, 74, 1258, 512, -11855, 1340
1.262602, -1575, 78, 1259, 512, -11855, 1340
1.263216, -1569, 89, 1261, 529, -11843, 1378
1.263827, -1554, 90, 1256, 529, -11843, 1378
1.264438, -1546, 94, 1252, 538, -11828, 1411
1.265049, -1541, 97, 1245, 542, -11809, 1439
1.265660, -1537, 106, 1244, 542, -11809, 1439
1.266270, -1537, 110, 1240, 547, -11791, 1460
1.266881, -1536, 120, 1234, 555, -11774, 1477
1.267495, -1548, 124, 1227, 555, -11774, 1477
1.268107, -1544, 126, 1227, 559, -11759, 1490
1.268720, -1540, 129, 1214, 559, -11759, 1490
1.269332, -1544, 131, 1216, 560, -11747, 1502
1.269944, -1549, 124, 1211, 566, -11737, 1514
1.270558, -1540, 132, 1214, 566, -11737, 1514
1.271171, -1545, 134, 1207, 570, -11729, 1523
1.271784, -1542, 131, 1199, 570, -11729, 1523
1.272398, -1545, 126, 1205, 573, -11718, 1533
1.273015, -1553, 130, 1203, 574, -11708, 1545
1.273626, -1548, 129, 1194, 574, -11708, 1545
1.274240, -1558, 121, 1194, 575, -11699, 1556
1.274852, -1563, 129, 1189, 575, -11699, 1556
1.275464, -1567, 129, 1192, 578, -11684, 1569
1.276078, -1572, 127, 1182, 578, -11662, 1587
1.276690, -1571, 135, 1169, 578, -11662, 1587
1.277303, -1578, 132, 1176, 575, -11641, 1610
1.277916, -1579, 132, 1167, 575, -11641, 1610
1.278528, -1575, 136, 1170, 571, -11620, 1638
1.279142, -1571, 133, 1169, 562, -11596, 1671
1.279753, -1575, 145, 1165, 562, -11596, 1671
1.280366, -1562, 145, 1173, 544, -11570, 1706
1.280978, -1565, 149, 1166, 544, -11570, 1706
1.281591, -1556, 155, 1173, 523, -11539, 1741
1.282204, -1551, 154, 1173, 500, -11509, 1774
1.282816, -1543, 151, 1172, 500, -11509, 1774
1.283611, -1522, 154, 1166, 472, -11482, 1807
1.284371, -1508, 155, 1168, 439, -11458, 1841
1.284983, -1500, 160, 1172, 439, -11458, 1841
1.285596, -1485, 159, 1175, 406, -11430, 1873
1.286208, -1462, 164, 1182, 373, -11401, 1901
1.286821, -1448, 159, 1181, 373, -11401, 1901
1.287436, -1427, 157, 1184, 342, -11376, 1926
1.288051, -1416, 168, 1182, 342, -11376, 1926
1.288663, -1395, 164, 1182, 312, -11356, 1945
1.289276, -1382, 165, 1188, 280, -11336, 1957
1.289889, -1365, 170, 1186, 280, -11336, 1957
1.290706, -1342, 168, 1187, 247, -11315, 1961
1.291466, -1322, 176, 1193, 218, -11297, 1955
1.292080, -1314, 175, 1190, 218, -11297, 1955
1.292693, -1307, 181, 1200, 189, -11285, 1938
1.293305, -1300, 176, 1202, 159, -11278, 1911
1.293921, -1296, 191, 1196, 159, -11278, 1911
1.294533, -1283, 192, 1202, 133, -11271, 1881
1.295147, -1277, 195, 1196, 133, -11271, 1881
1.295760, -1281, 201, 1195, 108, -11270, 1847
1.296534, -1276, 203, 1202, 79, -11274, 1807
1.297549, -1272, 207, 1212, 49, -11277, 1767
1.298308, -1272, 216, 1217, 17, -11283, 1730
1.299150, -1276, 209, 1232, 17, -11283, 1730
1.299937, -1268, 209, 1236, -22, -11290, 1697
1.300678, -1263, 205, 1239, -60, -11291, 1664
1.301407, -1257, 205, 1258, -93, -11285, 1635
1.302024, -1255, 209, 1269, -93, -11285, 1635
1.302638, -1249, 201, 1275, -127, -11274, 1612
1.303375, -1246, 200, 1288, -162, -11260, 1592
1.303990, -1244, 201, 1300, -162, -11260, 1592
1.304602, -1240, 197, 1300, -196, -11240, 1571
1.305216, -1245, 195, 1309, -196, -11240, 1571
1.305829, -1238, 198, 1320, -227, -11211, 1547
1.306443, -1233, 196, 1324, -254, -11170, 1522
1.307058, -1241, 194, 1322, -254, -11170, 1522
1.307669, -1242, 195, 1328, -277, -11124, 1496
1.308282, -1253, 194, 1331, -277, -11124, 1496
1.308895, -1248, 194, 1324, -297, -11074, 1468
1.309508, -1239, 192, 1325, -320, -11021, 1439
1.310121, -1242, 201, 1322, -320, -11021, 1439
1.310732, -1240, 198, 1322, -348, -10967, 1411
1.311346, -1242, 196, 1316, -348, -10967, 1411
1.311957, -1236, 199, 1323, -376, -10911, 1388
1.312570, -1233, 196, 1315, -404, -10852, 1370
1.313183, -1234, 199, 1315, -404, -10852, 1370
1.313796, -1221, 197, 1325, -435, -10795, 1349
1.314409, -1216, 196, 1327, -435, -10795, 1349
1.315024, -1210, 204, 1330, -470, -10741, 1329
1.315638, -1203, 200, 1338, -505, -10689, 1312
1.316250, -1195, 204, 1343, -505, -10689, 1312
1.316864, -1184, 205, 1345, -543, -10638, 1290
1.317477, -1179, 209, 1362, -543, -10638, 1290
1.318090, -1164, 205, 1380, -587, -10591, 1271
1.318703, -1163, 208, 1385, -629, -10545, 1260
1.319316, -1154, 206, 1397, -629, -10545, 1260
1.319931, -1142, 207, 1410, -666, -10504, 1248
1.320859, -1144, 209, 1430, -702, -10466, 1233
1.321619, -1124, 213, 1443, -736, -10430, 1217
1.322400, -1121, 211, 1458, -736, -10430, 1217
1.323151, -1114, 209, 1474, -766, -10395, 1205
1.323899, -1110, 217, 1489, -791, -10356, 1197
1.324513, -1107, 221, 1493, -791, -10356, 1197
1.325127, -1099, 221, 1504, -809, -10316, 1190
1.325740, -1086, 216, 1509, -825, -10277, 1181
1.326354, -1083, 218, 1514, -825, -10277, 1181
1.326969, -1078, 222, 1515, -834, -10241, 1176
1.327580, -1072, 224, 1528, -834, -10241, 1176
1.328194, -1067, 227, 1533, -837, -10202, 1174
1.328807, -1061, 222, 1534, -840, -10163, 1168
1.329420, -1052, 223, 1539, -840, -10163, 1168
1.330034, -1055, 228, 1538, -845, -10124, 1163
1.330651, -1052, 226, 1540, -845, -10124, 1163
1.331501, -1053, 223, 1550, -849, -10084, 1158
1.332112, -1047, 228, 1548, -852, -10045, 1150
1.332724, -1051, 222, 1557, -852, -10045, 1150
1.333335, -1045, 226, 1561, -854, -10009, 1139
1.333946, -1049, 224, 1570, -856, -9977, 1128
1.334558, -1043, 215, 1565, -856, -9977, 1128
1.335302, -1048, 216, 1576, -856, -9948, 1117
1.336062, -1049, 214, 1584, -856, -9920, 1110
1.336676, -1057, 217, 1586, -856, -9920, 1110
1.337287, -1056, 214, 1594, -858, -9893, 1101
1.337901, -1060, 206, 1592, -856, -9864, 1088
1.338514, -1058, 205, 1594, -856, -9864, 1088
1.339126, -1066, 205, 1594, -850, -9836, 1079
1.339739, -1075, 205, 1602, -850, -9836, 1079
1.340877, -1089, 196, 1609, -841, -9769, 1079
1.341637, -1101, 192, 1621, -841, -9769, 1079
1.342397, -1102, 193, 1637, -830, -9736, 1085
1.343020, -1108, 186, 1644, -823, -9706, 1096
1.343745, -1108, 183, 1652, -823, -9706, 1096
1.344357, -1110, 186, 1664, -816, -9678, 1107
1.344973, -1118, 174, 1678, -808, -9650, 1119
1.345584, -1117, 176, 1688, -808, -9650, 1119
1.346198, -1119, 171, 1704, -799, -9618, 1130
1.346811, -1118, 168, 1711, -799, -9618, 1130
1.347424, -1118, 172, 1717, -786, -9591, 1142
1.348225, -1122, 160, 1738, -768, -9572, 1159
1.348985, -1120, 156, 1741, -752, -9556, 1180
1.349745, -1121, 160, 1752, -752, -9556, 1180
1.350358, -1117, 157, 1760, -733, -9537, 1203
1.351090, -1111, 151, 1764, -710, -9519, 1226
1.351704, -1108, 147, 1776, -710, -9519, 1226
1.352318, -1094, 154, 1778, -681, -9506, 1253
1.352931, -1095, 151, 1780, -681, -9506, 1253
1.353545, -1092, 147, 1786, -652, -9495, 1285
1.354157, -1082, 145, 1788, -626, -9487, 1321
1.354772, -1079, 143, 1793, -626, -9487, 1321
1.355384, -1068, 147, 1796, -596, -9483, 1353
1.355998, -1063, 149, 1800, -596, -9483, 1353
1.356611, -1065, 140, 1801, -561, -9480, 1383
1.357223, -1061, 134, 1801, -526, -9475, 1412
1.357836, -1059, 138, 1806, -526, -9475, 1412
1.358450, -1057, 125, 1808, -493, -9472, 1437
1.359062, -1063, 130, 1811, -493, -9472, 1437
1.359674, -1065, 119, 1818, -460, -9469, 1462
1.360284, -1069, 121, 1820, -431, -9467, 1487
1.360898, -1068, 114, 1808, -431, -9467, 1487
1.361510, -1073, 115, 1820, -396, -9465, 1512
1.362119, -1076, 116, 1820, -396, -9465, 1512
1.362731, -1086, 106, 1808, -354, -9461, 1539
1.363343, -1058, 104, 1784, -315, -9461, 1560
1.363956, -1087, 134, 1806, -315, -9461, 1560
1.364566, -1101, 135, 1826, -279, -9467, 1571
1.365178, -1114, 123, 1810, -279, -9467, 1571
1.365790, -1131, 122, 1805, -244, -9465, 1581
1.366400, -1136, 119, 1814, -209, -9443, 1592
1.367229, -1136, 122, 1811, -181, -9426, 1607
1.367989, -1131, 116, 1826, -181, -9426, 1607
1.368620, -1132, 122, 1829, -161, -9431, 1630
1.369234, -1139, 114, 1832, -161, -9431, 1630
1.369847, -1146, 116, 1832, -141, -9434, 1657
1.370461, -1145, 116, 1834, -115, -9429, 1676
1.371075, -1144, 113, 1836, -115, -9429, 1676
1.371687, -1143, 117, 1823, -87, -9431, 1694
1.372301, -1145, 112, 1828, -58, -9436, 1716
1.372914, -1144, 118, 1830, -58, -9436, 1716
1.373527, -1148, 126, 1825, -24, -9437, 1737
1.374141, -1146, 127, 1818, -24, -9437, 1737
1.374753, -1149, 118, 1815, 4, -9435, 1758
1.375371, -1156, 137, 1807, 29, -9434, 1782
1.375981, -1150, 132, 1794, 29, -9434, 1782
1.376595, -1154, 135, 1784, 57, -9434, 1807
1.377207, -1161, 142, 1781, 57, -9434, 1807
1.377821, -1155, 143, 1773, 83, -9438, 1836
1.378435, -1156, 151, 1765, 107, -9447, 1867
1.379048, -1158, 147, 1759, 107, -9447, 1867
1.379660, -1157, 153, 1746, 128, -9462, 1895
1.380275, -1161, 155, 1753, 128, -9462, 1895
1.380888, -1158, 156, 1751, 144, -9486, 1922
1.381501, -1156, 158, 1739, 156, -9514, 1944
1.382113, -1157, 157, 1738, 156, -9514, 1944
1.382727, -1150, 160, 1732, 164, -9536, 1965
1.383340, -1143, 163, 1732, 164, -9536, 1965
1.383953, -1140, 165, 1734, 171, -9557, 1992
1.384566, -1127, 165, 1733, 177, -9576, 2023
1.385179, -1115, 173, 1727, 177, -9576, 2023
1.385793, -1110, 175, 1720, 183, -9586, 2058
1.386405, -1108, 166, 1717, 183, -9586, 2058
1.387020, -1098, 168, 1727, 189, -9586, 2095
1.387631, -1089, 170, 1722, 189, -9583, 2129
1.388245, -1093, 166, 1725, 189, -9583, 2129
1.388858, -1067, 169, 1724, 185, -9571, 2159
1.389472, -1069, 166, 1722, 185, -9571, 2159
1.390085, -1051, 160, 1722, 183, -9553, 2189
1.390698, -1033, 158, 1716, 184, -9530, 2221
1.391311, -1006, 150, 1714, 184, -9530, 2221
1.391924, -1001, 155, 1700, 184, -9499, 2250
1.392648, -975, 156, 1688, 185, -9460, 2274
1.393262, -962, 157, 1692, 185, -9460, 2274
1.393874, -930, 160, 1686, 187, -9420, 2291
1.394488, -920, 160, 1679, 187, -9420, 2291
1.395099, -899, 168, 1676, 184, -9383, 2298
1.395713, -877, 163, 1681, 178, -9342, 2299
1.396326, -867, 168, 1682, 178, -9342, 2299
1.396939, -839, 173, 1674, 170, -9295, 2290
1.397554, -822, 173, 1670, 170, -9295, 2290
1.398167, -805, 167, 1674, 156, -9245, 2271
1.398780, -800, 170, 1663, 138, -9191, 2249
1.399397, -769, 174, 1657, 138, -9191, 2249
1.400169, -756, 184, 1656, 120, -9136, 2216
1.400786, -748, 184, 1650, 105, -9082, 2170
1.401398, -743, 185, 1652, 105, -9082, 2170
1.402011, -730, 194, 1654, 89, -9028, 2120
1.402624, -731, 201, 1654, 89, -9028, 2120
1.403238, -727, 203, 1651, 67, -8974, 2064
1.403850, -724, 207, 1651, 41, -8922, 2001
1.404464, -727, 206, 1657, 41, -8922, 2001
1.405076, -718, 212, 1656, 14, -8871, 1939
1.405801, -719, 219, 1655, -14, -8820, 1876
1.406525, -716, 224, 1651, -14, -8820, 1876
1.407142, -709, 220, 1662, -41, -8773, 1813
1.407756, -713, 226, 1658, -41, -8773, 1813
1.408369, -703, 231, 1659, -68, -8727, 1755
1.408982, -712, 232, 1661, -97, -8679, 1700
1.409595, -710, 241, 1661, -97, -8679, 1700
1.410208, -712, 236, 1671, -122, -8633, 1644
1.410821, -714, 233, 1665, -148, -8589, 1587
1.411433, -720, 231, 1674, -148, -8589, 1587
1.412047, -717, 230, 1678, -178, -8547, 1536
1.412659, -720, 230, 1681, -178, -8547, 1536
1.413273, -727, 232, 1681, -203, -8506, 1489
1.413885, -733, 230, 1682, -227, -8465, 1443
1.414500, -741, 228, 1686, -227, -8465, 1443
1.415112, -740, 225, 1686, -256, -8425, 1399
1.415725, -743, 230, 1691, -256, -8425, 1399
1.416337, -749, 229, 1690, -284, -8385, 1360
1.416953, -751, 231, 1683, -309, -8344, 1327
1.417907, -756, 229, 1697, -334, -8305, 1301
1.418669, -757, 227, 1693, -334, -8305, 1301
1.419427, -762, 235, 1700, -366, -8263, 1282
1.420188, -762, 236, 1709, -396, -8218, 1269
1.420947, -752, 239, 1707, -422, -8175, 1258
1.421561, -754, 235, 1717, -422, -8175, 1258
1.422283, -750, 226, 1723, -451, -8134, 1251
1.423008, -743, 231, 1737, -483, -8095, 1248
1.423759, -737, 232, 1744, -483, -8095, 1248
1.424372, -738, 229, 1751, -512, -8056, 1244
1.425096, -738, 222, 1756, -541, -8013, 1241
1.425819, -721, 220, 1761, -541, -8013, 1241
1.426431, -717, 221, 1769, -568, -7974, 1241
1.427282, -722, 211, 1776, -588, -7943, 1243
1.428042, -716, 204, 1788, -602, -7912, 1244
1.428802, -717, 203, 1791, -602, -7912, 1244
1.429415, -714, 200, 1790, -616, -7879, 1247
1.430138, -717, 193, 1805, -628, -7847, 1253
1.430751, -716, 195, 1805, -628, -7847, 1253
1.431364, -708, 199, 1809, -638, -7820, 1262
1.432096, -708, 201, 1810, -644, -7793, 1273
1.432856, -707, 208, 1809, -644, -7793, 1273
1.433617, -707, 207, 1826, -647, -7765, 1285
1.434377, -708, 206, 1821, -648, -7738, 1293
1.435137, -712, 222, 1836, -650, -7715, 1299
1.435897, -713, 221, 1838, -650, -7715, 1299
1.436658, -718, 228, 1849, -656, -7693, 1306
1.437417, -722, 229, 1850, -664, -7674, 1312
1.438178, -734, 230, 1862, -672, -7661, 1314
1.439191, -737, 229, 1872, -678, -7651, 1317
1.439951, -731, 231, 1889, -678, -7651, 1317
1.440564, -742, 222, 1898, -680, -7645, 1325
1.441287, -735, 219, 1906, -680, -7645, 1334
1.442009, -735, 224, 1918, -680, -7645, 1334
1.442623, -726, 218, 1926, -679, -7649, 1343
1.443235, -725, 208, 1928, -675, -7659, 1356
1.443847, -719, 206, 1944, -675, -7659, 1356
1.444459, -717, 206, 1948, -664, -7669, 1373
1.445071, -708, 200, 1959, -664, -7669, 1373
1.445792, -701, 196, 1968, -648, -7677, 1392
1.446404, -687, 194, 1970, -624, -7684, 1408
1.447130, -685, 191, 1978, -624, -7684, 1408
1.447739, -678, 180, 1985, -592, -7690, 1417
1.448350, -668, 182, 1989, -561, -7693, 1423
1.449073, -669, 172, 1986, -561, -7693, 1423
1.449833, -660, 174, 1989, -530, -7694, 1428
1.450444, -659, 170, 1992, -496, -7684, 1430
1.451167, -651, 172, 1993, -496, -7684, 1430
1.451890, -652, 171, 1991, -462, -7668, 1428
1.452503, -646, 160, 1995, -428, -7654, 1424
1.453226, -642, 168, 2000, -428, -7654, 1424
1.453839, -645, 164, 2001, -397, -7643, 1417
1.454452, -634, 168, 2004, -374, -7627, 1405
1.455175, -633, 157, 1999, -374, -7627, 1405
1.455915, -644, 162, 2007, -350, -7609, 1390
1.456682, -643, 161, 2011, -327, -7598, 1373
1.457435, -637, 157, 2015, -306, -7588, 1358
1.458195, -648, 155, 2019, -306, -7588, 1358
1.458955, -648, 160, 2035, -283, -7577, 1349
1.459568, -650, 159, 2034, -264, -7572, 1341
1.460289, -653, 159, 2033, -264, -7572, 1341
1.461010, -654, 158, 2039, -247, -7571, 1338
1.461622, -653, 160, 2043, -226, -7571, 1344
1.462342, -656, 172, 2056, -226, -7571, 1344
1.463074, -663, 173, 2046, -201, -7579, 1353
1.463809, -656, 171, 2048, -174, -7591, 1363
1.464420, -662, 179, 2049, -174, -7591, 1363
1.465031, -666, 188, 2044, -146, -7606, 1374
1.465648, -664, 185, 2042, -118, -7627, 1387
1.466259, -666, 186, 2031, -118, -7627, 1387
1.467064, -668, 195, 2035, -90, -7656, 1400
1.467824, -671, 193, 2025, -61, -7691, 1405
1.468584, -674, 195, 2026, -33, -7729, 1407
1.469344, -669, 193, 2022, -33, -7729, 1407
1.470104, -674, 186, 2018, -3, -7772, 1416
1.470865, -675, 192, 2004, 25, -7824, 1421
1.471477, -669, 182, 1999, 25, -7824, 1421
1.472089, -665, 188, 1997, 53, -7879, 1424
1.472700, -664, 183, 1980, 80, -7931, 1433
1.473311, -660, 186, 1979, 80, -7931, 1433
1.473922, -663, 179, 1976, 105, -7980, 1440
1.474534, -653, 180, 1963, 105, -7980, 1440
1.475259, -644, 177, 1962, 128, -8029, 1439
1.475980, -648, 176, 1956, 149, -8081, 1439
1.476622, -644, 173, 1952, 149, -8081, 1439
1.477234, -636, 166, 1950, 164, -8132, 1433
1.477844, -641, 168, 1947, 178, -8181, 1418
1.478456, -627, 165, 1939, 178, -8181, 1418
1.479226, -618, 165, 1928, 196, -8231, 1396
1.479839, -612, 163, 1932, 213, -8282, 1368
1.480452, -611, 162, 1923, 213, -8282, 1368
1.481254, -610, 159, 1914, 228, -8332, 1330
1.482014, -610, 164, 1911, 238, -8375, 1285
1.482627, -608, 160, 1906, 238, -8375, 1285
1.483240, -602, 159, 1901, 244, -8408, 1241
1.483852, -602, 148, 1893, 251, -8434, 1198
1.484466, -602, 151, 1888, 251, -8434, 1198
1.485308, -603, 148, 1874, 253, -8458, 1154
1.486068, -601, 160, 1868, 254, -8483, 1112
1.486828, -605, 160, 1862, 252, -8513, 1078
1.487441, -603, 160, 1859, 252, -8513, 1078
1.488164, -605, 166, 1851, 242, -8544, 1050
1.488777, -602, 168, 1854, 242, -8544, 1050
1.489389, -615, 164, 1876, 230, -8569, 1022
1.490122, -617, 165, 1875, 215, -8594, 993
1.490882, -629, 168, 1878, 191, -8615, 967
1.491642, -625, 175, 1885, 191, -8615, 967
1.492254, -634, 173, 1881, 167, -8630, 946
1.492977, -643, 170, 1893, 152, -8646, 929
1.493701, -643, 172, 1889, 152, -8646, 929
1.494313, -649, 174, 1891, 143, -8666, 916
1.495036, -647, 175, 1884, 133, -8690, 910
1.495757, -658, 178, 1862, 133, -8690, 910
1.496369, -666, 180, 1862, 117, -8714, 910
1.497217, -667, 173, 1892, 103, -8741, 912
1.497828, -662, 164, 1904, 103, -8741, 912
1.498457, -662, 159, 1923, 78, -8783, 916
1.499068, -663, 154, 1933, 41, -8838, 929
1.499680, -662, 150, 1949, 41, -8838, 929
1.500293, -669, 143, 1949, 16, -8877, 948
1.501018, -676, 142, 1952, 8, -8893, 967
1.501778, -668, 146, 1951, 8, -8893, 967
1.502398, -676, 139, 1959, 12, -8900, 981
1.503011, -672, 146, 1954, 12, -8900, 981
1.503805, -679, 137, 1944, 28, -8911, 993
1.504565, -690, 146, 1943, 54, -8931, 1004
1.505176, -691, 146, 1931, 83, -8959, 1009
1.505787, -695, 145, 1927, 83, -8959, 1009
1.506428, -714, 147, 1922, 114, -8997, 1005
1.507042, -721, 140, 1912, 114, -8997, 1005
1.507859, -736, 142, 1903, 140, -9042, 992
1.508619, -752, 144, 1900, 157, -9093, 973
1.509232, -754, 141, 1896, 162, -9153, 956
1.509846, -754, 147, 1898, 162, -9153, 956
1.510647, -758, 145, 1900, 155, -9227, 944
1.511258, -757, 141, 1909, 136, -9305, 941
1.511982, -752, 143, 1925, 136, -9305, 941
1.512704, -756, 134, 1926, 114, -9384, 944
1.513434, -755, 127, 1937, 91, -9464, 944
1.514047, -740, 128, 1949, 91, -9464, 944
1.514660, -742, 126, 1954, 67, -9545, 940
1.515273, -739, 115, 1970, 45, -9626, 930
1.515995, -738, 107, 1978, 45, -9626, 930
1.516728, -738, 104, 1987, 30, -9700, 913
1.517341, -741, 97, 1996, 29, -9766, 896
1.517953, -741, 92, 1999, 29, -9766, 896
1.518755, -739, 82, 1995, 41, -9826, 884
1.519516, -747, 78, 1996, 62, -9877, 871
1.520276, -744, 78, 1980, 84, -9922, 853
1.521036, -759, 78, 1958, 84, -9922, 853
1.521796, -766, 80, 1945, 111, -9968, 838
1.522408, -771, 77, 1928, 142, -10017, 826
1.523133, -779, 82, 1921, 142, -10017, 826
1.523854, -787, 87, 1907, 168, -10074, 808
1.524465, -800, 87, 1890, 182, -10141, 787
1.525076, -800, 88, 1888, 182, -10141, 787
1.525687, -816, 96, 1882, 185, -10218, 770
1.526297, -819, 103, 1873, 185, -10218, 770
1.526909, -826, 104, 1865, 179, -10306, 753
1.527636, -829, 112, 1855, 165, -10406, 737
1.528248, -845, 111, 1850, 165, -10406, 737
1.528971, -838, 118, 1845, 144, -10514, 720
1.529584, -847, 114, 1842, 122, -10633, 700
1.530196, -861, 123, 1847, 122, -10633, 700
1.530920, -864, 116, 1850, 99, -10766, 674
1.532706, -881, 117, 1848, 54, -11065, 601
1.533452, -882, 119, 1855, 36, -11224, 560
1.534212, -892, 118, 1858, 36, -11224, 560
1.534972, -901, 126, 1857, 24, -11385, 517
1.535732, -903, 119, 1869, 12, -11551, 477
1.536492, -905, 122, 1880, -1, -11720, 438
1.537105, -907, 112, 1891, -1, -11720, 438
1.537718, -902, 108, 1886, -16, -11886, 405
1.538519, -903, 98, 1909, -38, -12049, 373
1.539133, -894, 92, 1912, -38, -12049, 373
1.539856, -900, 83, 1924, -66, -12208, 336
1.540579, -884, 71, 1948, -91, -12365, 302
1.541192, -879, 63, 1962, -91, -12365, 302
1.541915, -873, 53, 1993, -115, -12516, 279
1.542638, -851, 36, 2020, -143, -12650, 264
1.543386, -827, 26, 2038, -143, -12650, 264
1.543998, -803, 21, 2055, -171, -12766, 257
1.544854, -764, 24, 2077, -184, -12861, 259
1.545614, -739, 24, 2082, -186, -12933, 259
1.546374, -707, 43, 2077, -186, -12933, 259
1.546987, -690, 54, 2069, -184, -12989, 245
1.547709, -678, 68, 2069, -170, -13040, 214
1.548430, -668, 80, 2052, -170, -13040, 214
1.549041, -652, 92, 2054, -145, -13092, 161
1.549762, -648, 107, 2044, -128, -13158, 86
1.550483, -655, 124, 2046, -128, -13158, 86
1.551097, -651, 115, 2045, -125, -13247, -6
1.551949, -647, 128, 2045, -131, -13367, -108
1.552709, -640, 126, 2061, -139, -13520, -216
1.553469, -621, 124, 2082, -139, -13520, -216
1.554082, -616, 128, 2092, -149, -13703, -322
1.554805, -611, 128, 2120, -164, -13909, -418
1.555527, -601, 129, 2146, -164, -13909, -418
1.556284, -592, 129, 2161, -181, -14127, -507
1.556897, -592, 129, 2179, -192, -14349, -596
1.557509, -587, 131, 2191, -192, -14349, -596
1.558128, -589, 126, 2227, -195, -14573, -691
1.558741, -577, 127, 2248, -195, -14573, -691
1.559551, -568, 117, 2302, -196, -14793, -780
1.560312, -567, 114, 2350, -195, -15000, -856
1.560930, -558, 108, 2371, -184, -15190, -927
1.561652, -553, 105, 2414, -184, -15190, -927
1.562375, -544, 97, 2441, -158, -15353, -991
1.562992, -546, 98, 2461, -113, -15479, -1047
1.563712, -541, 83, 2489, -113, -15479, -1047
1.564435, -530, 79, 2523, -49, -15565, -1097
1.565048, -527, 77, 2538, 35, -15617, -1140
1.565885, -521, 70, 2569, 129, -15635, -1173
1.566645, -507, 64, 2597, 129, -15635, -1173
1.567406, -497, 65, 2599, 228, -15626, -1193
1.568017, -495, 71, 2611, 338, -15597, -1206
1.568740, -490, 74, 2619, 338, -15597, -1206
1.569463, -478, 79, 2627, 457, -15544, -1212
1.570081, -476, 84, 2622, 573, -15467, -1209
1.570804, -463, 94, 2618, 573, -15467, -1209
1.571415, -455, 95, 2625, 678, -15376, -1195
1.572027, -452, 98, 2619, 780, -15280, -1170
1.572749, -437, 107, 2630, 780, -15280, -1170
1.573360, -427, 112, 2631, 878, -15183, -1140
1.573972, -431, 120, 2636, 878, -15183, -1140
1.574754, -406, 126, 2650, 968, -15086, -1102
1.575515, -397, 131, 2662, 1055, -14985, -1050
1.576275, -376, 142, 2672, 1141, -14880, -986
1.577034, -347, 148, 2674, 1230, -14771, -915
1.577795, -324, 156, 2667, 1230, -14771, -915
1.578555, -291, 171, 2664, 1332, -14654, -835
1.579315, -261, 177, 2646, 1451, -14524, -748
1.579929, -231, 180, 2631, 1451, -14524, -748
1.580651, -209, 186, 2621, 1579, -14381, -661
1.581373, -165, 190, 2605, 1712, -14233, -574
1.581986, -146, 190, 2583, 1712, -14233, -574
1.582708, -110, 196, 2563, 1848, -14082, -486
1.583430, -78, 205, 2530, 1981, -13928, -402
1.584152, -48, 206, 2507, 2107, -13773, -324
1.585396, 14, 217, 2449, 2223, -13624, -250
1.586156, 36, 227, 2427, 2331, -13482, -184
1.586916, 59, 248, 2400, 2331, -13482, -184
1.587677, 82, 259, 2376, 2429, -13350, -125
1.588289, 86, 270, 2363, 2511, -13234, -79
1.589010, 115, 281, 2350, 2511, -13234, -79
1.589621, 123, 294, 2347, 2580, -13136, -49
1.590232, 150, 300, 2340, 2638, -13056, -25
1.590843, 166, 305, 2342, 2638, -13056, -25
1.591566, 200, 318, 2344, 2689, -12982, 3
1.592178, 226, 316, 2353, 2689, -12982, 3
1.592998, 276, 325, 2363, 2737, -12900, 37
1.593758, 319, 329, 2369, 2786, -12804, 80
1.594518, 358, 333, 2358, 2844, -12692, 138
1.595132, 393, 337, 2355, 2844, -12692, 138
1.595855, 436, 339, 2340, 2914, -12561, 203
1.596578, 472, 339, 2324, 2993, -12418, 264
1.597191, 500, 344, 2316, 2993, -12418, 264
1.597916, 550, 340, 2301, 3076, -12263, 319
1.598638, 575, 341, 2279, 3155, -12093, 366
1.599366, 600, 359, 2239, 3227, -11909, 402
1.600093, 622, 377, 2206, 3227, -11909, 402
1.600853, 641, 392, 2166, 3292, -11712, 430
1.601613, 661, 414, 2120, 3351, -11500, 458
1.602224, 677, 427, 2093, 3351, -11500, 458
1.602835, 696, 433, 2067, 3402, -11274, 500
1.603640, 739, 446, 2022, 3441, -11031, 561
1.604252, 756, 452, 1993, 3441, -11031, 561
1.604973, 795, 467, 1956, 3462, -10779, 646
1.605693, 834, 477, 1919, 3471, -10528, 751
1.606305, 853, 476, 1897, 3471, -10528, 751
1.607033, 889, 481, 1866, 3472, -10275, 866
1.607756, 926, 482, 1836, 3466, -10023, 979
1.608369, 946, 490, 1822, 3466, -10023, 979
1.608981, 978, 496, 1791, 3456, -9780, 1090
1.609721, 1007, 499, 1771, 3446, -9548, 1197
1.610347, 1028, 498, 1755, 3446, -9548, 1197
1.610960, 1042, 512, 1734, 3433, -9319, 1294
1.611749, 1072, 523, 1694, 3413, -9095, 1388
1.612509, 1094, 538, 1654, 3391, -8883, 1479
1.613121, 1101, 549, 1642, 3391, -8883, 1479
1.613844, 1117, 572, 1620, 3364, -8688, 1564
1.614567, 1157, 589, 1573, 3327, -8503, 1644
1.615179, 1167, 600, 1562, 3327, -8503, 1644
1.615901, 1197, 608, 1536, 3280, -8318, 1729
1.616512, 1208, 619, 1517, 3280, -8318, 1729
1.617123, 1215, 642, 1508, 3225, -8134, 1821
1.617845, 1240, 654, 1485, 3161, -7953, 1912
1.618456, 1258, 664, 1466, 3161, -7953, 1912
1.619069, 1263, 678, 1454, 3089, -7774, 1998
1.619857, 1293, 680, 1416, 3019, -7601, 2087
1.620617, 1328, 683, 1396, 2954, -7438, 2182
1.621257, 1348, 681, 1389, 2954, -7438, 2182
1.621868, 1372, 672, 1374, 2893, -7282, 2276
1.622481, 1404, 663, 1351, 2893, -7282, 2276
1.623094, 1445, 649, 1330, 2835, -7135, 2366
1.623911, 1495, 633, 1285, 2780, -6992, 2446
1.624671, 1523, 630, 1284, 2730, -6848, 2511
1.625284, 1542, 623, 1273, 2730, -6848, 2511
1.625895, 1542, 619, 1261, 2674, -6697, 2560
1.626508, 1551, 604, 1247, 2674, -6697, 2560
1.627120, 1551, 609, 1233, 2612, -6533, 2592
1.627965, 1555, 607, 1232, 2558, -6353, 2607
1.628726, 1541, 594, 1230, 2506, -6170, 2604
1.629338, 1533, 586, 1246, 2506, -6170, 2604
1.629950, 1539, 588, 1248, 2435, -5987, 2592
1.630753, 1553, 586, 1257, 2346, -5791, 2577
1.631513, 1560, 574, 1266, 2346, -5791, 2577
1.632273, 1554, 565, 1277, 2253, -5580, 2559
1.633033, 1549, 561, 1286, 2169, -5342, 2535
1.633793, 1547, 543, 1292, 2087, -5069, 2496
1.634554, 1550, 525, 1302, 2087, -5069, 2496
1.635166, 1545, 510, 1303, 2002, -4777, 2435
1.635779, 1548, 503, 1292, 2002, -4777, 2435
1.636392, 1547, 492, 1281, 1925, -4483, 2368
1.637005, 1542, 481, 1286, 1866, -4188, 2304
1.637848, 1537, 461, 1280, 1818, -3886, 2233
1.638608, 1534, 451, 1271, 1818, -3886, 2233
1.639220, 1534, 443, 1266, 1767, -3572, 2154
1.639950, 1530, 433, 1252, 1713, -3245, 2069
1.640673, 1531, 438, 1247, 1713, -3245, 2069
1.641396, 1520, 433, 1245, 1656, -2909, 1974
1.642009, 1517, 435, 1237, 1584, -2567, 1864
1.642731, 1504, 425, 1220, 1584, -2567, 1864
1.643453, 1475, 431, 1221, 1488, -2220, 1739
1.644066, 1456, 415, 1223, 1371, -1864, 1601
1.644791, 1429, 398, 1238, 1371, -1864, 1601
1.645514, 1406, 385, 1258, 1227, -1502, 1453
1.646127, 1389, 376, 1258, 1061, -1146, 1299
1.646970, 1349, 378, 1266, 891, -795, 1147
1.647730, 1294, 357, 1304, 891, -795, 1147
1.648343, 1269, 361, 1338, 725, -446, 1004
1.648955, 1233, 362, 1369, 725, -446, 1004
1.649567, 1207, 354, 1421, 548, -101, 860
1.650323, 1187, 330, 1442, 352, 222, 712
1.651068, 1179, 320, 1456, 169, 513, 589
1.651790, 1171, 315, 1454, 169, 513, 589
1.652544, 1141, 295, 1468, 30, 789, 493
1.653195, 1108, 284, 1466, -75, 1076, 401
1.653809, 1060, 282, 1518, -75, 1076, 401
1.654571, 1006, 273, 1569, -186, 1387, 291
1.655187, 991, 269, 1591, -339, 1700, 157
1.655800, 977, 258, 1614, -339, 1700, 157
1.656598, 965, 232, 1625, -511, 1973, 24
1.657211, 966, 223, 1628, -658, 2200, -77
1.657823, 955, 220, 1640, -658, 2200, -77
1.658436, 956, 218, 1657, -775, 2423, -147
1.659162, 929, 209, 1679, -886, 2668, -213
1.659892, 892, 202, 1712, -886, 2668, -213
1.661169, 864, 191, 1779, -1148, 3178, -394
1.661925, 861, 187, 1821, -1148, 3178, -394
1.662680, 847, 171, 1825, -1282, 3401, -494
1.663441, 834, 172, 1834, -1395, 3594, -574
1.664200, 812, 175, 1880, -1474, 3777, -640
1.664960, 799, 167, 1887, -1474, 3777, -640
1.665720, 777, 170, 1906, -1531, 3958, -712
1.666481, 751, 172, 1928, -1584, 4126, -793
1.667095, 719, 174, 1946, -1584, 4126, -793
1.667816, 687, 178, 1973, -1624, 4287, -877
1.668539, 660, 173, 1999, -1652, 4442, -962
1.669155, 647, 165, 2007, -1652, 4442, -962
1.669767, 638, 163, 2015, -1679, 4575, -1042
1.670535, 615, 162, 1998, -1700, 4689, -1111
1.671147, 595, 165, 1997, -1700, 4689, -1111
1.671869, 552, 177, 2029, -1692, 4796, -1166
1.672592, 513, 176, 2067, -1661, 4898, -1217
1.673233, 496, 176, 2093, -1661, 4898, -1217
1.673845, 483, 180, 2116, -1647, 4980, -1277
1.674589, 483, 173, 2127, -1651, 5030, -1332
1.675221, 484, 170, 2131, -1651, 5030, -1332
1.675834, 486, 168, 2131, -1630, 5058, -1358
1.676616, 478, 187, 2153, -1570, 5080, -1363
1.677376, 468, 169, 2148, -1493, 5103, -1369
1.678137, 441, 169, 2156, -1493, 5103, -1369
1.678897, 420, 171, 2162, -1420, 5140, -1391
1.679657, 403, 172, 2179, -1358, 5188, -1425
1.680417, 407, 176, 2193, -1302, 5225, -1461
1.681035, 394, 172, 2185, -1302, 5225, -1461
1.681759, 398, 181, 2188, -1241, 5233, -1486
1.682372, 401, 175, 2183, -1241, 5233, -1486
1.682993, 395, 171, 2164, -1162, 5229, -1499
1.683714, 381, 162, 2157, -1070, 5239, -1501
1.684471, 370, 171, 2152, -987, 5261, -1507
1.685083, 366, 172, 2150, -987, 5261, -1507
1.685806, 353, 160, 2123, -915, 5289, -1531
1.686529, 347, 160, 2115, -843, 5316, -1565
1.687258, 327, 163, 2104, -843, 5316, -1565
1.688018, 322, 177, 2136, -767, 5336, -1596
1.688779, 315, 170, 2079, -695, 5350, -1629
1.689539, 297, 167, 2067, -624, 5357, -1665
1.690152, 305, 178, 2082, -624, 5357, -1665
1.690874, 299, 183, 2056, -548, 5359, -1695
1.691486, 290, 179, 2010, -548, 5359, -1695
1.692097, 270, 173, 1972, -480, 5362, -1722
1.692708, 262, 192, 1979, -420, 5378, -1754
1.693429, 231, 194, 1957, -420, 5378, -1754
1.694039, 215, 193, 1950, -361, 5408, -1791
1.694860, 197, 202, 1941, -330, 5429, -1831
1.695620, 185, 202, 1906, -327, 5432, -1867
1.696254, 193, 204, 1895, -327, 5432, -1867
1.696866, 200, 207, 1895, -325, 5425, -1883
1.697480, 226, 216, 1910, -325, 5425, -1883
1.698091, 220, 214, 1871, -310, 5407, -1881
1.698914, 227, 215, 1857, -296, 5387, -1877
1.699674, 236, 219, 1868, -295, 5378, -1883
1.700435, 238, 218, 1858, -295, 5378, -1883
1.701047, 255, 210, 1842, -316, 5371, -1904
1.701770, 278, 208, 1811, -351, 5349, -1932
1.702493, 283, 214, 1767, -351, 5349, -1932
1.703107, 272, 215, 1746, -367, 5333, -1959
1.703720, 245, 226, 1744, -365, 5350, -1990
1.704489, 218, 239, 1762, -365, 5350, -1990
1.705101, 204, 236, 1763, -394, 5386, -2037
1.705825, 188, 252, 1769, -470, 5409, -2093
1.706437, 180, 260, 1761, -470, 5409, -2093
1.707051, 185, 267, 1758, -555, 5396, -2133
1.707660, 180, 270, 1753, -555, 5396, -2133
1.708271, 183, 277, 1757, -614, 5348, -2144
1.708882, 193, 283, 1756, -656, 5295, -2137
1.709493, 185, 286, 1751, -656, 5295, -2137
1.710110, 173, 290, 1748, -697, 5254, -2131
1.710721, 173, 296, 1750, -697, 5254, -2131
1.711335, 169, 286, 1740, -738, 5226, -2134
1.711947, 160, 298, 1737, -780, 5206, -2146
1.712669, 147, 301, 1730, -780, 5206, -2146
1.713392, 151, 313, 1747, -823, 5181, -2163
1.714003, 148, 310, 1741, -863, 5143, -2179
1.715131, 148, 310, 1709, -899, 5092, -2195
1.715891, 141, 320, 1716, -934, 5035, -2205
1.716503, 129, 322, 1729, -934, 5035, -2205
1.717118, 123, 333, 1741, -967, 4985, -2211
1.717726, 105, 335, 1741, -967, 4985, -2211
1.718338, 104, 337, 1742, -1013, 4937, -2225
1.718965, 98, 335, 1754, -1074, 4891, -2242
1.719577, 90, 344, 1752, -1074, 4891, -2242
1.720189, 84, 345, 1754, -1132, 4850, -2245
1.720799, 78, 352, 1766, -1132, 4850, -2245
1.721411, 72, 353, 1775, -1179, 4806, -2233
1.722021, 63, 353, 1777, -1217, 4768, -2219
1.722635, 42, 352, 1781, -1217, 4768, -2219
1.723248, 39, 350, 1805, -1255, 4740, -2203
1.723861, 38, 355, 1822, -1255, 4740, -2203
1.724475, 43, 357, 1821, -1294, 4708, -2183
1.725087, 56, 353, 1818, -1323, 4662, -2160
1.725700, 58, 350, 1823, -1323, 4662, -2160
1.726533, 45, 345, 1817, -1335, 4603, -2129
1.727294, 38, 342, 1820, -1334, 4552, -2095
1.727908, 29, 343, 1839, -1334, 4552, -2095
1.728632, 21, 351, 1855, -1338, 4517, -2070
1.729246, 22, 346, 1865, -1358, 4482, -2054
1.729861, 32, 344, 1868, -1358, 4482, -2054
1.730473, 30, 335, 1857, -1377, 4428, -2037
1.731088, 20, 331, 1857, -1373, 4360, -2007
1.731700, 12, 327, 1862, -1373, 4360, -2007
1.732313, 2, 324, 1868, -1357, 4302, -1970
1.732928, -17, 324, 1890, -1357, 4302, -1970
1.733651, -18, 328, 1889, -1353, 4265, -1939
1.734389, -21, 322, 1897, -1363, 4224, -1913
1.735149, -27, 329, 1870, -1364, 4161, -1878
1.735761, -38, 335, 1881, -1364, 4161, -1878
1.736485, -66, 330, 1892, -1347, 4096, -1833
1.737208, -85, 335, 1903, -1337, 4044, -1790
1.737825, -91, 339, 1918, -1337, 4044, -1790
1.738547, -72, 344, 1954, -1356, 3991, -1755
1.739271, -59, 344, 1936, -1383, 3910, -1716
1.739882, -70, 334, 1911, -1383, 3910, -1716
1.740723, -109, 335, 1915, -1383, 3810, -1662
1.741483, -138, 336, 1959, -1357, 3728, -1611
1.742244, -151, 328, 1997, -1359, 3659, -1588
1.742856, -146, 326, 2022, -1359, 3659, -1588
1.743578, -145, 314, 2021, -1401, 3564, -1573
1.744300, -153, 303, 2012, -1421, 3445, -1535
1.744917, -173, 302, 2019, -1421, 3445, -1535
1.745639, -177, 295, 2052, -1391, 3334, -1481
1.746361, -193, 283, 2069, -1363, 3240, -1431
1.746980, -197, 288, 2079, -1363, 3240, -1431
1.747594, -206, 277, 2065, -1361, 3151, -1389
1.748325, -216, 265, 2069, -1352, 3065, -1350
1.749085, -227, 261, 2090, -1352, 3065, -1350
1.749696, -234, 260, 2097, -1333, 2982, -1313
1.750419, -240, 249, 2099, -1322, 2900, -1275
1.751142, -256, 241, 2098, -1322, 2900, -1275
1.751755, -267, 241, 2098, -1318, 2817, -1236
1.752478, -274, 237, 2109, -1306, 2737, -1199
1.753200, -291, 239, 2130, -1306, 2737, -1199
1.753813, -290, 236, 2135, -1294, 2660, -1164
1.754660, -308, 226, 2144, -1293, 2585, -1124
1.755420, -311, 228, 2160, -1294, 2516, -1083
1.756180, -315, 221, 2176, -1294, 2516, -1083
1.756792, -315, 219, 2190, -1292, 2456, -1042
1.757405, -331, 214, 2190, -1292, 2456, -1042
1.758018, -348, 215, 2211, -1295, 2405, -999
1.758630, -358, 215, 2224, -1299, 2363, -958
1.759474, -377, 204, 2245, -1294, 2331, -922
1.760087, -392, 201, 2253, -1294, 2331, -922
1.760699, -399, 200, 2257, -1282, 2298, -890
1.761312, -410, 193, 2275, -1282, 2298, -890
1.762035, -423, 192, 2295, -1263, 2255, -851
1.762768, -435, 188, 2308, -1229, 2198, -804
1.763528, -431, 186, 2316, -1187, 2132, -749
1.764288, -433, 187, 2328, -1187, 2132, -749
1.765049, -443, 186, 2329, -1145, 2062, -687
1.765662, -446, 183, 2331, -1095, 1991, -626
1.766385, -447, 186, 2339, -1095, 1991, -626
1.767109, -453, 180, 2343, -1039, 1920, -565
1.767721, -455, 181, 2343, -986, 1850, -508
1.768443, -459, 171, 2341, -986, 1850, -508
1.769166, -461, 172, 2342, -938, 1784, -455
1.769929, -466, 162, 2354, -893, 1722, -407
1.770543, -465, 158, 2347, -893, 1722, -407
1.771383, -467, 156, 2350, -850, 1658, -362
1.772143, -472, 156, 2357, -808, 1592, -318
1.772763, -473, 154, 2352, -765, 1528, -275
1.773377, -476, 154, 2358, -765, 1528, -275
1.774171, -469, 158, 2357, -721, 1468, -232
1.774813, -466, 160, 2358, -675, 1413, -189
1.775425, -469, 160, 2350, -675, 1413, -189
1.776198, -464, 159, 2349, -623, 1362, -144
1.776958, -463, 159, 2346, -571, 1312, -96
1.777718, -456, 166, 2333, -521, 1264, -49
1.778478, -458, 169, 2342, -521, 1264, -49
1.779238, -459, 171, 2330, -470, 1215, -5
1.779852, -453, 180, 2325, -418, 1163, 40
1.780465, -453, 184, 2329, -418, 1163, 40
1.781078, -451, 176, 2315, -366, 1109, 83
1.781690, -450, 189, 2316, -366, 1109, 83
1.782532, -443, 189, 2303, -314, 1053, 121
1.783293, -440, 183, 2304, -265, 999, 159
1.784053, -442, 185, 2304, -217, 945, 200
1.784665, -439, 184, 2309, -217, 945, 200
1.785281, -438, 184, 2302, -171, 889, 237
1.785893, -432, 186, 2300, -127, 833, 271
1.786507, -424, 185, 2297, -127, 833, 271
1.787347, -418, 190, 2294, -82, 774, 305
1.788107, -416, 184, 2291, -41, 711, 339
1.788721, -415, 188, 2301, -41, 711, 339
1.789448, -402, 191, 2283, -2, 648, 375
1.790241, -388, 196, 2277, 41, 585, 410
1.791148, -372, 202, 2268, 83, 522, 442
1.791908, -356, 207, 2254, 125, 455, 475
1.792668, -349, 206, 2242, 125, 455, 475
1.793428, -338, 209, 2233, 167, 384, 506
1.794188, -324, 213, 2219, 208, 313, 528
1.794802, -311, 209, 2214, 208, 313, 528
1.795524, -307, 218, 2202, 250, 241, 546
1.796246, -305, 217, 2195, 287, 168, 564
1.796859, -296, 215, 2181, 287, 168, 564
1.797471, -292, 217, 2177, 318, 96, 571
1.798242, -281, 219, 2167, 345, 25, 571
1.798856, -278, 223, 2157, 345, 25, 571
1.799579, -272, 228, 2145, 368, -41, 570
1.800193, -272, 225, 2146, 394, -108, 569
1.800807, -262, 223, 2133, 394, -108, 569
1.801537, -250, 225, 2126, 417, -174, 566
1.802297, -251, 226, 2117, 431, -236, 564
1.803057, -249, 228, 2111, 441, -299, 561
1.803670, -252, 231, 2103, 441, -299, 561
1.804282, -240, 233, 2095, 453, -361, 560
1.804893, -232, 225, 2093, 453, -361, 560
1.805503, -239, 228, 2082, 467, -419, 557
1.806114, -229, 227, 2077, 477, -477, 548
1.806724, -229, 226, 2071, 477, -477, 548
1.807337, -232, 226, 2062, 482, -531, 542
1.807951, -230, 223, 2061, 482, -531, 542
1.808565, -221, 222, 2051, 489, -582, 544
1.809180, -209, 226, 2049, 497, -636, 546
1.809793, -205, 221, 2045, 497, -636, 546
1.810406, -202, 217, 2038, 500, -689, 549
1.811020, -185, 223, 2034, 500, -689, 549
1.811634, -176, 227, 2032, 501, -733, 557
1.812246, -168, 228, 2016, 503, -773, 562
1.812860, -158, 232, 2015, 503, -773, 562
1.813472, -139, 234, 2003, 501, -809, 564
1.814087, -128, 236, 2002, 501, -809, 564
1.814698, -122, 246, 1990, 496, -843, 566
1.815313, -107, 256, 1982, 491, -876, 563
1.815926, -110, 252, 1983, 491, -876, 563
1.816538, -103, 257, 1982, 483, -909, 552
1.817151, -98, 258, 1973, 483, -909, 552
1.817763, -83, 257, 1969, 475, -941, 535
1.818377, -78, 261, 1969, 463, -972, 516
1.818992, -69, 263, 1966, 463, -972, 516
1.819600, -62, 262, 1968, 448, -1009, 494
1.820212, -59, 259, 1969, 448, -1009, 494
1.820822, -45, 266, 1968, 430, -1049, 470
1.821433, -47, 268, 1966, 414, -1088, 449
1.822155, -41, 273, 1968, 414, -1088, 449
1.822765, -34, 279, 1965, 401, -1127, 428
1.823380, -32, 275, 1964, 388, -1166, 400
1.823994, -35, 271, 1959, 388, -1166, 400
1.824608, -32, 284, 1959, 375, -1206, 370
1.825221, -40, 276, 1959, 375, -1206, 370
1.825834, -41, 276, 1963, 364, -1249, 339
1.826447, -47, 275, 1959, 353, -1298, 309
1.827174, -55, 278, 1963, 353, -1298, 309
1.827915, -56, 280, 1969, 343, -1350, 275
1.828658, -69, 275, 1973, 335, -1399, 244
1.829409, -68, 275, 1982, 328, -1447, 220
1.830169, -69, 274, 1987, 328, -1447, 220
1.831183, -80, 260, 1992, 320, -1496, 199
1.831943, -82, 262, 2006, 314, -1541, 182
1.832703, -82, 260, 1999, 307, -1579, 171
1.833463, -81, 253, 2004, 302, -1610, 163
1.834076, -76, 254, 2006, 302, -1610, 163
1.834800, -73, 253, 2015, 300, -1634, 159
1.835522, -62, 244, 2010, 301, -1652, 156
1.836136, -67, 245, 2009, 301, -1652, 156
1.836858, -64, 247, 2012, 303, -1668, 153
1.837581, -62, 244, 2006, 308, -1678, 148
1.838321, -64, 239, 2005, 308, -1678, 148
1.839046, -55, 237, 2002, 311, -1682, 140
1.839798, -55, 243, 2010, 310, -1685, 133
1.840558, -55, 243, 2007, 307, -1687, 130
1.841193, -52, 245, 2004, 307, -1687, 130
1.842085, -47, 249, 2009, 305, -1688, 129
1.842839, -49, 252, 2008, 303, -1684, 125
1.843599, -47, 255, 2007, 297, -1681, 119
1.844360, -40, 259, 2012, 297, -1681, 119
1.845119, -36, 256, 2011, 291, -1684, 116
1.845879, -41, 263, 2022, 287, -1687, 116
1.846640, -33, 257, 2020, 282, -1689, 111
1.847400, -28, 259, 2032, 282, -1689, 111
1.848012, -28, 261, 2035, 276, -1696, 107
1.848736, -24, 258, 2037, 275, -1704, 105
1.849459, -22, 265, 2030, 275, -1704, 105
1.850187, -24, 265, 2038, 278, -1710, 100
1.850955, -21, 259, 2038, 282, -1715, 98
1.851707, -18, 259, 2029, 287, -1720, 103
1.852468, -20, 263, 2030, 287, -1720, 103
1.853081, -10, 260, 2029, 292, -1723, 102
1.853695, -12, 256, 2030, 292, -1723, 102
1.854495, -12, 259, 2032, 295, -1727, 98
1.855108, -9, 258, 2023, 298, -1729, 96
1.855720, -4, 256, 2026, 298, -1729, 96
1.856522, -8, 256, 2023, 301, -1725, 96
1.857282, -9, 255, 2020, 300, -1719, 94
1.858042, -3, 252, 2018, 298, -1713, 91
1.858802, -11, 268, 2015, 301, -1706, 89
1.859562, -5, 265, 2016, 301, -1706, 89
1.860323, 3, 261, 2017, 298, -1695, 91
1.861083, 0, 269, 2017, 290, -1680, 93
1.861843, 2, 266, 2021, 283, -1665, 96
1.862603, 11, 266, 2022, 283, -1665, 96
1.863216, 7, 269, 2025, 274, -1653, 102
1.863937, 17, 269, 2024, 264, -1646, 110
1.864548, 12, 272, 2029, 264, -1646, 110
1.865159, 19, 266, 2028, 258, -1638, 120
1.865897, 23, 264, 2028, 257, -1624, 132
1.866508, 27, 265, 2036, 257, -1624, 132
1.867120, 32, 268, 2034, 257, -1610, 144
1.867731, 25, 264, 2031, 257, -1610, 144
1.868452, 35, 266, 2028, 255, -1602, 153
1.869063, 38, 265, 2030, 256, -1590, 163
1.869673, 40, 265, 2034, 256, -1590, 163
1.870458, 46, 265, 2029, 257, -1573, 173
1.871071, 54, 264, 2032, 258, -1556, 185
1.871795, 54, 265, 2020, 258, -1556, 185
1.872517, 63, 272, 2025, 262, -1542, 200
1.873130, 75, 264, 2024, 262, -1525, 211
1.873853, 73, 268, 2021, 262, -1525, 211
1.874576, 77, 271, 2021, 258, -1504, 217
1.875189, 85, 261, 2020, 257, -1485, 228
1.876033, 88, 265, 2015, 258, -1467, 239
1.876793, 96, 263, 2017, 258, -1467, 239
1.877404, 97, 270, 2014, 253, -1443, 248
1.878015, 102, 273, 2008, 253, -1443, 248
1.878626, 109, 271, 2003, 246, -1416, 258
1.879398, 111, 270, 2004, 237, -1388, 267
1.880122, 115, 276, 2003, 233, -1359, 267
1.880847, 120, 269, 2004, 233, -1359, 267
1.881607, 120, 277, 1996, 235, -1333, 268
1.882226, 117, 272, 1995, 232, -1310, 271
1.882840, 119, 266, 1999, 232, -1310, 271
1.883634, 120, 269, 1998, 220, -1286, 269
1.884273, 120, 272, 1987, 210, -1259, 265
1.884885, 123, 261, 1988, 210, -1259, 265
1.885661, 122, 258, 1992, 207, -1228, 267
1.886422, 119, 267, 1984, 199, -1193, 270
1.887182, 116, 268, 1979, 188, -1158, 267
1.887942, 110, 269, 1984, 188, -1158, 267
1.888703, 109, 265, 1980, 184, -1126, 263
1.889463, 104, 279, 1984, 178, -1097, 258
1.890222, 102, 264, 1978, 161, -1063, 253
1.890983, 100, 271, 1981, 161, -1063, 253
1.891743, 99, 274, 1978, 141, -1025, 254
1.892503, 100, 272, 1989, 126, -990, 259
1.893263, 104, 270, 1989, 110, -956, 265
1.894023, 106, 267, 1988, 110, -956, 265
1.894638, 112, 265, 1990, 94, -918, 271
1.895361, 122, 263, 1999, 80, -881, 274
1.895973, 117, 266, 2002, 80, -881, 274
1.896585, 126, 269, 2003, 62, -842, 276
1.897195, 129, 266, 1994, 62, -842, 276
1.897806, 118, 262, 1995, 44, -800, 282
1.898584, 123, 266, 1999, 32, -760, 286
1.899344, 126, 266, 2002, 24, -720, 285
1.899958, 133, 269, 1998, 24, -720, 285
1.900571, 129, 270, 1992, 12, -683, 286
1.901182, 134, 268, 1994, 12, -683, 286
1.901907, 124, 269, 1990, -2, -646, 289
1.902519, 133, 268, 1994, -14, -607, 294
1.903133, 129, 274, 2001, -14, -607, 294
1.903744, 132, 274, 1997, -26, -574, 302
1.904358, 128, 280, 2003, -26, -574, 302
1.905426, 129, 281, 2004, -58, -530, 307
1.906186, 130, 271, 2002, -58, -530, 307
1.906799, 127, 270, 2003, -74, -511, 317
1.907412, 126, 280, 2007, -74, -511, 317
1.908213, 135, 280, 2015, -85, -492, 327
1.908973, 135, 276, 2020, -92, -477, 332
1.909733, 133, 276, 2024, -101, -464, 335
1.910347, 139, 274, 2026, -101, -464, 335
1.910963, 141, 276, 2029, -114, -450, 341
1.911760, 150, 269, 2031, -122, -438, 344
1.912521, 158, 268, 2032, -122, -428, 346
1.913131, 168, 272, 2031, -122, -428, 346
1.913742, 165, 271, 2044, -122, -418, 350
1.914353, 164, 276, 2036, -122, -418, 350
1.914977, 178, 269, 2033, -126, -403, 353
1.915590, 179, 268, 2040, -129, -387, 358
1.916321, 183, 274, 2040, -129, -387, 358
1.917589, 191, 267, 2041, -129, -350, 359
1.918349, 191, 269, 2035, -129, -350, 359
1.919109, 199, 268, 2036, -125, -328, 355
1.919870, 193, 261, 2032, -123, -309, 346
1.920629, 185, 266, 2029, -122, -290, 334
1.921246, 183, 266, 2025, -122, -290, 334
1.921970, 173, 268, 2027, -118, -270, 321
1.922693, 173, 265, 2029, -115, -254, 305
1.923306, 170, 267, 2031, -115, -254, 305
1.924030, 152, 270, 2019, -114, -239, 294
1.924753, 150, 273, 2028, -117, -225, 288
1.925373, 140, 267, 2029, -117, -225, 288
1.926204, 137, 264, 2039, -116, -211, 282
1.926964, 133, 269, 2038, -111, -197, 276
1.927724, 131, 258, 2037, -109, -180, 276
1.928484, 122, 263, 2045, -109, -180, 276
1.929244, 130, 258, 2045, -110, -164, 279
1.930093, 131, 254, 2041, -108, -155, 281
1.930830, 128, 259, 2043, -100, -145, 286
1.931569, 129, 255, 2037, -100, -145, 286
1.932366, 141, 250, 2045, -93, -132, 295
1.933121, 140, 250, 2048, -89, -120, 305
1.933852, 149, 251, 2040, -84, -108, 313
1.934578, 156, 245, 2044, -84, -108, 313
1.935194, 153, 252, 2046, -75, -92, 321
1.935807, 162, 250, 2047, -75, -92, 321
1.936421, 172, 252, 2042, -69, -74, 325
1.937034, 174, 243, 2037, -65, -52, 325
1.937655, 174, 247, 2032, -65, -52, 325
1.938267, 176, 245, 2028, -61, -30, 321
1.938880, 182, 243, 2026, -57, -6, 319
1.939494, 185, 244, 2027, -57, -6, 319
1.940106, 181, 241, 2022, -53, 20, 316
1.940720, 182, 245, 2018, -53, 20, 316
1.941332, 185, 245, 2018, -52, 47, 308
1.941947, 188, 249, 2006, -52, 72, 295
1.942559, 190, 245, 2008, -52, 72, 295
1.943172, 185, 253, 2004, -51, 94, 280
1.943784, 186, 253, 1999, -51, 94, 280
1.944397, 173, 247, 1991, -53, 119, 261
1.945009, 178, 250, 1986, -58, 146, 243
1.945623, 167, 255, 1991, -58, 146, 243
1.946235, 164, 261, 1979, -61, 169, 227
1.946848, 172, 257, 1980, -61, 169, 227
1.947462, 169, 249, 1991, -61, 187, 208
1.948076, 171, 258, 1977, -66, 205, 191
1.948690, 163, 250, 1982, -66, 205, 191
1.949302, 164, 260, 1977, -75, 224, 176
1.949916, 169, 258, 1976, -75, 224, 176
1.950529, 170, 264, 1976, -86, 240, 161
1.951142, 174, 264, 1977, -95, 253, 148
1.951755, 175, 267, 1979, -95, 253, 148
1.952368, 176, 268, 1974, -101, 264, 137
1.952981, 177, 260, 1966, -101, 264, 137
1.953594, 174, 263, 1972, -107, 282, 126
1.954207, 175, 262, 1972, -115, 299, 110
1.954819, 180, 263, 1960, -115, 299, 110
1.955433, 179, 256, 1962, -124, 311, 91
1.956045, 175, 259, 1957, -124, 311, 91
1.956658, 172, 264, 1959, -130, 323, 69
1.957271, 172, 256, 1957, -133, 336, 46
1.957883, 160, 256, 1948, -133, 336, 46
1.958499, 164, 259, 1950, -137, 344, 21
1.959112, 158, 255, 1950, -137, 344, 21
1.959723, 154, 258, 1951, -144, 347, -1
1.960336, 147, 257, 1947, -153, 350, -18
1.960948, 155, 250, 1945, -153, 350, -18
1.961561, 142, 257, 1948, -165, 353, -30
1.962283, 133, 253, 1946, -178, 354, -43
1.962897, 139, 254, 1952, -178, 354, -43
1.963705, 129, 261, 1949, -187, 354, -59
1.964318, 128, 254, 1953, -199, 357, -76
1.964931, 121, 254, 1950, -199, 357, -76
1.965545, 112, 250, 1958, -213, 358, -90
1.966157, 105, 254, 1953, -213, 358, -90
1.966771, 102, 252, 1952, -222, 360, -102
1.967382, 93, 254, 1960, -229, 362, -113
1.967996, 97, 258, 1960, -229, 362, -113
1.968607, 91, 245, 1957, -237, 366, -122
1.969220, 88, 252, 1960, -237, 366, -122
1.969832, 80, 253, 1957, -242, 372, -131
1.970445, 79, 248, 1963, -246, 380, -136
1.971060, 72, 254, 1965, -246, 380, -136
1.971671, 72, 245, 1965, -248, 389, -139
1.972284, 67, 251, 1970, -248, 389, -139
1.972897, 76, 252, 1973, -251, 396, -144
1.973508, 72, 262, 1972, -258, 401, -146
1.974120, 65, 254, 1975, -258, 401, -146
1.974732, 67, 248, 1965, -263, 403, -148
1.975345, 68, 250, 1969, -263, 403, -148
1.975958, 57, 248, 1966, -266, 410, -150
1.976570, 55, 249, 1953, -270, 419, -149
1.977184, 45, 240, 1969, -270, 419, -149
1.977796, 38, 240, 1966, -275, 419, -149
1.978655, 25, 243, 1964, -279, 413, -151
1.979415, 28, 245, 1963, -280, 409, -145
1.980032, 16, 235, 1967, -280, 409, -145
1.980645, 25, 236, 1961, -278, 406, -134
1.981259, 20, 234, 1962, -278, 406, -134
1.981871, 12, 238, 1969, -277, 405, -123
1.982484, 15, 242, 1964, -281, 406, -113
1.983096, 9, 235, 1962, -281, 406, -113
1.983710, 11, 243, 1959, -287, 407, -105
1.984321, 5, 244, 1962, -287, 407, -105
1.984934, 13, 246, 1958, -296, 409, -97
1.985548, 3, 238, 1955, -299, 416, -88
1.986160, 3, 233, 1955, -299, 416, -88
1.986773, 5, 235, 1958, -299, 422, -77
1.987385, 0, 236, 1950, -299, 422, -77
1.987998, -4, 232, 1958, -304, 418, -68
1.988611, -2, 225, 1955, -309, 407, -63
1.989223, -4, 225, 1960, -309, 407, -63
1.989835, -4, 227, 1959, -316, 400, -57
1.990448, -10, 222, 1965, -316, 400, -57
1.991065, -24, 219, 1971, -325, 397, -50
1.991831, -29, 227, 1966, -333, 396, -44
1.992591, -33, 222, 1969, -340, 391, -40
1.993206, -38, 222, 1979, -340, 391, -40
1.993822, -43, 231, 1977, -347, 386, -36
1.994435, -56, 232, 1976, -347, 386, -36
1.995160, -64, 229, 1984, -356, 380, -31
1.995772, -61, 229, 1981, -369, 373, -25
1.996385, -70, 233, 1986, -369, 373, -25
1.996998, -74, 241, 1983, -386, 364, -17
1.997610, -81, 238, 1995, -386, 364, -17
1.998224, -87, 243, 2001, -397, 349, -10
1.998836, -83, 244, 2000, -404, 326, 0
1.999450, -83, 236, 2006, -404, 326, 0
2.000063, -85, 239, 2002, -415, 299, 16
2.000788, -87, 232, 2019, -429, 276, 35
2.001404, -89, 235, 2018, -429, 276, 35
2.002016, -86, 241, 2021, -439, 254, 54
2.002630, -82, 232, 2021, -439, 254, 54
2.003244, -90, 236, 2018, -441, 232, 74
2.003856, -93, 231, 2021, -439, 216, 96
2.004469, -90, 231, 2017, -439, 216, 96
2.005084, -91, 234, 2022, -435, 204, 118
2.005697, -95, 233, 2014, -435, 204, 118
2.006311, -90, 236, 2008, -434, 192, 143
2.006924, -94, 234, 2010, -438, 183, 170
2.007795, -91, 231, 1997, -441, 173, 196
2.008408, -97, 230, 1990, -441, 173, 196
2.009021, -98, 235, 1987, -441, 156, 226
2.009635, -96, 234, 1980, -441, 156, 226
2.010247, -97, 231, 1980, -442, 135, 258
2.010861, -98, 236, 1970, -446, 113, 283
2.011473, -100, 237, 1969, -446, 113, 283
2.012087, -107, 237, 1971, -450, 89, 309
2.012699, -115, 239, 1974, -450, 89, 309
2.013311, -118, 234, 1968, -456, 57, 340
2.014129, -124, 241, 1972, -464, 26, 367
2.014741, -134, 239, 1967, -464, 26, 367
2.015355, -135, 242, 1967, -465, 1, 389
2.015968, -150, 246, 1963, -463, -26, 417
2.016579, -162, 243, 1966, -463, -26, 417
2.017194, -163, 244, 1979, -467, -61, 449
2.017804, -177, 251, 1975, -467, -61, 449
2.018418, -181, 251, 1978, -470, -94, 482
2.019031, -189, 247, 1988, -472, -126, 518
2.019644, -198, 249, 1989, -472, -126, 518
2.020256, -201, 248, 1992, -471, -165, 557
2.020870, -209, 248, 1996, -471, -165, 557
2.021484, -212, 242, 2005, -473, -211, 603
2.022095, -221, 242, 2009, -474, -258, 651
2.022708, -222, 246, 2024, -474, -258, 651
2.023322, -223, 235, 2028, -470, -306, 700
2.023934, -221, 236, 2026, -470, -306, 700
2.024772, -224, 225, 2034, -463, -357, 752
2.025385, -219, 227, 2034, -452, -411, 805
2.025997, -218, 222, 2032, -452, -411, 805
2.026610, -218, 214, 2034, -436, -462, 860
2.027222, -215, 216, 2029, -417, -509, 916
2.027835, -217, 213, 2026, -417, -509, 916
2.028448, -213, 202, 2023, -398, -557, 968
2.029061, -206, 201, 2021, -398, -557, 968
2.029673, -200, 202, 2019, -381, -605, 1018
2.030286, -194, 202, 2013, -362, -652, 1064
2.030898, -193, 195, 2007, -362, -652, 1064
2.031511, -187, 203, 1999, -340, -695, 1108
2.032123, -190, 206, 1985, -322, -734, 1150
2.032738, -196, 211, 1982, -322, -734, 1150
2.033349, -191, 212, 1980, -308, -774, 1189
2.034147, -185, 213, 1978, -296, -816, 1223
2.034907, -185, 217, 1969, -296, -816, 1223
2.035520, -181, 223, 1965, -286, -865, 1255
2.036136, -179, 220, 1964, -286, -865, 1255
2.036747, -170, 226, 1958, -281, -919, 1285
2.037361, -164, 230, 1957, -280, -978, 1314
2.037973, -148, 233, 1953, -280, -978, 1314
2.038585, -146, 225, 1958, -279, -1044, 1342
2.039309, -136, 226, 1957, -276, -1122, 1366
2.040033, -120, 229, 1954, -276, -1122, 1366
2.040645, -114, 226, 1949, -276, -1209, 1386
2.041259, -98, 226, 1946, -271, -1299, 1400
2.041871, -92, 222, 1940, -271, -1299, 1400
2.042602, -82, 228, 1939, -261, -1387, 1403
2.043216, -78, 222, 1936, -261, -1387, 1403
2.043829, -63, 217, 1926, -251, -1478, 1398
2.044443, -50, 214, 1926, -232, -1573, 1392
2.045056, -41, 203, 1919, -232, -1573, 1392
2.045669, -26, 203, 1916, -213, -1662, 1379
2.046283, -15, 193, 1904, -213, -1662, 1379
2.046895, -7, 194, 1900, -205, -1747, 1350
2.047509, 2, 189, 1896, -196, -1834, 1312
2.048122, 21, 195, 1881, -196, -1834, 1312
2.048734, 20, 190, 1877, -180, -1916, 1267
2.049347, 34, 189, 1877, -170, -1988, 1213
2.049959, 32, 191, 1864, -170, -1988, 1213
2.050573, 34, 193, 1864, -172, -2056, 1152
2.051187, 45, 199, 1859, -172, -2056, 1152
2.051800, 47, 201, 1860, -177, -2120, 1090
2.052412, 47, 205, 1858, -188, -2185, 1025
2.053151, 46, 205, 1859, -188, -2185, 1025
2.053912, 44, 217, 1866, -207, -2252, 955
2.054673, 54, 218, 1866, -233, -2319, 890
2.055432, 52, 216, 1880, -257, -2388, 828
2.056192, 53, 225, 1904, -257, -2388, 828
2.056952, 54, 224, 1920, -279, -2459, 767
2.057568, 59, 212, 1935, -304, -2530, 707
2.058181, 62, 216, 1953, -304, -2530, 707
2.058794, 58, 210, 1961, -324, -2597, 650
2.059407, 69, 207, 1975, -324, -2597, 650
2.060021, 57, 212, 1988, -333, -2659, 598
2.060632, 59, 201, 1994, -325, -2713, 549
2.061246, 55, 194, 1997, -325, -2713, 549
2.061858, 54, 195, 2014, -308, -2761, 504
2.062472, 48, 187, 2012, -308, -2761, 504
2.063087, 50, 183, 2019, -289, -2804, 465
2.063700, 46, 178, 2018, -269, -2845, 431
2.064316, 46, 180, 2031, -269, -2845, 431
2.064928, 40, 177, 2045, -253, -2879, 398
2.065541, 31, 172, 2037, -253, -2879, 398
2.066155, 28, 168, 2039, -239, -2906, 371
2.066768, 19, 171, 2039, -222, -2927, 353
2.067381, 6, 159, 2044, -222, -2927, 353
2.067998, 5, 157, 2040, -208, -2939, 340
2.069369, -8, 169, 2039, -200, -2944, 330
2.070128, -9, 170, 2031, -198, -2950, 321
2.070889, -13, 184, 2015, -198, -2959, 316
2.071649, -15, 190, 2005, -194, -2974, 315
2.072445, -20, 199, 1997, -194, -2974, 315
2.073060, -26, 206, 1982, -195, -2998, 311
2.073673, -37, 206, 1972, -205, -3039, 300
2.074287, -31, 216, 1962, -205, -3039, 300
2.074900, -36, 225, 1954, -215, -3092, 283
2.075513, -40, 222, 1880, -215, -3092, 283
2.076126, -76, 224, 1791, -224, -3157, 266
2.076739, -105, 272, 1830, -237, -3247, 241
2.077351, -112, 261, 1883, -237, -3247, 241
2.077965, -101, 241, 1891, -265, -3370, 208
2.078577, -78, 229, 1873, -265, -3370, 208
2.079192, -68, 230, 1895, -336, -3545, 186
2.079806, -60, 227, 1937, -421, -3738, 182
2.080420, -64, 212, 1938, -421, -3738, 182
2.081033, -64, 214, 1957, -461, -3895, 183
2.081645, -73, 208, 1992, -461, -3895, 183
2.082258, -69, 208, 2020, -476, -4025, 167
2.082870, -76, 200, 2008, -481, -4134, 133
2.083484, -74, 200, 1999, -481, -4134, 133
2.084094, -79, 200, 1987, -451, -4221, 92
2.084704, -96, 203, 1988, -451, -4221, 92
2.085316, -96, 210, 1979, -384, -4304, 54
2.085926, -106, 210, 1968, -306, -4383, 23
2.086537, -113, 203, 1956, -306, -4383, 23
2.087359, -123, 202, 1937, -243, -4448, -5
2.087972, -128, 196, 1934, -193, -4509, -32
2.088585, -133, 198, 1923, -193, -4509, -32
2.089198, -133, 192, 1917, -150, -4574, -51
2.089813, -139, 196, 1921, -150, -4574, -51
2.090427, -144, 187, 1929, -128, -4640, -60
2.091040, -145, 184, 1938, -132, -4702, -63
2.091652, -147, 183, 1943, -132, -4702, -63
2.092264, -152, 180, 1960, -147, -4757, -67
2.092877, -159, 177, 1972, -147, -4757, -67
2.093489, -166, 171, 1969, -159, -4798, -65
2.094102, -173, 165, 1964, -171, -4827, -54
2.094715, -179, 164, 1968, -171, -4827, -54
2.095328, -185, 168, 1971, -180, -4852, -39
2.095941, -196, 172, 1986, -180, -4852, -39
2.096553, -200, 159, 2001, -183, -4878, -22
2.097166, -204, 168, 2012, -174, -4911, 1
2.097778, -201, 166, 2016, -174, -4911, 1
2.098391, -211, 163, 2014, -158, -4953, 34
2.099003, -211, 163, 2011, -140, -4998, 69
2.099614, -207, 166, 2017, -140, -4998, 69
2.100225, -212, 166, 2013, -117, -5039, 101
2.100835, -215, 167, 2011, -117, -5039, 101
2.101446, -216, 169, 2018, -87, -5078, 135
2.102058, -223, 170, 2022, -60, -5119, 174
2.102668, -228, 176, 2024, -60, -5119, 174
2.103396, -222, 177, 2033, -38, -5163, 213
2.104125, -227, 171, 2031, -19, -5205, 253
2.104863, -225, 169, 2036, -19, -5205, 253
2.105478, -222, 173, 2035, -1, -5242, 296
2.106093, -221, 173, 2040, -1, -5242, 296
2.106705, -228, 181, 2033, 17, -5276, 341
2.107320, -214, 183, 2038, 40, -5311, 393
2.107930, -216, 188, 2039, 40, -5311, 393
2.108542, -205, 191, 2022, 63, -5346, 449
2.109152, -202, 194, 2021, 91, -5380, 504
2.109763, -207, 193, 2029, 91, -5380, 504
2.110374, -202, 211, 2044, 123, -5420, 559
2.110986, -205, 212, 2012, 123, -5420, 559
2.111597, -180, 212, 2014, 152, -5469, 616
2.112210, -176, 231, 2023, 182, -5527, 674
2.112830, -165, 232, 2014, 182, -5527, 674
2.113712, -153, 240, 1976, 215, -5599, 730
2.114472, -152, 248, 1950, 248, -5677, 786
2.115486, -149, 261, 1938, 284, -5742, 836
2.116246, -161, 260, 1941, 312, -5804, 874
2.117005, -160, 256, 1948, 312, -5804, 874
2.117766, -155, 263, 1948, 323, -5883, 907
2.118526, -148, 264, 1948, 332, -5973, 949
2.119286, -149, 267, 1954, 351, -6069, 1002
2.120046, -144, 261, 1957, 351, -6069, 1002
2.120806, -142, 270, 1968, 379, -6162, 1063
2.121567, -139, 263, 1969, 412, -6243, 1130
2.122327, -136, 266, 1967, 448, -6312, 1198
2.123093, -126, 261, 1955, 448, -6312, 1198
2.123847, -121, 260, 1973, 494, -6367, 1266
2.124608, -110, 241, 1984, 547, -6411, 1334
2.125368, -89, 228, 1985, 592, -6460, 1401
2.126128, -80, 229, 1994, 592, -6460, 1401
2.126912, -64, 226, 2002, 634, -6514, 1464
2.127902, -65, 210, 1975, 686, -6567, 1520
2.128662, -71, 208, 1973, 749, -6615, 1569
2.129422, -75, 211, 1999, 804, -6648, 1612
2.130182, -69, 188, 2020, 804, -6648, 1612
2.131035, -43, 199, 2032, 839, -6676, 1651
2.131788, -32, 182, 2010, 869, -6717, 1704
2.133223, 1, 186, 2002, 914, -6758, 1773
2.133988, 20, 175, 1990, 970, -6787, 1846
2.134743, 46, 174, 1988, 1012, -6807, 1916
2.135503, 70, 173, 1951, 1045, -6820, 1982
2.136263, 78, 171, 1905, 1045, -6820, 1982
2.137024, 97, 172, 1936, 1091, -6827, 2041
2.137784, 102, 177, 1952, 1132, -6834, 2092
2.138544, 113, 172, 1886, 1146, -6851, 2133
2.139305, 115, 188, 1873, 1146, -6851, 2133
2.140067, 110, 198, 1909, 1146, -6875, 2164
2.140824, 123, 198, 1915, 1153, -6903, 2189
2.141600, 135, 198, 1940, 1149, -6943, 2212
2.142345, 151, 206, 1943, 1149, -6943, 2212
2.143192, 155, 209, 1927, 1132, -7004, 2235
2.143938, 145, 211, 1917, 1135, -7068, 2253
2.144676, 144, 203, 1920, 1162, -7129, 2258
2.145429, 126, 202, 1889, 1162, -7129, 2258
2.147163, 172, 188, 1901, 1192, -7264, 2230
2.147918, 172, 184, 1828, 1197, -7356, 2209
2.148532, 168, 187, 1809, 1197, -7356, 2209
2.149144, 164, 182, 1821, 1205, -7464, 2191
2.149755, 185, 170, 1817, 1215, -7558, 2169
2.150366, 184, 157, 1800, 1215, -7558, 2169
2.150981, 225, 137, 1792, 1191, -7641, 2135
2.151591, 235, 130, 1796, 1191, -7641, 2135
2.152203, 245, 138, 1796, 1119, -7736, 2102
2.152815, 250, 144, 1800, 1042, -7840, 2084
2.153428, 262, 146, 1814, 1042, -7840, 2084
2.154038, 287, 143, 1853, 976, -7942, 2073
2.154649, 321, 136, 1872, 976, -7942, 2073
2.155261, 397, 117, 1894, 902, -8039, 2066
2.155873, 448, 103, 1874, 824, -8131, 2068
2.156484, 485, 103, 1850, 824, -8131, 2068
2.157095, 514, 124, 1839, 775, -8206, 2075
2.157705, 522, 141, 1854, 775, -8206, 2075
2.158315, 529, 156, 1858, 761, -8258, 2056
2.158926, 534, 161, 1846, 743, -8306, 1988
2.159554, 526, 168, 1822, 743, -8306, 1988
2.160166, 538, 157, 1817, 697, -8363, 1881
2.160776, 535, 162, 1831, 697, -8363, 1881
2.161386, 532, 177, 1886, 644, -8424, 1761
2.161997, 526, 180, 1926, 587, -8498, 1645
2.162607, 523, 175, 1901, 587, -8498, 1645
2.163218, 462, 203, 1892, 519, -8586, 1531
2.163829, 431, 205, 1914, 519, -8586, 1531
2.164441, 416, 189, 1962, 467, -8664, 1416
2.165053, 418, 173, 1978, 442, -8723, 1304
2.165667, 422, 170, 2004, 442, -8723, 1304
2.166416, 426, 178, 2047, 412, -8790, 1209
2.167176, 500, 157, 2068, 386, -8883, 1144
2.167787, 494, 111, 2055, 386, -8883, 1144
2.168399, 519, 72, 2042, 402, -8997, 1091
2.169010, 520, 103, 2001, 464, -9112, 1033
2.169620, 443, 146, 1995, 464, -9112, 1033
2.170231, 337, 193, 1993, 571, -9186, 942
2.170841, 280, 217, 1965, 571, -9186, 942
2.171454, 231, 212, 1921, 685, -9257, 774
2.172067, 180, 215, 1891, 732, -9388, 563
2.172676, 148, 224, 1906, 732, -9388, 563
2.173287, 120, 228, 1941, 711, -9540, 425
2.173897, 130, 229, 1963, 711, -9540, 425
2.174508, 133, 228, 1978, 655, -9682, 394
2.175119, 181, 213, 1987, 571, -9849, 425
2.175730, 192, 211, 1983, 571, -9849, 425
2.176341, 219, 203, 1955, 504, -10027, 482
2.176951, 212, 214, 1924, 504, -10027, 482
2.177563, 179, 218, 1895, 485, -10165, 541
2.178325, 129, 218, 1900, 476, -10236, 578
2.179085, 111, 206, 1935, 439, -10248, 581
2.179845, 118, 190, 2007, 439, -10248, 581
2.180610, 147, 203, 2066, 367, -10262, 573
2.181366, 189, 194, 2000, 293, -10336, 600
2.182126, 224, 209, 1939, 280, -10457, 669
2.183140, 243, 226, 1907, 355, -10567, 759
2.183900, 226, 238, 1914, 355, -10567, 759
2.184660, 206, 248, 1914, 438, -10624, 837
2.185421, 190, 247, 1906, 446, -10631, 879
2.186181, 184, 261, 1935, 409, -10634, 889
2.187194, 201, 255, 1988, 384, -10683, 896
2.187954, 228, 247, 1957, 384, -10683, 896
2.188714, 254, 260, 1916, 391, -10783, 933
2.189474, 264, 270, 1892, 429, -10892, 1004
2.190235, 266, 288, 1900, 487, -10970, 1085
2.190995, 249, 263, 1840, 487, -10970, 1085
2.191755, 236, 261, 1848, 519, -11013, 1146
2.192515, 265, 280, 2006, 496, -11046, 1185
2.193275, 328, 237, 1988, 447, -11106, 1225
2.194036, 356, 236, 1897, 447, -11106, 1225
2.194796, 356, 240, 1827, 419, -11211, 1281
2.195556, 348, 265, 1949, 455, -11302, 1351
2.196316, 366, 266, 2033, 519, -11333, 1402
2.197076, 383, 237, 1867, 519, -11333, 1402
2.197837, 368, 254, 1795, 525, -11355, 1424
2.198597, 352, 281, 1834, 538, -11369, 1448
2.199357, 356, 262, 1855, 612, -11356, 1475
2.200118, 378, 264, 1880, 612, -11356, 1475
2.200878, 394, 252, 1862, 632, -11373, 1492
2.201637, 392, 275, 1826, 596, -11425, 1521
2.202398, 379, 275, 1801, 615, -11473, 1566
2.203157, 365, 267, 1767, 615, -11473, 1566
2.203917, 357, 286, 1907, 664, -11509, 1597
2.204678, 401, 281, 1987, 669, -11531, 1614
2.205438, 421, 250, 1814, 641, -11553, 1643
2.206198, 401, 267, 1704, 641, -11553, 1643
2.206963, 376, 275, 1742, 655, -11570, 1689
2.207718, 367, 275, 1860, 736, -11548, 1729
2.208331, 381, 260, 1882, 736, -11548, 1729
2.208945, 397, 258, 1870, 764, -11517, 1750
2.209560, 413, 248, 1808, 698, -11520, 1777
2.210174, 429, 260, 1792, 698, -11520, 1777
2.210786, 455, 256, 1775, 685, -11527, 1832
2.211401, 452, 273, 1754, 685, -11527, 1832
2.212013, 448, 275, 1733, 759, -11518, 1893
2.212626, 429, 290, 1697, 814, -11492, 1939
2.213238, 418, 293, 1721, 814, -11492, 1939
2.213851, 440, 303, 1800, 810, -11442, 1966
2.214464, 463, 289, 1814, 810, -11442, 1966
2.215078, 521, 309, 1827, 776, -11424, 1988
2.215692, 550, 299, 1781, 750, -11475, 2032
2.216310, 570, 298, 1730, 750, -11475, 2032
2.216922, 608, 323, 1771, 773, -11533, 2107
2.217535, 606, 326, 1751, 773, -11533, 2107
2.218148, 612, 311, 1691, 835, -11543, 2175
2.218761, 619, 315, 1714, 874, -11514, 2202
2.219375, 636, 315, 1765, 874, -11514, 2202
2.219986, 669, 304, 1768, 868, -11474, 2203
2.220600, 704, 306, 1754, 868, -11474, 2203
2.221211, 738, 314, 1735, 846, -11467, 2205
2.221825, 752, 322, 1706, 849, -11492, 2220
2.222438, 756, 320, 1667, 849, -11492, 2220
2.223050, 755, 334, 1681, 893, -11503, 2239
2.223663, 767, 344, 1714, 893, -11503, 2239
2.224276, 789, 338, 1750, 932, -11498, 2242
2.224889, 828, 334, 1728, 927, -11499, 2230
2.225501, 852, 342, 1695, 927, -11499, 2230
2.226114, 863, 332, 1649, 920, -11504, 2216
2.226727, 859, 325, 1536, 964, -11495, 2204
2.227339, 837, 335, 1490, 964, -11495, 2204
2.227952, 814, 343, 1512, 1025, -11455, 2179
2.228566, 802, 339, 1537, 1025, -11455, 2179
2.229184, 798, 335, 1554, 1033, -11390, 2133
2.229797, 788, 352, 1586, 972, -11350, 2080
2.230410, 798, 344, 1580, 972, -11350, 2080
2.231025, 836, 329, 1620, 887, -11383, 2047
2.231636, 875, 341, 1718, 887, -11383, 2047
2.232250, 925, 340, 1780, 834, -11469, 2051
2.232862, 980, 337, 1725, 823, -11559, 2081
2.233475, 993, 327, 1597, 823, -11559, 2081
2.234325, 934, 353, 1481, 862, -11580, 2109
2.235084, 879, 351, 1482, 955, -11476, 2087
2.235844, 830, 334, 1494, 993, -11304, 1994
2.236604, 827, 316, 1462, 993, -11304, 1994
2.237216, 824, 322, 1447, 900, -11165, 1875
2.237939, 826, 332, 1435, 777, -11092, 1797
2.238661, 819, 349, 1446, 777, -11092, 1797
2.239275, 811, 357, 1492, 712, -11079, 1776
2.239997, 835, 356, 1601, 660, -11108, 1783
2.240720, 892, 348, 1668, 660, -11108, 1783
2.241332, 920, 350, 1677, 574, -11150, 1800
2.242179, 972, 338, 1591, 507, -11185, 1826
2.243192, 989, 342, 1526, 537, -11181, 1849
2.243953, 960, 343, 1475, 628, -11112, 1832
2.244713, 896, 337, 1404, 628, -11112, 1832
2.245473, 839, 332, 1384, 669, -10985, 1763
2.246233, 805, 343, 1489, 629, -10831, 1666
2.246993, 832, 336, 1620, 525, -10739, 1580
2.247753, 916, 328, 1732, 525, -10739, 1580
2.248514, 1002, 319, 1722, 380, -10779, 1546
2.249274, 1071, 325, 1622, 287, -10881, 1587
2.250034, 1071, 336, 1512, 333, -10918, 1660
2.250817, 1033, 357, 1486, 333, -10918, 1660
2.251568, 991, 359, 1484, 450, -10839, 1677
2.252314, 927, 344, 1460, 491, -10682, 1599
2.253075, 886, 337, 1517, 419, -10531, 1477
2.253835, 881, 309, 1606, 419, -10531, 1477
2.254447, 900, 296, 1660, 302, -10461, 1377
2.255171, 948, 277, 1712, 205, -10495, 1333
2.255894, 990, 284, 1677, 205, -10495, 1333
2.256507, 996, 273, 1628, 164, -10574, 1352
2.257230, 976, 273, 1600, 205, -10595, 1401
2.257952, 956, 284, 1634, 205, -10595, 1401
2.258565, 937, 277, 1649, 278, -10526, 1420
2.259409, 901, 274, 1673, 300, -10423, 1389
2.260170, 889, 263, 1694, 273, -10335, 1337
2.260930, 888, 248, 1751, 273, -10335, 1337
2.261543, 908, 233, 1799, 244, -10287, 1296
2.262265, 946, 219, 1808, 223, -10287, 1285
2.262987, 974, 216, 1768, 223, -10287, 1285
2.263724, 971, 209, 1712, 223, -10289, 1308
2.264338, 955, 208, 1684, 275, -10232, 1337
2.265060, 916, 212, 1679, 275, -10232, 1337
2.265782, 901, 199, 1768, 337, -10121, 1342
2.266394, 898, 178, 1801, 333, -10008, 1319
2.267117, 906, 165, 1796, 333, -10008, 1319
2.267839, 903, 148, 1805, 269, -9931, 1294
2.268451, 911, 157, 1852, 229, -9892, 1298
2.269291, 958, 112, 1896, 250, -9877, 1333
2.270052, 980, 95, 1834, 250, -9877, 1333
2.270812, 953, 118, 1825, 288, -9859, 1383
2.271572, 932, 97, 1801, 339, -9789, 1441
2.272332, 915, 83, 1763, 407, -9668, 1484
2.273092, 878, 90, 1819, 407, -9668, 1484
2.273852, 867, 79, 1849, 442, -9558, 1503
2.274464, 875, 73, 1861, 436, -9488, 1534
2.275188, 881, 76, 1886, 436, -9488, 1534
2.275909, 911, 90, 1908, 424, -9457, 1606
2.276518, 936, 74, 1903, 433, -9452, 1713
2.277130, 968, 73, 1911, 433, -9452, 1713
2.277741, 1005, 80, 1903, 471, -9437, 1834
2.278353, 1018, 84, 1830, 471, -9437, 1834
2.279174, 985, 92, 1697, 528, -9379, 1948
2.279934, 947, 101, 1737, 597, -9265, 2028
2.280694, 931, 103, 1836, 642, -9119, 2051
2.281308, 932, 100, 1879, 642, -9119, 2051
2.282030, 965, 78, 1910, 604, -9005, 2035
2.282753, 1009, 73, 1897, 506, -8958, 2036
2.283366, 1044, 75, 1869, 506, -8958, 2036
2.284089, 1062, 85, 1809, 456, -8948, 2080
2.284811, 1064, 107, 1767, 503, -8926, 2144
2.285535, 1038, 113, 1762, 580, -8858, 2183
2.286268, 1014, 113, 1799, 580, -8858, 2183
2.287029, 1025, 128, 1877, 595, -8760, 2179
2.287789, 1055, 124, 1898, 540, -8693, 2154
2.288401, 1080, 120, 1905, 540, -8693, 2154
2.289123, 1120, 114, 1899, 478, -8683, 2148
2.289736, 1151, 102, 1871, 468, -8699, 2172
2.290348, 1192, 119, 1854, 468, -8699, 2172
2.291083, 1193, 126, 1803, 498, -8692, 2212
2.291843, 1174, 138, 1746, 529, -8631, 2242
2.292454, 1157, 157, 1754, 529, -8631, 2242
2.293068, 1145, 169, 1790, 548, -8519, 2241
2.293870, 1136, 145, 1800, 535, -8420, 2212
2.294522, 1153, 139, 1806, 535, -8420, 2212
2.295137, 1177, 155, 1889, 469, -8384, 2182
2.295897, 1226, 147, 1886, 398, -8397, 2175
2.296511, 1247, 142, 1848, 398, -8397, 2175
2.297124, 1255, 149, 1808, 389, -8422, 2195
2.297924, 1231, 169, 1776, 431, -8432, 2213
2.298685, 1201, 170, 1752, 479, -8395, 2202
2.299449, 1166, 163, 1765, 479, -8395, 2202
2.300205, 1159, 159, 1830, 500, -8326, 2162
2.300965, 1171, 139, 1837, 473, -8280, 2110
2.301725, 1180, 111, 1820, 433, -8283, 2071
2.302338, 1189, 106, 1843, 433, -8283, 2071
2.303062, 1209, 102, 1868, 427, -8314, 2060
2.303783, 1217, 88, 1855, 461, -8339, 2055
2.304396, 1212, 84, 1849, 461, -8339, 2055
2.305008, 1224, 73, 1860, 509, -8340, 2035
2.305621, 1220, 66, 1834, 509, -8340, 2035
2.306232, 1213, 66, 1798, 558, -8310, 1996
2.306845, 1193, 63, 1767, 612, -8252, 1941
2.307570, 1174, 69, 1753, 612, -8252, 1941
2.308181, 1156, 76, 1755, 666, -8177, 1874
2.308792, 1151, 81, 1771, 666, -8177, 1874
2.309408, 1159, 78, 1778, 698, -8092, 1806
2.310139, 1168, 83, 1762, 695, -8013, 1755
2.310876, 1179, 83, 1693, 690, -7941, 1723
2.311610, 1170, 109, 1644, 690, -7941, 1723
2.312368, 1148, 129, 1644, 710, -7858, 1704
2.313128, 1135, 139, 1645, 734, -7751, 1684
2.313888, 1135, 145, 1688, 718, -7641, 1647
2.314648, 1142, 147, 1724, 718, -7641, 1647
2.315262, 1159, 147, 1723, 653, -7550, 1604
2.315986, 1178, 142, 1688, 586, -7482, 1577
2.316708, 1193, 147, 1672, 586, -7482, 1577
2.317322, 1204, 146, 1654, 567, -7418, 1571
2.318045, 1198, 150, 1614, 581, -7333, 1566
2.318767, 1177, 156, 1599, 581, -7333, 1566
2.319380, 1158, 173, 1603, 582, -7221, 1544
2.320222, 1135, 175, 1661, 555, -7109, 1502
2.320983, 1148, 174, 1709, 500, -7028, 1458
2.321743, 1168, 175, 1722, 500, -7028, 1458
2.322355, 1198, 174, 1722, 434, -6992, 1433
2.323081, 1231, 182, 1682, 399, -6977, 1436
2.323805, 1245, 193, 1630, 399, -6977, 1436
2.324530, 1240, 205, 1591, 417, -6943, 1454
2.325142, 1236, 208, 1587, 459, -6868, 1455
2.325754, 1227, 217, 1591, 459, -6868, 1455
2.326390, 1230, 210, 1594, 466, -6774, 1423
2.327000, 1238, 207, 1621, 466, -6774, 1423
2.327824, 1261, 207, 1648, 410, -6690, 1376
2.328584, 1299, 195, 1649, 325, -6634, 1343
2.329196, 1313, 196, 1640, 255, -6605, 1333
2.329807, 1328, 208, 1641, 255, -6605, 1333
2.330421, 1344, 209, 1629, 217, -6577, 1337
2.331039, 1355, 211, 1628, 217, -6577, 1337
2.331878, 1358, 222, 1621, 197, -6527, 1336
