Time, ax, ay, az, gx, gy, gz
0.000024, -349, -2134, 357, -881, 1664, -213
0.000283, -349, -2134, 357, -881, 1664, -213
0.000428, -349, -2134, 357, -881, 1664, -213
0.000567, -349, -2134, 357, -881, 1664, -213
0.000714, -349, -2134, 357, -881, 1664, -213
0.000853, -349, -2134, 357, -881, 1664, -213
0.000992, -548, -2070, 606, -713, 1648, 113
0.001135, -548, -2070, 606, -713, 1648, 113
0.001274, -548, -2070, 606, -713, 1648, 113
0.001411, -548, -2070, 606, -713, 1648, 113
0.001549, -548, -2070, 606, -713, 1648, 113
0.001686, -548, -2070, 606, -713, 1648, 113
0.001823, -548, -2070, 606, -713, 1648, 113
0.001955, 23, -1950, 436, -490, 1457, 387
0.002098, 23, -1950, 436, -490, 1457, 387
0.002237, 23, -1950, 436, -490, 1457, 387
0.002374, 23, -1950, 436, -490, 1457, 387
0.002511, 23, -1950, 436, -490, 1457, 387
0.002650, 23, -1950, 436, -490, 1457, 387
0.002787, 23, -1950, 436, -490, 1457, 387
0.002924, 331, -2039, 37, -472, 1304, 228
0.003062, 331, -2039, 37, -472, 1304, 228
0.003199, 331, -2039, 37, -472, 1304, 228
0.003337, 331, -2039, 37, -472, 1304, 228
0.003474, 331, -2039, 37, -472, 1304, 228
0.003611, 331, -2039, 37, -472, 1304, 228
0.003749, 331, -2039, 37, -472, 1304, 228
0.003886, 331, -2039, 37, -472, 1304, 228
0.004023, -236, -2100, -73, -574, 1404, 126
0.004165, -236, -2100, -73, -574, 1404, 126
0.004302, -236, -2100, -73, -574, 1404, 126
0.004439, -236, -2100, -73, -574, 1404, 126
0.004577, -236, -2100, -73, -574, 1404, 126
0.004714, -236, -2100, -73, -574, 1404, 126
0.004852, -236, -2100, -73, -574, 1404, 126
0.004989, -337, -2003, 46, -654, 1509, 443
0.005131, -337, -2003, 46, -654, 1509, 443
0.005270, -337, -2003, 46, -654, 1509, 443
0.005409, -337, -2003, 46, -654, 1509, 443
0.005547, -337, -2003, 46, -654, 1509, 443
0.005684, -337, -2003, 46, -654, 1509, 443
0.005822, -337, -2003, 46, -654, 1509, 443
0.005959, -337, -2003, 46, -654, 1509, 443
0.006096, 50, -2024, 580, -599, 1445, 654
0.006238, 50, -2024, 580, -599, 1445, 654
0.006376, 50, -2024, 580, -599, 1445, 654
0.006515, 50, -2024, 580, -599, 1445, 654
0.006649, 50, -2024, 580, -599, 1445, 654
0.006788, 50, -2024, 580, -599, 1445, 654
0.006925, 50, -2024, 580, -599, 1445, 654
0.007062, -249, -2150, 1415, -105, 1375, 657
0.007204, -249, -2150, 1415, -105, 1375, 657
0.007341, -249, -2150, 1415, -105, 1375, 657
0.007479, -249, -2150, 1415, -105, 1375, 657
0.007616, -249, -2150, 1415, -105, 1375, 657
0.007753, -249, -2150, 1415, -105, 1375, 657
0.007892, -249, -2150, 1415, -105, 1375, 657
0.008029, -770, -2134, 1066, 604, 1365, 919
0.008170, -770, -2134, 1066, 604, 1365, 919
0.008309, -770, -2134, 1066, 604, 1365, 919
0.008446, -770, -2134, 1066, 604, 1365, 919
0.008583, -770, -2134, 1066, 604, 1365, 919
0.008721, -770, -2134, 1066, 604, 1365, 919
0.008859, -770, -2134, 1066, 604, 1365, 919
0.008997, -770, -2134, 1066, 604, 1365, 919
0.009134, -400, -2036, 33, 816, 1385, 1323
0.009275, -400, -2036, 33, 816, 1385, 1323
0.009413, -400, -2036, 33, 816, 1385, 1323
0.009551, -400, -2036, 33, 816, 1385, 1323
0.009688, -400, -2036, 33, 816, 1385, 1323
0.009825, -400, -2036, 33, 816, 1385, 1323
0.009963, -400, -2036, 33, 816, 1385, 1323
0.010100, 632, -1962, 212, 780, 1309, 1253
0.010241, 632, -1962, 212, 780, 1309, 1253
0.010379, 632, -1962, 212, 780, 1309, 1253
0.010516, 632, -1962, 212, 780, 1309, 1253
0.010654, 632, -1962, 212, 780, 1309, 1253
0.010791, 632, -1962, 212, 780, 1309, 1253
0.010928, 632, -1962, 212, 780, 1309, 1253
0.011065, 925, -2040, 635, 986, 1097, 576
0.011206, 925, -2040, 635, 986, 1097, 576
0.011344, 925, -2040, 635, 986, 1097, 576
0.011481, 925, -2040, 635, 986, 1097, 576
0.011619, 925, -2040, 635, 986, 1097, 576
0.011756, 925, -2040, 635, 986, 1097, 576
0.011893, 925, -2040, 635, 986, 1097, 576
0.012030, 925, -2040, 635, 986, 1097, 576
0.012168, 109, -2178, 377, 1148, 1100, 53
0.012309, 109, -2178, 377, 1148, 1100, 53
0.012448, 109, -2178, 377, 1148, 1100, 53
0.012585, 109, -2178, 377, 1148, 1100, 53
0.012722, 109, -2178, 377, 1148, 1100, 53
0.012860, 109, -2178, 377, 1148, 1100, 53
0.012998, 109, -2178, 377, 1148, 1100, 53
0.013135, -210, -2082, 214, 1169, 1300, 163
0.013313, -210, -2082, 214, 1169, 1300, 163
0.013461, -210, -2082, 214, 1169, 1300, 163
0.013600, -210, -2082, 214, 1169, 1300, 163
0.013739, -210, -2082, 214, 1169, 1300, 163
0.013877, -210, -2082, 214, 1169, 1300, 163
0.014015, -210, -2082, 214, 1169, 1300, 163
0.014152, 405, -1956, 357, 1251, 1347, 261
0.014294, 405, -1956, 357, 1251, 1347, 261
0.014432, 405, -1956, 357, 1251, 1347, 261
0.014569, 405, -1956, 357, 1251, 1347, 261
0.014707, 405, -1956, 357, 1251, 1347, 261
0.014845, 405, -1956, 357, 1251, 1347, 261
0.014982, 405, -1956, 357, 1251, 1347, 261
0.015119, 631, -1954, 442, 1392, 1369, -85
0.015261, 631, -1954, 442, 1392, 1369, -85
0.015399, 631, -1954, 442, 1392, 1369, -85
0.015536, 631, -1954, 442, 1392, 1369, -85
0.015673, 631, -1954, 442, 1392, 1369, -85
0.015810, 631, -1954, 442, 1392, 1369, -85
0.015947, 631, -1954, 442, 1392, 1369, -85
0.016084, 631, -1954, 442, 1392, 1369, -85
0.016221, 81, -1993, 155, 1431, 1544, -382
0.016363, 81, -1993, 155, 1431, 1544, -382
0.016500, 81, -1993, 155, 1431, 1544, -382
0.016637, 81, -1993, 155, 1431, 1544, -382
0.016774, 81, -1993, 155, 1431, 1544, -382
0.016912, 81, -1993, 155, 1431, 1544, -382
0.017049, 81, -1993, 155, 1431, 1544, -382
0.017188, -434, -2064, -489, 1194, 1725, -249
0.017330, -434, -2064, -489, 1194, 1725, -249
0.017468, -434, -2064, -489, 1194, 1725, -249
0.017605, -434, -2064, -489, 1194, 1725, -249
0.017743, -434, -2064, -489, 1194, 1725, -249
0.017880, -434, -2064, -489, 1194, 1725, -249
0.018017, -434, -2064, -489, 1194, 1725, -249
0.018154, -298, -2119, -895, 646, 1735, 85
0.018296, -298, -2119, -895, 646, 1735, 85
0.018435, -298, -2119, -895, 646, 1735, 85
0.018573, -298, -2119, -895, 646, 1735, 85
0.018712, -298, -2119, -895, 646, 1735, 85
0.018850, -298, -2119, -895, 646, 1735, 85
0.018987, -298, -2119, -895, 646, 1735, 85
0.019124, -298, -2119, -895, 646, 1735, 85
0.019261, 204, -2078, -313, 180, 1550, 188
0.019402, 204, -2078, -313, 180, 1550, 188
0.019539, 204, -2078, -313, 180, 1550, 188
0.019676, 204, -2078, -313, 180, 1550, 188
0.019813, 204, -2078, -313, 180, 1550, 188
0.019951, 204, -2078, -313, 180, 1550, 188
0.020088, 204, -2078, -313, 180, 1550, 188
0.020225, 232, -2028, 231, 71, 1312, -8
0.020367, 232, -2028, 231, 71, 1312, -8
0.020505, 232, -2028, 231, 71, 1312, -8
0.020642, 232, -2028, 231, 71, 1312, -8
0.020780, 232, -2028, 231, 71, 1312, -8
0.020918, 232, -2028, 231, 71, 1312, -8
0.021056, 232, -2028, 231, 71, 1312, -8
0.021193, -128, -2082, -105, -122, 1275, -114
0.021334, -128, -2082, -105, -122, 1275, -114
0.021473, -128, -2082, -105, -122, 1275, -114
0.021611, -128, -2082, -105, -122, 1275, -114
0.021749, -128, -2082, -105, -122, 1275, -114
0.021888, -128, -2082, -105, -122, 1275, -114
0.022025, -128, -2082, -105, -122, 1275, -114
0.022163, -128, -2082, -105, -122, 1275, -114
0.022300, -171, -2051, -368, -491, 1426, 15
0.022442, -171, -2051, -368, -491, 1426, 15
0.022580, -171, -2051, -368, -491, 1426, 15
0.022717, -171, -2051, -368, -491, 1426, 15
0.022855, -171, -2051, -368, -491, 1426, 15
0.022992, -171, -2051, -368, -491, 1426, 15
0.023129, -171, -2051, -368, -491, 1426, 15
0.023266, -104, -2004, -330, -840, 1509, 151
0.023407, -104, -2004, -330, -840, 1509, 151
0.023544, -104, -2004, -330, -840, 1509, 151
0.023681, -104, -2004, -330, -840, 1509, 151
0.023819, -104, -2004, -330, -840, 1509, 151
0.023956, -104, -2004, -330, -840, 1509, 151
0.024093, -104, -2004, -330, -840, 1509, 151
0.024230, -338, -2106, 220, -1043, 1521, 295
0.024372, -338, -2106, 220, -1043, 1521, 295
0.024509, -338, -2106, 220, -1043, 1521, 295
0.024646, -338, -2106, 220, -1043, 1521, 295
0.024784, -338, -2106, 220, -1043, 1521, 295
0.024921, -338, -2106, 220, -1043, 1521, 295
0.025059, -338, -2106, 220, -1043, 1521, 295
0.025196, -338, -2106, 220, -1043, 1521, 295
0.025333, -650, -2135, 1011, -783, 1440, 621
0.025475, -650, -2135, 1011, -783, 1440, 621
0.025612, -650, -2135, 1011, -783, 1440, 621
0.025749, -650, -2135, 1011, -783, 1440, 621
0.025886, -650, -2135, 1011, -783, 1440, 621
0.026024, -650, -2135, 1011, -783, 1440, 621
0.026177, -650, -2135, 1011, -783, 1440, 621
0.026319, -217, -1994, 773, -324, 1201, 978
0.026461, -217, -1994, 773, -324, 1201, 978
0.026599, -217, -1994, 773, -324, 1201, 978
0.026738, -217, -1994, 773, -324, 1201, 978
0.026875, -217, -1994, 773, -324, 1201, 978
0.027012, -217, -1994, 773, -324, 1201, 978
0.027149, -217, -1994, 773, -324, 1201, 978
0.027287, 610, -1958, 3, -219, 1063, 851
0.027429, 610, -1958, 3, -219, 1063, 851
0.027567, 610, -1958, 3, -219, 1063, 851
0.027705, 610, -1958, 3, -219, 1063, 851
0.027842, 610, -1958, 3, -219, 1063, 851
0.027980, 610, -1958, 3, -219, 1063, 851
0.028117, 610, -1958, 3, -219, 1063, 851
0.028255, 610, -1958, 3, -219, 1063, 851
0.028392, 155, -2138, 184, -260, 1265, 443
0.028534, 155, -2138, 184, -260, 1265, 443
0.028672, 155, -2138, 184, -260, 1265, 443
0.028810, 155, -2138, 184, -260, 1265, 443
0.028947, 155, -2138, 184, -260, 1265, 443
0.029085, 155, -2138, 184, -260, 1265, 443
0.029222, 155, -2138, 184, -260, 1265, 443
0.029359, -590, -2144, 834, 34, 1526, 601
0.029500, -590, -2144, 834, 34, 1526, 601
0.029638, -590, -2144, 834, 34, 1526, 601
0.029775, -590, -2144, 834, 34, 1526, 601
0.029913, -590, -2144, 834, 34, 1526, 601
0.030050, -590, -2144, 834, 34, 1526, 601
0.030187, -590, -2144, 834, 34, 1526, 601
0.030324, 5, -1991, 834, 478, 1467, 962
0.030466, 5, -1991, 834, 478, 1467, 962
0.030604, 5, -1991, 834, 478, 1467, 962
0.030742, 5, -1991, 834, 478, 1467, 962
0.030879, 5, -1991, 834, 478, 1467, 962
0.031016, 5, -1991, 834, 478, 1467, 962
0.031153, 5, -1991, 834, 478, 1467, 962
0.031291, 5, -1991, 834, 478, 1467, 962
0.031428, 508, -2001, 647, 785, 1323, 763
0.031569, 508, -2001, 647, 785, 1323, 763
0.031708, 508, -2001, 647, 785, 1323, 763
0.031845, 508, -2001, 647, 785, 1323, 763
0.031982, 508, -2001, 647, 785, 1323, 763
0.032119, 508, -2001, 647, 785, 1323, 763
0.032257, 508, -2001, 647, 785, 1323, 763
0.032394, 189, -2038, 544, 1067, 1414, 408
0.032535, 189, -2038, 544, 1067, 1414, 408
0.032674, 189, -2038, 544, 1067, 1414, 408
0.032811, 189, -2038, 544, 1067, 1414, 408
0.032949, 189, -2038, 544, 1067, 1414, 408
0.033086, 189, -2038, 544, 1067, 1414, 408
0.033223, 189, -2038, 544, 1067, 1414, 408
0.033360, -313, -2049, 42, 1180, 1651, 391
0.033502, -313, -2049, 42, 1180, 1651, 391
0.033640, -313, -2049, 42, 1180, 1651, 391
0.033777, -313, -2049, 42, 1180, 1651, 391
0.033915, -313, -2049, 42, 1180, 1651, 391
0.034052, -313, -2049, 42, 1180, 1651, 391
0.034189, -313, -2049, 42, 1180, 1651, 391
0.034326, -313, -2049, 42, 1180, 1651, 391
0.034463, -369, -2047, -415, 937, 1810, 637
0.034605, -369, -2047, -415, 937, 1810, 637
0.034742, -369, -2047, -415, 937, 1810, 637
0.034880, -369, -2047, -415, 937, 1810, 637
0.035017, -369, -2047, -415, 937, 1810, 637
0.035154, -369, -2047, -415, 937, 1810, 637
0.035291, -369, -2047, -415, 937, 1810, 637
0.035429, 318, -1989, -282, 605, 1673, 680
0.035569, 318, -1989, -282, 605, 1673, 680
0.035706, 318, -1989, -282, 605, 1673, 680
0.035844, 318, -1989, -282, 605, 1673, 680
0.035981, 318, -1989, -282, 605, 1673, 680
0.036119, 318, -1989, -282, 605, 1673, 680
0.036256, 318, -1989, -282, 605, 1673, 680
0.036394, 530, -1980, 233, 467, 1409, 265
0.036534, 530, -1980, 233, 467, 1409, 265
0.036672, 530, -1980, 233, 467, 1409, 265
0.036810, 530, -1980, 233, 467, 1409, 265
0.036947, 530, -1980, 233, 467, 1409, 265
0.037085, 530, -1980, 233, 467, 1409, 265
0.037223, 530, -1980, 233, 467, 1409, 265
0.037360, 530, -1980, 233, 467, 1409, 265
0.037497, 93, -2081, 692, 568, 1359, -78
0.037639, 93, -2081, 692, 568, 1359, -78
0.037777, 93, -2081, 692, 568, 1359, -78
0.037914, 93, -2081, 692, 568, 1359, -78
0.038051, 93, -2081, 692, 568, 1359, -78
0.038189, 93, -2081, 692, 568, 1359, -78
0.038326, 93, -2081, 692, 568, 1359, -78
0.038463, 272, -2149, 578, 763, 1439, -183
0.038604, 272, -2149, 578, 763, 1439, -183
0.038742, 272, -2149, 578, 763, 1439, -183
0.038881, 272, -2149, 578, 763, 1439, -183
0.039018, 272, -2149, 578, 763, 1439, -183
0.039155, 272, -2149, 578, 763, 1439, -183
0.039293, 272, -2149, 578, 763, 1439, -183
0.039431, 738, -2027, 304, 902, 1490, -525
0.039586, 738, -2027, 304, 902, 1490, -525
0.039727, 738, -2027, 304, 902, 1490, -525
0.039866, 738, -2027, 304, 902, 1490, -525
0.040005, 738, -2027, 304, 902, 1490, -525
0.040142, 738, -2027, 304, 902, 1490, -525
0.040279, 738, -2027, 304, 902, 1490, -525
0.040417, 738, -2027, 304, 902, 1490, -525
0.040554, 455, -1956, 332, 1018, 1555, -1006
0.040695, 455, -1956, 332, 1018, 1555, -1006
0.040832, 455, -1956, 332, 1018, 1555, -1006
0.040975, 455, -1956, 332, 1018, 1555, -1006
0.041114, 455, -1956, 332, 1018, 1555, -1006
0.041251, 455, -1956, 332, 1018, 1555, -1006
0.041388, 455, -1956, 332, 1018, 1555, -1006
0.041526, -295, -2068, 234, 1071, 1660, -1112
0.041666, -295, -2068, 234, 1071, 1660, -1112
0.041803, -295, -2068, 234, 1071, 1660, -1112
0.041941, -295, -2068, 234, 1071, 1660, -1112
0.042078, -295, -2068, 234, 1071, 1660, -1112
0.042215, -295, -2068, 234, 1071, 1660, -1112
0.042352, -295, -2068, 234, 1071, 1660, -1112
0.042490, -736, -2093, 81, 1044, 1701, -753
0.042630, -736, -2093, 81, 1044, 1701, -753
0.042768, -736, -2093, 81, 1044, 1701, -753
0.042905, -736, -2093, 81, 1044, 1701, -753
0.043042, -736, -2093, 81, 1044, 1701, -753
0.043180, -736, -2093, 81, 1044, 1701, -753
0.043317, -736, -2093, 81, 1044, 1701, -753
0.043454, -736, -2093, 81, 1044, 1701, -753
0.043591, -611, -2067, 36, 1006, 1548, -285
0.043733, -611, -2067, 36, 1006, 1548, -285
0.043870, -611, -2067, 36, 1006, 1548, -285
0.044008, -611, -2067, 36, 1006, 1548, -285
0.044145, -611, -2067, 36, 1006, 1548, -285
0.044282, -611, -2067, 36, 1006, 1548, -285
0.044420, -611, -2067, 36, 1006, 1548, -285
0.044557, -286, -2090, 46, 923, 1302, -79
0.044698, -286, -2090, 46, 923, 1302, -79
0.044836, -286, -2090, 46, 923, 1302, -79
0.044978, -286, -2090, 46, 923, 1302, -79
0.045115, -286, -2090, 46, 923, 1302, -79
0.045253, -286, -2090, 46, 923, 1302, -79
0.045390, -286, -2090, 46, 923, 1302, -79
0.045527, -105, -2024, 360, 903, 1130, -116
0.045668, -105, -2024, 360, 903, 1130, -116
0.045805, -105, -2024, 360, 903, 1130, -116
0.045943, -105, -2024, 360, 903, 1130, -116
0.046080, -105, -2024, 360, 903, 1130, -116
0.046217, -105, -2024, 360, 903, 1130, -116
0.046354, -105, -2024, 360, 903, 1130, -116
0.046491, -105, -2024, 360, 903, 1130, -116
0.046629, -132, -1999, 500, 1015, 1028, -203
0.046769, -132, -1999, 500, 1015, 1028, -203
0.046907, -132, -1999, 500, 1015, 1028, -203
0.047044, -132, -1999, 500, 1015, 1028, -203
0.047181, -132, -1999, 500, 1015, 1028, -203
0.047318, -132, -1999, 500, 1015, 1028, -203
0.047456, -132, -1999, 500, 1015, 1028, -203
0.047593, -215, -2034, 116, 1006, 1036, -218
0.047735, -215, -2034, 116, 1006, 1036, -218
0.047872, -215, -2034, 116, 1006, 1036, -218
0.048009, -215, -2034, 116, 1006, 1036, -218
0.048146, -215, -2034, 116, 1006, 1036, -218
0.048283, -215, -2034, 116, 1006, 1036, -218
0.048421, -215, -2034, 116, 1006, 1036, -218
0.048558, -145, -2034, 134, 895, 1098, -192
0.048699, -145, -2034, 134, 895, 1098, -192
0.048838, -145, -2034, 134, 895, 1098, -192
0.048976, -145, -2034, 134, 895, 1098, -192
0.049113, -145, -2034, 134, 895, 1098, -192
0.049250, -145, -2034, 134, 895, 1098, -192
0.049388, -145, -2034, 134, 895, 1098, -192
0.049525, -145, -2034, 134, 895, 1098, -192
0.049662, -341, -2075, 577, 1001, 1078, -159
0.049803, -341, -2075, 577, 1001, 1078, -159
0.049941, -341, -2075, 577, 1001, 1078, -159
0.050078, -341, -2075, 577, 1001, 1078, -159
0.050216, -341, -2075, 577, 1001, 1078, -159
0.050353, -341, -2075, 577, 1001, 1078, -159
0.050490, -341, -2075, 577, 1001, 1078, -159
0.050627, -572, -2006, 641, 1271, 1018, 34
0.050768, -572, -2006, 641, 1271, 1018, 34
0.050905, -572, -2006, 641, 1271, 1018, 34
0.051043, -572, -2006, 641, 1271, 1018, 34
0.051180, -572, -2006, 641, 1271, 1018, 34
0.051317, -572, -2006, 641, 1271, 1018, 34
0.051454, -572, -2006, 641, 1271, 1018, 34
0.051592, -371, -1932, 324, 1426, 952, 252
0.051729, -371, -1932, 324, 1426, 952, 252
0.051867, -371, -1932, 324, 1426, 952, 252
0.052004, -371, -1932, 324, 1426, 952, 252
0.052141, -371, -1932, 324, 1426, 952, 252
0.052279, -371, -1932, 324, 1426, 952, 252
0.052427, -371, -1932, 324, 1426, 952, 252
0.052568, -371, -1932, 324, 1426, 952, 252
0.052706, -334, -2076, -250, 1299, 942, 307
0.052849, -334, -2076, -250, 1299, 942, 307
0.052987, -334, -2076, -250, 1299, 942, 307
0.053124, -334, -2076, -250, 1299, 942, 307
0.053262, -334, -2076, -250, 1299, 942, 307
0.053399, -334, -2076, -250, 1299, 942, 307
0.053536, -334, -2076, -250, 1299, 942, 307
0.053674, -533, -2184, -565, 912, 1032, 421
0.053813, -533, -2184, -565, 912, 1032, 421
0.053947, -533, -2184, -565, 912, 1032, 421
0.054081, -533, -2184, -565, 912, 1032, 421
0.054215, -533, -2184, -565, 912, 1032, 421
0.054350, -533, -2184, -565, 912, 1032, 421
0.054484, -533, -2184, -565, 912, 1032, 421
0.054618, -294, -2068, -313, 541, 1030, 621
0.054752, -294, -2068, -313, 541, 1030, 621
0.054887, -294, -2068, -313, 541, 1030, 621
0.055021, -294, -2068, -313, 541, 1030, 621
0.055155, -294, -2068, -313, 541, 1030, 621
0.055289, -294, -2068, -313, 541, 1030, 621
0.055423, -294, -2068, -313, 541, 1030, 621
0.055558, -294, -2068, -313, 541, 1030, 621
0.055692, 4, -1984, -78, 266, 908, 594
0.055826, 4, -1984, -78, 266, 908, 594
0.055960, 4, -1984, -78, 266, 908, 594
0.056094, 4, -1984, -78, 266, 908, 594
0.056229, 4, -1984, -78, 266, 908, 594
0.056363, 4, -1984, -78, 266, 908, 594
0.056497, 4, -1984, -78, 266, 908, 594
0.056631, 4, -1984, -78, 266, 908, 594
0.056765, -458, -2089, 88, 0, 947, 530
0.056900, -458, -2089, 88, 0, 947, 530
0.057034, -458, -2089, 88, 0, 947, 530
0.057167, -458, -2089, 88, 0, 947, 530
0.057301, -458, -2089, 88, 0, 947, 530
0.057434, -458, -2089, 88, 0, 947, 530
0.057568, -458, -2089, 88, 0, 947, 530
0.057701, -584, -2074, 238, -124, 1086, 787
0.057835, -584, -2074, 238, -124, 1086, 787
0.057969, -584, -2074, 238, -124, 1086, 787
0.058102, -584, -2074, 238, -124, 1086, 787
0.058236, -584, -2074, 238, -124, 1086, 787
0.058369, -584, -2074, 238, -124, 1086, 787
0.058503, -584, -2074, 238, -124, 1086, 787
0.058636, -584, -2074, 238, -124, 1086, 787
0.058770, 202, -1962, 46, -199, 1062, 874
0.058904, 202, -1962, 46, -199, 1062, 874
0.059037, 202, -1962, 46, -199, 1062, 874
0.059171, 202, -1962, 46, -199, 1062, 874
0.059304, 202, -1962, 46, -199, 1062, 874
0.059438, 202, -1962, 46, -199, 1062, 874
0.059571, 202, -1962, 46, -199, 1062, 874
0.059705, 466, -2027, 31, -417, 1031, 454
0.059838, 466, -2027, 31, -417, 1031, 454
0.059972, 466, -2027, 31, -417, 1031, 454
0.060105, 466, -2027, 31, -417, 1031, 454
0.060239, 466, -2027, 31, -417, 1031, 454
0.060372, 466, -2027, 31, -417, 1031, 454
0.060506, 466, -2027, 31, -417, 1031, 454
0.060639, 466, -2027, 31, -417, 1031, 454
0.060773, -67, -2065, 658, -411, 1127, 121
0.060908, -67, -2065, 658, -411, 1127, 121
0.061043, -67, -2065, 658, -411, 1127, 121
0.061177, -67, -2065, 658, -411, 1127, 121
0.061311, -67, -2065, 658, -411, 1127, 121
0.061445, -67, -2065, 658, -411, 1127, 121
0.061579, -67, -2065, 658, -411, 1127, 121
0.061714, -494, -2008, 951, -34, 1187, 238
0.061848, -494, -2008, 951, -34, 1187, 238
0.061982, -494, -2008, 951, -34, 1187, 238
0.062116, -494, -2008, 951, -34, 1187, 238
0.062250, -494, -2008, 951, -34, 1187, 238
0.062384, -494, -2008, 951, -34, 1187, 238
0.062518, -494, -2008, 951, -34, 1187, 238
0.062652, -494, -2008, 951, -34, 1187, 238
0.062786, -291, -2035, 488, 220, 1201, 491
0.062921, -291, -2035, 488, 220, 1201, 491
0.063070, -291, -2035, 488, 220, 1201, 491
0.063205, -291, -2035, 488, 220, 1201, 491
0.063339, -291, -2035, 488, 220, 1201, 491
0.063473, -291, -2035, 488, 220, 1201, 491
0.063607, -291, -2035, 488, 220, 1201, 491
0.063741, 341, -2050, 229, 277, 1214, 450
0.063875, 341, -2050, 229, 277, 1214, 450
0.064009, 341, -2050, 229, 277, 1214, 450
0.064143, 341, -2050, 229, 277, 1214, 450
0.064277, 341, -2050, 229, 277, 1214, 450
0.064412, 341, -2050, 229, 277, 1214, 450
0.064546, 341, -2050, 229, 277, 1214, 450
0.064680, 341, -2050, 229, 277, 1214, 450
0.064814, 642, -2030, 308, 387, 1213, 33
0.064949, 642, -2030, 308, 387, 1213, 33
0.065083, 642, -2030, 308, 387, 1213, 33
0.065217, 642, -2030, 308, 387, 1213, 33
0.065369, 642, -2030, 308, 387, 1213, 33
0.065503, 642, -2030, 308, 387, 1213, 33
0.065637, 642, -2030, 308, 387, 1213, 33
0.065770, 425, -2023, 218, 437, 1309, -397
0.065904, 425, -2023, 218, 437, 1309, -397
0.066037, 425, -2023, 218, 437, 1309, -397
0.066171, 425, -2023, 218, 437, 1309, -397
0.066304, 425, -2023, 218, 437, 1309, -397
0.066438, 425, -2023, 218, 437, 1309, -397
0.066571, 425, -2023, 218, 437, 1309, -397
0.066705, 425, -2023, 218, 437, 1309, -397
0.066838, 109, -2033, 166, 360, 1499, -570
0.066967, 109, -2033, 166, 360, 1499, -570
0.067101, 109, -2033, 166, 360, 1499, -570
0.067237, 109, -2033, 166, 360, 1499, -570
0.067370, 109, -2033, 166, 360, 1499, -570
0.067504, 109, -2033, 166, 360, 1499, -570
0.067637, 109, -2033, 166, 360, 1499, -570
0.067770, 109, -2033, 166, 360, 1499, -570
0.067904, -118, -2051, 345, 358, 1630, -547
0.068037, -118, -2051, 345, 358, 1630, -547
0.068171, -118, -2051, 345, 358, 1630, -547
0.068311, -118, -2051, 345, 358, 1630, -547
0.068444, -118, -2051, 345, 358, 1630, -547
0.068578, -118, -2051, 345, 358, 1630, -547
0.068711, -118, -2051, 345, 358, 1630, -547
0.068850, -284, -2050, 550, 515, 1675, -432
0.068984, -284, -2050, 550, 515, 1675, -432
0.069119, -284, -2050, 550, 515, 1675, -432
0.069253, -284, -2050, 550, 515, 1675, -432
0.069387, -284, -2050, 550, 515, 1675, -432
0.069521, -284, -2050, 550, 515, 1675, -432
0.069655, -284, -2050, 550, 515, 1675, -432
0.069789, -284, -2050, 550, 515, 1675, -432
0.069923, -502, -2058, 611, 750, 1663, -250
0.070057, -502, -2058, 611, 750, 1663, -250
0.070191, -502, -2058, 611, 750, 1663, -250
0.070325, -502, -2058, 611, 750, 1663, -250
0.070460, -502, -2058, 611, 750, 1663, -250
0.070594, -502, -2058, 611, 750, 1663, -250
0.070728, -502, -2058, 611, 750, 1663, -250
0.070862, -820, -2051, 376, 939, 1585, 49
0.070996, -820, -2051, 376, 939, 1585, 49
0.071130, -820, -2051, 376, 939, 1585, 49
0.071264, -820, -2051, 376, 939, 1585, 49
0.071398, -820, -2051, 376, 939, 1585, 49
0.071532, -820, -2051, 376, 939, 1585, 49
0.071666, -820, -2051, 376, 939, 1585, 49
0.071801, -820, -2051, 376, 939, 1585, 49
0.071935, -943, -2032, 75, 955, 1452, 500
0.072069, -943, -2032, 75, 955, 1452, 500
0.072203, -943, -2032, 75, 955, 1452, 500
0.072337, -943, -2032, 75, 955, 1452, 500
0.072471, -943, -2032, 75, 955, 1452, 500
0.072605, -943, -2032, 75, 955, 1452, 500
0.072739, -943, -2032, 75, 955, 1452, 500
0.072874, -575, -2025, 121, 894, 1234, 909
0.073008, -575, -2025, 121, 894, 1234, 909
0.073142, -575, -2025, 121, 894, 1234, 909
0.073276, -575, -2025, 121, 894, 1234, 909
0.073409, -575, -2025, 121, 894, 1234, 909
0.073543, -575, -2025, 121, 894, 1234, 909
0.073677, -575, -2025, 121, 894, 1234, 909
0.073811, -575, -2025, 121, 894, 1234, 909
0.073945, 17, -2007, 331, 928, 947, 963
0.074079, 17, -2007, 331, 928, 947, 963
0.074213, 17, -2007, 331, 928, 947, 963
0.074347, 17, -2007, 331, 928, 947, 963
0.074481, 17, -2007, 331, 928, 947, 963
0.074615, 17, -2007, 331, 928, 947, 963
0.074749, 17, -2007, 331, 928, 947, 963
0.074883, 17, -2007, 331, 928, 947, 963
0.075017, 253, -1995, 222, 965, 786, 685
0.075151, 253, -1995, 222, 965, 786, 685
0.075285, 253, -1995, 222, 965, 786, 685
0.075427, 253, -1995, 222, 965, 786, 685
0.075574, 253, -1995, 222, 965, 786, 685
0.075712, 253, -1995, 222, 965, 786, 685
0.075847, 253, -1995, 222, 965, 786, 685
0.075981, 109, -2051, -79, 832, 888, 423
0.076116, 109, -2051, -79, 832, 888, 423
0.076250, 109, -2051, -79, 832, 888, 423
0.076384, 109, -2051, -79, 832, 888, 423
0.076518, 109, -2051, -79, 832, 888, 423
0.076652, 109, -2051, -79, 832, 888, 423
0.076787, 109, -2051, -79, 832, 888, 423
0.076916, 156, -2102, -155, 608, 1097, 316
0.077051, 156, -2102, -155, 608, 1097, 316
0.077185, 156, -2102, -155, 608, 1097, 316
0.077319, 156, -2102, -155, 608, 1097, 316
0.077454, 156, -2102, -155, 608, 1097, 316
0.077588, 156, -2102, -155, 608, 1097, 316
0.077718, 156, -2102, -155, 608, 1097, 316
0.077853, 156, -2102, -155, 608, 1097, 316
0.077987, 595, -2028, -77, 437, 1200, 108
0.078121, 595, -2028, -77, 437, 1200, 108
0.078256, 595, -2028, -77, 437, 1200, 108
0.078407, 595, -2028, -77, 437, 1200, 108
0.078542, 595, -2028, -77, 437, 1200, 108
0.078676, 595, -2028, -77, 437, 1200, 108
0.078810, 595, -2028, -77, 437, 1200, 108
0.078944, 663, -1967, 34, 271, 1245, -345
0.079079, 663, -1967, 34, 271, 1245, -345
0.079213, 663, -1967, 34, 271, 1245, -345
0.079347, 663, -1967, 34, 271, 1245, -345
0.079481, 663, -1967, 34, 271, 1245, -345
0.079615, 663, -1967, 34, 271, 1245, -345
0.079750, 663, -1967, 34, 271, 1245, -345
0.079884, 663, -1967, 34, 271, 1245, -345
0.080018, 151, -2014, 149, 116, 1373, -675
0.080152, 151, -2014, 149, 116, 1373, -675
0.080286, 151, -2014, 149, 116, 1373, -675
0.080421, 151, -2014, 149, 116, 1373, -675
0.080555, 151, -2014, 149, 116, 1373, -675
0.080689, 151, -2014, 149, 116, 1373, -675
0.080823, 151, -2014, 149, 116, 1373, -675
0.080957, 151, -2014, 149, 116, 1373, -675
0.081092, -254, -2084, 223, 53, 1522, -635
0.081226, -254, -2084, 223, 53, 1522, -635
0.081360, -254, -2084, 223, 53, 1522, -635
0.081494, -254, -2084, 223, 53, 1522, -635
0.081629, -254, -2084, 223, 53, 1522, -635
0.081763, -254, -2084, 223, 53, 1522, -635
0.081897, -254, -2084, 223, 53, 1522, -635
0.082031, -435, -2094, 369, 130, 1579, -397
0.082165, -435, -2094, 369, 130, 1579, -397
0.082299, -435, -2094, 369, 130, 1579, -397
0.082434, -435, -2094, 369, 130, 1579, -397
0.082568, -435, -2094, 369, 130, 1579, -397
0.082702, -435, -2094, 369, 130, 1579, -397
0.082836, -435, -2094, 369, 130, 1579, -397
0.082970, -435, -2094, 369, 130, 1579, -397
0.083104, -319, -2044, 411, 299, 1488, -154
0.083238, -319, -2044, 411, 299, 1488, -154
0.083374, -319, -2044, 411, 299, 1488, -154
0.083509, -319, -2044, 411, 299, 1488, -154
0.083643, -319, -2044, 411, 299, 1488, -154
0.083778, -319, -2044, 411, 299, 1488, -154
0.083918, -319, -2044, 411, 299, 1488, -154
0.084054, 69, -2055, 291, 386, 1275, -130
0.084207, 69, -2055, 291, 386, 1275, -130
0.084351, 69, -2055, 291, 386, 1275, -130
0.084498, 69, -2055, 291, 386, 1275, -130
0.084637, 69, -2055, 291, 386, 1275, -130
0.084771, 69, -2055, 291, 386, 1275, -130
0.084907, 69, -2055, 291, 386, 1275, -130
0.085045, 399, -2046, 325, 442, 1046, -404
0.085186, 399, -2046, 325, 442, 1046, -404
0.085321, 399, -2046, 325, 442, 1046, -404
0.085456, 399, -2046, 325, 442, 1046, -404
0.085590, 399, -2046, 325, 442, 1046, -404
0.085724, 399, -2046, 325, 442, 1046, -404
0.085858, 399, -2046, 325, 442, 1046, -404
0.085992, 399, -2046, 325, 442, 1046, -404
0.086127, 483, -2014, 449, 575, 905, -815
0.086261, 483, -2014, 449, 575, 905, -815
0.086395, 483, -2014, 449, 575, 905, -815
0.086529, 483, -2014, 449, 575, 905, -815
0.086664, 483, -2014, 449, 575, 905, -815
0.086798, 483, -2014, 449, 575, 905, -815
0.086932, 483, -2014, 449, 575, 905, -815
0.087066, 294, -2077, 575, 737, 939, -1133
0.087201, 294, -2077, 575, 737, 939, -1133
0.087335, 294, -2077, 575, 737, 939, -1133
0.087469, 294, -2077, 575, 737, 939, -1133
0.087603, 294, -2077, 575, 737, 939, -1133
0.087737, 294, -2077, 575, 737, 939, -1133
0.087871, 294, -2077, 575, 737, 939, -1133
0.088005, 294, -2077, 575, 737, 939, -1133
0.088140, 125, -2094, 648, 958, 1048, -1271
0.088274, 125, -2094, 648, 958, 1048, -1271
0.088408, 125, -2094, 648, 958, 1048, -1271
0.088542, 125, -2094, 648, 958, 1048, -1271
0.088676, 125, -2094, 648, 958, 1048, -1271
0.088811, 125, -2094, 648, 958, 1048, -1271
0.088946, 125, -2094, 648, 958, 1048, -1271
0.089080, 10, -2032, 559, 1222, 1091, -1327
0.089213, 10, -2032, 559, 1222, 1091, -1327
0.089344, 10, -2032, 559, 1222, 1091, -1327
0.089479, 10, -2032, 559, 1222, 1091, -1327
0.089613, 10, -2032, 559, 1222, 1091, -1327
0.089748, 10, -2032, 559, 1222, 1091, -1327
0.089882, 10, -2032, 559, 1222, 1091, -1327
0.090016, 10, -2032, 559, 1222, 1091, -1327
0.090150, -232, -2011, 436, 1429, 1105, -1280
0.090284, -232, -2011, 436, 1429, 1105, -1280
0.090419, -232, -2011, 436, 1429, 1105, -1280
0.090553, -232, -2011, 436, 1429, 1105, -1280
0.090687, -232, -2011, 436, 1429, 1105, -1280
0.090821, -232, -2011, 436, 1429, 1105, -1280
0.090955, -232, -2011, 436, 1429, 1105, -1280
0.091090, -232, -2011, 436, 1429, 1105, -1280
0.091250, -501, -2042, 214, 1520, 1100, -1069
0.091386, -501, -2042, 214, 1520, 1100, -1069
0.091520, -501, -2042, 214, 1520, 1100, -1069
0.091654, -501, -2042, 214, 1520, 1100, -1069
0.091788, -501, -2042, 214, 1520, 1100, -1069
0.091922, -501, -2042, 214, 1520, 1100, -1069
0.092057, -501, -2042, 214, 1520, 1100, -1069
0.092191, -499, -2040, -70, 1449, 1020, -766
0.092325, -499, -2040, -70, 1449, 1020, -766
0.092459, -499, -2040, -70, 1449, 1020, -766
0.092593, -499, -2040, -70, 1449, 1020, -766
0.092728, -499, -2040, -70, 1449, 1020, -766
0.092863, -499, -2040, -70, 1449, 1020, -766
0.092997, -499, -2040, -70, 1449, 1020, -766
0.093131, -499, -2040, -70, 1449, 1020, -766
0.093265, -214, -2022, -224, 1244, 859, -563
0.093399, -214, -2022, -224, 1244, 859, -563
0.093534, -214, -2022, -224, 1244, 859, -563
0.093668, -214, -2022, -224, 1244, 859, -563
0.093802, -214, -2022, -224, 1244, 859, -563
0.093936, -214, -2022, -224, 1244, 859, -563
0.094070, -214, -2022, -224, 1244, 859, -563
0.094204, 78, -2050, -48, 1033, 701, -573
0.094339, 78, -2050, -48, 1033, 701, -573
0.094473, 78, -2050, -48, 1033, 701, -573
0.094607, 78, -2050, -48, 1033, 701, -573
0.094741, 78, -2050, -48, 1033, 701, -573
0.094875, 78, -2050, -48, 1033, 701, -573
0.095010, 78, -2050, -48, 1033, 701, -573
0.095144, 78, -2050, -48, 1033, 701, -573
0.095278, 350, -2053, 333, 982, 623, -760
0.095412, 350, -2053, 333, 982, 623, -760
0.095546, 350, -2053, 333, 982, 623, -760
0.095681, 350, -2053, 333, 982, 623, -760
0.095815, 350, -2053, 333, 982, 623, -760
0.095949, 350, -2053, 333, 982, 623, -760
0.096083, 350, -2053, 333, 982, 623, -760
0.096217, 443, -2013, 205, 991, 668, -1061
0.096351, 443, -2013, 205, 991, 668, -1061
0.096486, 443, -2013, 205, 991, 668, -1061
0.096620, 443, -2013, 205, 991, 668, -1061
0.096754, 443, -2013, 205, 991, 668, -1061
0.096888, 443, -2013, 205, 991, 668, -1061
0.097023, 443, -2013, 205, 991, 668, -1061
0.097157, 443, -2013, 205, 991, 668, -1061
0.097291, 272, -2015, -355, 745, 848, -1327
0.097425, 272, -2015, -355, 745, 848, -1327
0.097559, 272, -2015, -355, 745, 848, -1327
0.097693, 272, -2015, -355, 745, 848, -1327
0.097828, 272, -2015, -355, 745, 848, -1327
0.097962, 272, -2015, -355, 745, 848, -1327
0.098096, 272, -2015, -355, 745, 848, -1327
0.098230, 126, -2059, -601, 273, 1023, -1447
0.098364, 126, -2059, -601, 273, 1023, -1447
0.098498, 126, -2059, -601, 273, 1023, -1447
0.098633, 126, -2059, -601, 273, 1023, -1447
0.098767, 126, -2059, -601, 273, 1023, -1447
0.098901, 126, -2059, -601, 273, 1023, -1447
0.099035, 126, -2059, -601, 273, 1023, -1447
0.099169, 126, -2059, -601, 273, 1023, -1447
0.099303, 33, -2087, -155, -91, 1065, -1469
0.099438, 33, -2087, -155, -91, 1065, -1469
0.099572, 33, -2087, -155, -91, 1065, -1469
0.099706, 33, -2087, -155, -91, 1065, -1469
0.099840, 33, -2087, -155, -91, 1065, -1469
0.099974, 33, -2087, -155, -91, 1065, -1469
0.100108, 33, -2087, -155, -91, 1065, -1469
0.100243, -305, -2106, 600, -86, 1027, -1405
0.100377, -305, -2106, 600, -86, 1027, -1405
0.100511, -305, -2106, 600, -86, 1027, -1405
0.100645, -305, -2106, 600, -86, 1027, -1405
0.100780, -305, -2106, 600, -86, 1027, -1405
0.100914, -305, -2106, 600, -86, 1027, -1405
0.101048, -305, -2106, 600, -86, 1027, -1405
0.101181, -305, -2106, 600, -86, 1027, -1405
0.101315, -791, -2091, 693, 139, 1011, -1106
0.101449, -791, -2091, 693, 139, 1011, -1106
0.101583, -791, -2091, 693, 139, 1011, -1106
0.101717, -791, -2091, 693, 139, 1011, -1106
0.101851, -791, -2091, 693, 139, 1011, -1106
0.101985, -791, -2091, 693, 139, 1011, -1106
0.102119, -791, -2091, 693, 139, 1011, -1106
0.102253, -791, -2091, 693, 139, 1011, -1106
0.102386, -792, -2044, 341, 264, 991, -607
0.102521, -792, -2044, 341, 264, 991, -607
0.102655, -792, -2044, 341, 264, 991, -607
0.102789, -792, -2044, 341, 264, 991, -607
0.102923, -792, -2044, 341, 264, 991, -607
0.103056, -792, -2044, 341, 264, 991, -607
0.103190, -792, -2044, 341, 264, 991, -607
0.103324, -358, -2025, 324, 339, 882, -293
0.103459, -358, -2025, 324, 339, 882, -293
0.103593, -358, -2025, 324, 339, 882, -293
0.103732, -358, -2025, 324, 339, 882, -293
0.103867, -358, -2025, 324, 339, 882, -293
0.104001, -358, -2025, 324, 339, 882, -293
0.104135, -358, -2025, 324, 339, 882, -293
0.104269, -358, -2025, 324, 339, 882, -293
0.104403, -115, -2039, 367, 445, 735, -283
0.104538, -115, -2039, 367, 445, 735, -283
0.104672, -115, -2039, 367, 445, 735, -283
0.104805, -115, -2039, 367, 445, 735, -283
0.104940, -115, -2039, 367, 445, 735, -283
0.105074, -115, -2039, 367, 445, 735, -283
0.105208, -115, -2039, 367, 445, 735, -283
0.105342, -118, -2041, 204, 469, 623, -331
0.105476, -118, -2041, 204, 469, 623, -331
0.105611, -118, -2041, 204, 469, 623, -331
0.105745, -118, -2041, 204, 469, 623, -331
0.105879, -118, -2041, 204, 469, 623, -331
0.106013, -118, -2041, 204, 469, 623, -331
0.106147, -118, -2041, 204, 469, 623, -331
0.106281, -118, -2041, 204, 469, 623, -331
0.106415, -11, -2039, 35, 376, 538, -335
0.106550, -11, -2039, 35, 376, 538, -335
0.106684, -11, -2039, 35, 376, 538, -335
0.106818, -11, -2039, 35, 376, 538, -335
0.106952, -11, -2039, 35, 376, 538, -335
0.107086, -11, -2039, 35, 376, 538, -335
0.107220, -11, -2039, 35, 376, 538, -335
0.107355, 357, -2073, 185, 276, 530, -452
0.107489, 357, -2073, 185, 276, 530, -452
0.107623, 357, -2073, 185, 276, 530, -452
0.107757, 357, -2073, 185, 276, 530, -452
0.107891, 357, -2073, 185, 276, 530, -452
0.108025, 357, -2073, 185, 276, 530, -452
0.108159, 357, -2073, 185, 276, 530, -452
0.108293, 357, -2073, 185, 276, 530, -452
0.108427, 521, -2085, 450, 316, 666, -772
0.108562, 521, -2085, 450, 316, 666, -772
0.108696, 521, -2085, 450, 316, 666, -772
0.108830, 521, -2085, 450, 316, 666, -772
0.108964, 521, -2085, 450, 316, 666, -772
0.109099, 521, -2085, 450, 316, 666, -772
0.109233, 521, -2085, 450, 316, 666, -772
0.109367, 137, -2039, 356, 370, 924, -1040
0.109501, 137, -2039, 356, 370, 924, -1040
0.109636, 137, -2039, 356, 370, 924, -1040
0.109770, 137, -2039, 356, 370, 924, -1040
0.109904, 137, -2039, 356, 370, 924, -1040
0.110038, 137, -2039, 356, 370, 924, -1040
0.110172, 137, -2039, 356, 370, 924, -1040
0.110307, 137, -2039, 356, 370, 924, -1040
0.110441, -250, -2003, 268, 346, 1170, -997
0.110575, -250, -2003, 268, 346, 1170, -997
0.110709, -250, -2003, 268, 346, 1170, -997
0.110844, -250, -2003, 268, 346, 1170, -997
0.110978, -250, -2003, 268, 346, 1170, -997
0.111112, -250, -2003, 268, 346, 1170, -997
0.111246, -250, -2003, 268, 346, 1170, -997
0.111380, -207, -2014, 278, 373, 1261, -814
0.111514, -207, -2014, 278, 373, 1261, -814
0.111649, -207, -2014, 278, 373, 1261, -814
0.111783, -207, -2014, 278, 373, 1261, -814
0.111917, -207, -2014, 278, 373, 1261, -814
0.112051, -207, -2014, 278, 373, 1261, -814
0.112185, -207, -2014, 278, 373, 1261, -814
0.112319, -207, -2014, 278, 373, 1261, -814
0.112454, -94, -2031, 132, 373, 1253, -757
0.112588, -94, -2031, 132, 373, 1253, -757
0.112722, -94, -2031, 132, 373, 1253, -757
0.112857, -94, -2031, 132, 373, 1253, -757
0.112991, -94, -2031, 132, 373, 1253, -757
0.113125, -94, -2031, 132, 373, 1253, -757
0.113259, -94, -2031, 132, 373, 1253, -757
0.113393, -94, -2031, 132, 373, 1253, -757
0.113528, -152, -2049, 103, 282, 1248, -763
0.113662, -152, -2049, 103, 282, 1248, -763
0.113796, -152, -2049, 103, 282, 1248, -763
0.113930, -152, -2049, 103, 282, 1248, -763
0.114064, -152, -2049, 103, 282, 1248, -763
0.114198, -152, -2049, 103, 282, 1248, -763
0.114333, -152, -2049, 103, 282, 1248, -763
0.114467, -131, -2027, 116, 196, 1258, -717
0.114601, -131, -2027, 116, 196, 1258, -717
0.114735, -131, -2027, 116, 196, 1258, -717
0.114869, -131, -2027, 116, 196, 1258, -717
0.115003, -131, -2027, 116, 196, 1258, -717
0.115137, -131, -2027, 116, 196, 1258, -717
0.115272, -131, -2027, 116, 196, 1258, -717
0.115406, -131, -2027, 116, 196, 1258, -717
0.115540, -93, -1986, -23, 56, 1329, -691
0.115674, -93, -1986, -23, 56, 1329, -691
0.115809, -93, -1986, -23, 56, 1329, -691
0.115943, -93, -1986, -23, 56, 1329, -691
0.116077, -93, -1986, -23, 56, 1329, -691
0.116211, -93, -1986, -23, 56, 1329, -691
0.116345, -93, -1986, -23, 56, 1329, -691
0.116497, -185, -2016, -94, -182, 1475, -660
0.116632, -185, -2016, -94, -182, 1475, -660
0.116766, -185, -2016, -94, -182, 1475, -660
0.116901, -185, -2016, -94, -182, 1475, -660
0.117035, -185, -2016, -94, -182, 1475, -660
0.117169, -185, -2016, -94, -182, 1475, -660
0.117303, -185, -2016, -94, -182, 1475, -660
0.117437, -185, -2016, -94, -182, 1475, -660
0.117571, -69, -2016, -68, -403, 1579, -600
0.117706, -69, -2016, -68, -403, 1579, -600
0.117840, -69, -2016, -68, -403, 1579, -600
0.117974, -69, -2016, -68, -403, 1579, -600
0.118108, -69, -2016, -68, -403, 1579, -600
0.118243, -69, -2016, -68, -403, 1579, -600
0.118377, -69, -2016, -68, -403, 1579, -600
0.118511, 276, -1965, -121, -623, 1597, -692
0.118645, 276, -1965, -121, -623, 1597, -692
0.118779, 276, -1965, -121, -623, 1597, -692
0.118914, 276, -1965, -121, -623, 1597, -692
0.119048, 276, -1965, -121, -623, 1597, -692
0.119182, 276, -1965, -121, -623, 1597, -692
0.119316, 276, -1965, -121, -623, 1597, -692
0.119450, 276, -1965, -121, -623, 1597, -692
0.119584, 521, -1976, -171, -938, 1619, -1013
0.119719, 521, -1976, -171, -938, 1619, -1013
0.119853, 521, -1976, -171, -938, 1619, -1013
0.119987, 521, -1976, -171, -938, 1619, -1013
0.120121, 521, -1976, -171, -938, 1619, -1013
0.120255, 521, -1976, -171, -938, 1619, -1013
0.120390, 521, -1976, -171, -938, 1619, -1013
0.120524, 322, -2051, -90, -1252, 1693, -1402
0.120658, 322, -2051, -90, -1252, 1693, -1402
0.120792, 322, -2051, -90, -1252, 1693, -1402
0.120927, 322, -2051, -90, -1252, 1693, -1402
0.121061, 322, -2051, -90, -1252, 1693, -1402
0.121195, 322, -2051, -90, -1252, 1693, -1402
0.121329, 322, -2051, -90, -1252, 1693, -1402
0.121464, 322, -2051, -90, -1252, 1693, -1402
0.121598, -566, -2146, 269, -1390, 1829, -1449
0.121732, -566, -2146, 269, -1390, 1829, -1449
0.121866, -566, -2146, 269, -1390, 1829, -1449
0.122000, -566, -2146, 269, -1390, 1829, -1449
0.122135, -566, -2146, 269, -1390, 1829, -1449
0.122269, -566, -2146, 269, -1390, 1829, -1449
0.122403, -566, -2146, 269, -1390, 1829, -1449
0.122537, -1064, -2156, 956, -1166, 1927, -901
0.122672, -1064, -2156, 956, -1166, 1927, -901
0.122806, -1064, -2156, 956, -1166, 1927, -901
0.122940, -1064, -2156, 956, -1166, 1927, -901
0.123074, -1064, -2156, 956, -1166, 1927, -901
0.123208, -1064, -2156, 956, -1166, 1927, -901
0.123343, -1064, -2156, 956, -1166, 1927, -901
0.123477, -1064, -2156, 956, -1166, 1927, -901
0.123611, -350, -2054, 1199, -627, 1802, -373
0.123745, -350, -2054, 1199, -627, 1802, -373
0.123879, -350, -2054, 1199, -627, 1802, -373
0.124013, -350, -2054, 1199, -627, 1802, -373
0.124148, -350, -2054, 1199, -627, 1802, -373
0.124282, -350, -2054, 1199, -627, 1802, -373
0.124416, -350, -2054, 1199, -627, 1802, -373
0.124550, -350, -2054, 1199, -627, 1802, -373
0.124684, 260, -2015, 836, -157, 1580, -467
0.124818, 260, -2015, 836, -157, 1580, -467
0.124953, 260, -2015, 836, -157, 1580, -467
0.125087, 260, -2015, 836, -157, 1580, -467
0.125221, 260, -2015, 836, -157, 1580, -467
0.125355, 260, -2015, 836, -157, 1580, -467
0.125490, 260, -2015, 836, -157, 1580, -467
0.125624, 274, -2059, 479, 132, 1461, -806
0.125758, 274, -2059, 479, 132, 1461, -806
0.125892, 274, -2059, 479, 132, 1461, -806
0.126026, 274, -2059, 479, 132, 1461, -806
0.126160, 274, -2059, 479, 132, 1461, -806
0.126295, 274, -2059, 479, 132, 1461, -806
0.126429, 274, -2059, 479, 132, 1461, -806
0.126563, 274, -2059, 479, 132, 1461, -806
0.126697, 324, -2103, 195, 280, 1416, -1049
0.126831, 324, -2103, 195, 280, 1416, -1049
0.126965, 324, -2103, 195, 280, 1416, -1049
0.127099, 324, -2103, 195, 280, 1416, -1049
0.127233, 324, -2103, 195, 280, 1416, -1049
0.127368, 324, -2103, 195, 280, 1416, -1049
0.127502, 324, -2103, 195, 280, 1416, -1049
0.127636, 48, -2103, 142, 296, 1448, -1200
0.127770, 48, -2103, 142, 296, 1448, -1200
0.127904, 48, -2103, 142, 296, 1448, -1200
0.128038, 48, -2103, 142, 296, 1448, -1200
0.128173, 48, -2103, 142, 296, 1448, -1200
0.128307, 48, -2103, 142, 296, 1448, -1200
0.128441, 48, -2103, 142, 296, 1448, -1200
0.128575, 48, -2103, 142, 296, 1448, -1200
0.128714, -408, -2029, 239, 318, 1540, -1049
0.128851, -408, -2029, 239, 318, 1540, -1049
0.128985, -408, -2029, 239, 318, 1540, -1049
0.129119, -408, -2029, 239, 318, 1540, -1049
0.129252, -408, -2029, 239, 318, 1540, -1049
0.129386, -408, -2029, 239, 318, 1540, -1049
0.129519, -408, -2029, 239, 318, 1540, -1049
0.129652, -362, -1983, 180, 321, 1630, -685
0.129787, -362, -1983, 180, 321, 1630, -685
0.129921, -362, -1983, 180, 321, 1630, -685
0.130055, -362, -1983, 180, 321, 1630, -685
0.130189, -362, -1983, 180, 321, 1630, -685
0.130323, -362, -1983, 180, 321, 1630, -685
0.130457, -362, -1983, 180, 321, 1630, -685
0.130591, -362, -1983, 180, 321, 1630, -685
0.130725, -220, -2017, 115, 240, 1694, -480
0.130859, -220, -2017, 115, 240, 1694, -480
0.130993, -220, -2017, 115, 240, 1694, -480
0.131127, -220, -2017, 115, 240, 1694, -480
0.131261, -220, -2017, 115, 240, 1694, -480
0.131394, -220, -2017, 115, 240, 1694, -480
0.131528, -220, -2017, 115, 240, 1694, -480
0.131662, -566, -2043, 206, 178, 1709, -325
0.131797, -566, -2043, 206, 178, 1709, -325
0.131930, -566, -2043, 206, 178, 1709, -325
0.132065, -566, -2043, 206, 178, 1709, -325
0.132198, -566, -2043, 206, 178, 1709, -325
0.132332, -566, -2043, 206, 178, 1709, -325
0.132466, -566, -2043, 206, 178, 1709, -325
0.132601, -566, -2043, 206, 178, 1709, -325
0.132735, -797, -2030, 383, 217, 1629, 73
0.132869, -797, -2030, 383, 217, 1629, 73
0.133003, -797, -2030, 383, 217, 1629, 73
0.133138, -797, -2030, 383, 217, 1629, 73
0.133272, -797, -2030, 383, 217, 1629, 73
0.133406, -797, -2030, 383, 217, 1629, 73
0.133540, -797, -2030, 383, 217, 1629, 73
0.133674, -797, -2030, 383, 217, 1629, 73
0.133808, -362, -2020, 400, 321, 1406, 443
0.133942, -362, -2020, 400, 321, 1406, 443
0.134077, -362, -2020, 400, 321, 1406, 443
0.134211, -362, -2020, 400, 321, 1406, 443
0.134345, -362, -2020, 400, 321, 1406, 443
0.134479, -362, -2020, 400, 321, 1406, 443
0.134613, -362, -2020, 400, 321, 1406, 443
0.134747, 5, -2028, 120, 355, 1153, 445
0.134882, 5, -2028, 120, 355, 1153, 445
0.135016, 5, -2028, 120, 355, 1153, 445
0.135150, 5, -2028, 120, 355, 1153, 445
0.135284, 5, -2028, 120, 355, 1153, 445
0.135419, 5, -2028, 120, 355, 1153, 445
0.135553, 5, -2028, 120, 355, 1153, 445
0.135687, 5, -2028, 120, 355, 1153, 445
0.135821, -106, -2054, -102, 237, 1044, 337
0.135955, -106, -2054, -102, 237, 1044, 337
0.136090, -106, -2054, -102, 237, 1044, 337
0.136224, -106, -2054, -102, 237, 1044, 337
0.136358, -106, -2054, -102, 237, 1044, 337
0.136492, -106, -2054, -102, 237, 1044, 337
0.136626, -106, -2054, -102, 237, 1044, 337
0.136760, -179, -2069, -63, 70, 1062, 388
0.136895, -179, -2069, -63, 70, 1062, 388
0.137029, -179, -2069, -63, 70, 1062, 388
0.137164, -179, -2069, -63, 70, 1062, 388
0.137298, -179, -2069, -63, 70, 1062, 388
0.137432, -179, -2069, -63, 70, 1062, 388
0.137566, -179, -2069, -63, 70, 1062, 388
0.137700, -179, -2069, -63, 70, 1062, 388
0.137834, 22, -2030, -18, -78, 1107, 453
0.137968, 22, -2030, -18, -78, 1107, 453
0.138103, 22, -2030, -18, -78, 1107, 453
0.138237, 22, -2030, -18, -78, 1107, 453
0.138371, 22, -2030, -18, -78, 1107, 453
0.138505, 22, -2030, -18, -78, 1107, 453
0.138639, 22, -2030, -18, -78, 1107, 453
0.138773, 484, -1986, -146, -275, 1136, 324
0.138908, 484, -1986, -146, -275, 1136, 324
0.139042, 484, -1986, -146, -275, 1136, 324
0.139176, 484, -1986, -146, -275, 1136, 324
0.139310, 484, -1986, -146, -275, 1136, 324
0.139444, 484, -1986, -146, -275, 1136, 324
0.139578, 484, -1986, -146, -275, 1136, 324
0.139712, 484, -1986, -146, -275, 1136, 324
0.139847, 1023, -1952, -521, -635, 1163, -142
0.139981, 1023, -1952, -521, -635, 1163, -142
0.140115, 1023, -1952, -521, -635, 1163, -142
0.140249, 1023, -1952, -521, -635, 1163, -142
0.140383, 1023, -1952, -521, -635, 1163, -142
0.140518, 1023, -1952, -521, -635, 1163, -142
0.140652, 1023, -1952, -521, -635, 1163, -142
0.140786, 810, -1998, -655, -1215, 1296, -805
0.140921, 810, -1998, -655, -1215, 1296, -805
0.141054, 810, -1998, -655, -1215, 1296, -805
0.141188, 810, -1998, -655, -1215, 1296, -805
0.141321, 810, -1998, -655, -1215, 1296, -805
0.141461, 810, -1998, -655, -1215, 1296, -805
0.141595, 810, -1998, -655, -1215, 1296, -805
0.141728, 810, -1998, -655, -1215, 1296, -805
0.141861, -599, -2186, 547, -1484, 1568, -958
0.141995, -599, -2186, 547, -1484, 1568, -958
0.142129, -599, -2186, 547, -1484, 1568, -958
0.142262, -599, -2186, 547, -1484, 1568, -958
0.142395, -599, -2186, 547, -1484, 1568, -958
0.142529, -599, -2186, 547, -1484, 1568, -958
0.142662, -599, -2186, 547, -1484, 1568, -958
0.142796, -599, -2186, 547, -1484, 1568, -958
0.142929, -1387, -2178, 1812, -862, 1733, -190
0.143063, -1387, -2178, 1812, -862, 1733, -190
0.143196, -1387, -2178, 1812, -862, 1733, -190
0.143330, -1387, -2178, 1812, -862, 1733, -190
0.143463, -1387, -2178, 1812, -862, 1733, -190
0.143597, -1387, -2178, 1812, -862, 1733, -190
0.143730, -1387, -2178, 1812, -862, 1733, -190
0.143864, -275, -1991, 1292, -51, 1601, 507
0.143997, -275, -1991, 1292, -51, 1601, 507
0.144131, -275, -1991, 1292, -51, 1601, 507
0.144265, -275, -1991, 1292, -51, 1601, 507
0.144400, -275, -1991, 1292, -51, 1601, 507
0.144534, -275, -1991, 1292, -51, 1601, 507
0.144667, -275, -1991, 1292, -51, 1601, 507
0.144801, -275, -1991, 1292, -51, 1601, 507
0.144932, 644, -2009, 599, 316, 1348, 215
0.145067, 644, -2009, 599, 316, 1348, 215
0.145201, 644, -2009, 599, 316, 1348, 215
0.145335, 644, -2009, 599, 316, 1348, 215
0.145469, 644, -2009, 599, 316, 1348, 215
0.145603, 644, -2009, 599, 316, 1348, 215
0.145737, 644, -2009, 599, 316, 1348, 215
0.145872, 345, -2093, 760, 691, 1151, -384
0.146006, 345, -2093, 760, 691, 1151, -384
0.146140, 345, -2093, 760, 691, 1151, -384
0.146274, 345, -2093, 760, 691, 1151, -384
0.146408, 345, -2093, 760, 691, 1151, -384
0.146543, 345, -2093, 760, 691, 1151, -384
0.146677, 345, -2093, 760, 691, 1151, -384
0.146811, 345, -2093, 760, 691, 1151, -384
0.146945, 275, -2033, 726, 1160, 1067, -633
0.147079, 275, -2033, 726, 1160, 1067, -633
0.147213, 275, -2033, 726, 1160, 1067, -633
0.147348, 275, -2033, 726, 1160, 1067, -633
0.147482, 275, -2033, 726, 1160, 1067, -633
0.147616, 275, -2033, 726, 1160, 1067, -633
0.147750, 275, -2033, 726, 1160, 1067, -633
0.147884, 683, -1998, 213, 1327, 1067, -895
0.148018, 683, -1998, 213, 1327, 1067, -895
0.148153, 683, -1998, 213, 1327, 1067, -895
0.148287, 683, -1998, 213, 1327, 1067, -895
0.148421, 683, -1998, 213, 1327, 1067, -895
0.148555, 683, -1998, 213, 1327, 1067, -895
0.148689, 683, -1998, 213, 1327, 1067, -895
0.148823, 683, -1998, 213, 1327, 1067, -895
0.148958, 641, -2076, -127, 1199, 1174, -1332
0.149092, 641, -2076, -127, 1199, 1174, -1332
0.149226, 641, -2076, -127, 1199, 1174, -1332
0.149360, 641, -2076, -127, 1199, 1174, -1332
0.149494, 641, -2076, -127, 1199, 1174, -1332
0.149629, 641, -2076, -127, 1199, 1174, -1332
0.149763, 641, -2076, -127, 1199, 1174, -1332
0.149897, 165, -2095, 89, 1093, 1477, -1556
0.150031, 165, -2095, 89, 1093, 1477, -1556
0.150165, 165, -2095, 89, 1093, 1477, -1556
0.150299, 165, -2095, 89, 1093, 1477, -1556
0.150434, 165, -2095, 89, 1093, 1477, -1556
0.150568, 165, -2095, 89, 1093, 1477, -1556
0.150702, 165, -2095, 89, 1093, 1477, -1556
0.150836, 165, -2095, 89, 1093, 1477, -1556
0.150970, -188, -2041, 356, 1123, 1849, -1440
0.151105, -188, -2041, 356, 1123, 1849, -1440
0.151239, -188, -2041, 356, 1123, 1849, -1440
0.151373, -188, -2041, 356, 1123, 1849, -1440
0.151507, -188, -2041, 356, 1123, 1849, -1440
0.151641, -188, -2041, 356, 1123, 1849, -1440
0.151775, -188, -2041, 356, 1123, 1849, -1440
0.151910, -188, -2041, 356, 1123, 1849, -1440
0.152044, -417, -2034, 298, 1132, 2053, -1179
0.152178, -417, -2034, 298, 1132, 2053, -1179
0.152312, -417, -2034, 298, 1132, 2053, -1179
0.152446, -417, -2034, 298, 1132, 2053, -1179
0.152580, -417, -2034, 298, 1132, 2053, -1179
0.152715, -417, -2034, 298, 1132, 2053, -1179
0.152849, -417, -2034, 298, 1132, 2053, -1179
0.152983, -622, -2059, 200, 1085, 2006, -873
0.153118, -622, -2059, 200, 1085, 2006, -873
0.153252, -622, -2059, 200, 1085, 2006, -873
0.153386, -622, -2059, 200, 1085, 2006, -873
0.153520, -622, -2059, 200, 1085, 2006, -873
0.153662, -622, -2059, 200, 1085, 2006, -873
0.153796, -622, -2059, 200, 1085, 2006, -873
0.153930, -622, -2059, 200, 1085, 2006, -873
0.154065, -725, -2022, 302, 1129, 1806, -515
0.154199, -725, -2022, 302, 1129, 1806, -515
0.154333, -725, -2022, 302, 1129, 1806, -515
0.154467, -725, -2022, 302, 1129, 1806, -515
0.154601, -725, -2022, 302, 1129, 1806, -515
0.154735, -725, -2022, 302, 1129, 1806, -515
0.154869, -725, -2022, 302, 1129, 1806, -515
0.155004, -517, -1963, 434, 1258, 1549, -179
0.155138, -517, -1963, 434, 1258, 1549, -179
0.155272, -517, -1963, 434, 1258, 1549, -179
0.155406, -517, -1963, 434, 1258, 1549, -179
0.155540, -517, -1963, 434, 1258, 1549, -179
0.155674, -517, -1963, 434, 1258, 1549, -179
0.155808, -517, -1963, 434, 1258, 1549, -179
0.155943, -517, -1963, 434, 1258, 1549, -179
0.156077, -72, -1978, 450, 1367, 1290, -74
0.156211, -72, -1978, 450, 1367, 1290, -74
0.156345, -72, -1978, 450, 1367, 1290, -74
0.156479, -72, -1978, 450, 1367, 1290, -74
0.156613, -72, -1978, 450, 1367, 1290, -74
0.156747, -72, -1978, 450, 1367, 1290, -74
0.156882, -72, -1978, 450, 1367, 1290, -74
0.157016, 211, -2034, 199, 1405, 1128, -250
0.157150, 211, -2034, 199, 1405, 1128, -250
0.157284, 211, -2034, 199, 1405, 1128, -250
0.157419, 211, -2034, 199, 1405, 1128, -250
0.157553, 211, -2034, 199, 1405, 1128, -250
0.157687, 211, -2034, 199, 1405, 1128, -250
0.157821, 211, -2034, 199, 1405, 1128, -250
0.157955, 211, -2034, 199, 1405, 1128, -250
0.158089, 239, -2102, -328, 1226, 1155, -495
0.158224, 239, -2102, -328, 1226, 1155, -495
0.158358, 239, -2102, -328, 1226, 1155, -495
0.158492, 239, -2102, -328, 1226, 1155, -495
0.158626, 239, -2102, -328, 1226, 1155, -495
0.158760, 239, -2102, -328, 1226, 1155, -495
0.158894, 239, -2102, -328, 1226, 1155, -495
0.159028, 181, -2143, -596, 801, 1310, -624
0.159163, 181, -2143, -596, 801, 1310, -624
0.159297, 181, -2143, -596, 801, 1310, -624
0.159431, 181, -2143, -596, 801, 1310, -624
0.159565, 181, -2143, -596, 801, 1310, -624
0.159699, 181, -2143, -596, 801, 1310, -624
0.159833, 181, -2143, -596, 801, 1310, -624
0.159967, 181, -2143, -596, 801, 1310, -624
0.160101, -5, -2094, -451, 375, 1433, -614
0.160236, -5, -2094, -451, 375, 1433, -614
0.160370, -5, -2094, -451, 375, 1433, -614
0.160504, -5, -2094, -451, 375, 1433, -614
0.160638, -5, -2094, -451, 375, 1433, -614
0.160772, -5, -2094, -451, 375, 1433, -614
0.160907, -5, -2094, -451, 375, 1433, -614
0.161041, -5, -2094, -451, 375, 1433, -614
0.161175, -290, -2009, -407, -24, 1514, -450
0.161309, -290, -2009, -407, -24, 1514, -450
0.161443, -290, -2009, -407, -24, 1514, -450
0.161577, -290, -2009, -407, -24, 1514, -450
0.161711, -290, -2009, -407, -24, 1514, -450
0.161845, -290, -2009, -407, -24, 1514, -450
0.161979, -290, -2009, -407, -24, 1514, -450
0.162113, -269, -1959, -470, -537, 1565, -190
0.162248, -269, -1959, -470, -537, 1565, -190
0.162382, -269, -1959, -470, -537, 1565, -190
0.162516, -269, -1959, -470, -537, 1565, -190
0.162650, -269, -1959, -470, -537, 1565, -190
0.162784, -269, -1959, -470, -537, 1565, -190
0.162918, -269, -1959, -470, -537, 1565, -190
0.163052, -269, -1959, -470, -537, 1565, -190
0.163186, 84, -1978, -301, -1037, 1511, -84
0.163320, 84, -1978, -301, -1037, 1511, -84
0.163454, 84, -1978, -301, -1037, 1511, -84
0.163588, 84, -1978, -301, -1037, 1511, -84
0.163722, 84, -1978, -301, -1037, 1511, -84
0.163856, 84, -1978, -301, -1037, 1511, -84
0.163990, 84, -1978, -301, -1037, 1511, -84
0.164124, 297, -2040, 354, -1238, 1410, -225
0.164259, 297, -2040, 354, -1238, 1410, -225
0.164393, 297, -2040, 354, -1238, 1410, -225
0.164527, 297, -2040, 354, -1238, 1410, -225
0.164661, 297, -2040, 354, -1238, 1410, -225
0.164795, 297, -2040, 354, -1238, 1410, -225
0.164929, 297, -2040, 354, -1238, 1410, -225
0.165064, 297, -2040, 354, -1238, 1410, -225
0.165198, 210, -2046, 1038, -968, 1342, -429
0.165332, 210, -2046, 1038, -968, 1342, -429
0.165466, 210, -2046, 1038, -968, 1342, -429
0.165600, 210, -2046, 1038, -968, 1342, -429
0.165734, 210, -2046, 1038, -968, 1342, -429
0.165868, 210, -2046, 1038, -968, 1342, -429
0.166011, 210, -2046, 1038, -968, 1342, -429
0.166145, -7, -2008, 754, -570, 1322, -528
0.166280, -7, -2008, 754, -570, 1322, -528
0.166414, -7, -2008, 754, -570, 1322, -528
0.166548, -7, -2008, 754, -570, 1322, -528
0.166682, -7, -2008, 754, -570, 1322, -528
0.166816, -7, -2008, 754, -570, 1322, -528
0.166950, -7, -2008, 754, -570, 1322, -528
0.167084, -7, -2008, 754, -570, 1322, -528
0.167218, -488, -2081, 30, -516, 1367, -442
0.167352, -488, -2081, 30, -516, 1367, -442
0.167486, -488, -2081, 30, -516, 1367, -442
0.167620, -488, -2081, 30, -516, 1367, -442
0.167754, -488, -2081, 30, -516, 1367, -442
0.167888, -488, -2081, 30, -516, 1367, -442
0.168022, -488, -2081, 30, -516, 1367, -442
0.168156, -1196, -2187, -196, -653, 1387, 18
0.168290, -1196, -2187, -196, -653, 1387, 18
0.168424, -1196, -2187, -196, -653, 1387, 18
0.168558, -1196, -2187, -196, -653, 1387, 18
0.168693, -1196, -2187, -196, -653, 1387, 18
0.168827, -1196, -2187, -196, -653, 1387, 18
0.168961, -1196, -2187, -196, -653, 1387, 18
0.169095, -1196, -2187, -196, -653, 1387, 18
0.169229, -1246, -2122, -139, -768, 1245, 818
0.169364, -1246, -2122, -139, -768, 1245, 818
0.169498, -1246, -2122, -139, -768, 1245, 818
0.169632, -1246, -2122, -139, -768, 1245, 818
0.169766, -1246, -2122, -139, -768, 1245, 818
0.169900, -1246, -2122, -139, -768, 1245, 818
0.170034, -1246, -2122, -139, -768, 1245, 818
0.170168, -483, -2035, 69, -895, 951, 1358
0.170303, -483, -2035, 69, -895, 951, 1358
0.170437, -483, -2035, 69, -895, 951, 1358
0.170571, -483, -2035, 69, -895, 951, 1358
0.170705, -483, -2035, 69, -895, 951, 1358
0.170839, -483, -2035, 69, -895, 951, 1358
0.170973, -483, -2035, 69, -895, 951, 1358
0.171107, -483, -2035, 69, -895, 951, 1358
0.171242, 160, -2039, 271, -983, 699, 1307
0.171376, 160, -2039, 271, -983, 699, 1307
0.171510, 160, -2039, 271, -983, 699, 1307
0.171644, 160, -2039, 271, -983, 699, 1307
0.171778, 160, -2039, 271, -983, 699, 1307
0.171912, 160, -2039, 271, -983, 699, 1307
0.172046, 160, -2039, 271, -983, 699, 1307
0.172181, 160, -2039, 271, -983, 699, 1307
0.172315, 405, -2031, 378, -1018, 693, 965
0.172449, 405, -2031, 378, -1018, 693, 965
0.172583, 405, -2031, 378, -1018, 693, 965
0.172717, 405, -2031, 378, -1018, 693, 965
0.172852, 405, -2031, 378, -1018, 693, 965
0.172986, 405, -2031, 378, -1018, 693, 965
0.173120, 405, -2031, 378, -1018, 693, 965
0.173254, 476, -1997, 684, -918, 893, 601
0.173389, 476, -1997, 684, -918, 893, 601
0.173523, 476, -1997, 684, -918, 893, 601
0.173657, 476, -1997, 684, -918, 893, 601
0.173791, 476, -1997, 684, -918, 893, 601
0.173925, 476, -1997, 684, -918, 893, 601
0.174059, 476, -1997, 684, -918, 893, 601
0.174194, 476, -1997, 684, -918, 893, 601
0.174328, 635, -2003, 752, -653, 1098, 237
0.174462, 635, -2003, 752, -653, 1098, 237
0.174596, 635, -2003, 752, -653, 1098, 237
0.174730, 635, -2003, 752, -653, 1098, 237
0.174864, 635, -2003, 752, -653, 1098, 237
0.174998, 635, -2003, 752, -653, 1098, 237
0.175133, 635, -2003, 752, -653, 1098, 237
0.175267, 872, -2025, 307, -501, 1226, -247
0.175401, 872, -2025, 307, -501, 1226, -247
0.175535, 872, -2025, 307, -501, 1226, -247
0.175669, 872, -2025, 307, -501, 1226, -247
0.175804, 872, -2025, 307, -501, 1226, -247
0.175938, 872, -2025, 307, -501, 1226, -247
0.176072, 872, -2025, 307, -501, 1226, -247
0.176206, 872, -2025, 307, -501, 1226, -247
0.176340, 484, -2011, 126, -510, 1339, -762
0.176474, 484, -2011, 126, -510, 1339, -762
0.176608, 484, -2011, 126, -510, 1339, -762
0.176742, 484, -2011, 126, -510, 1339, -762
0.176877, 484, -2011, 126, -510, 1339, -762
0.177011, 484, -2011, 126, -510, 1339, -762
0.177145, 484, -2011, 126, -510, 1339, -762
0.177279, -510, -2009, 282, -449, 1503, -809
0.177414, -510, -2009, 282, -449, 1503, -809
0.177548, -510, -2009, 282, -449, 1503, -809
0.177682, -510, -2009, 282, -449, 1503, -809
0.177816, -510, -2009, 282, -449, 1503, -809
0.177950, -510, -2009, 282, -449, 1503, -809
0.178084, -510, -2009, 282, -449, 1503, -809
0.178218, -510, -2009, 282, -449, 1503, -809
0.178352, -855, -2021, 141, -433, 1656, -283
0.178487, -855, -2021, 141, -433, 1656, -283
0.178625, -855, -2021, 141, -433, 1656, -283
0.178760, -855, -2021, 141, -433, 1656, -283
0.178894, -855, -2021, 141, -433, 1656, -283
0.179028, -855, -2021, 141, -433, 1656, -283
0.179162, -855, -2021, 141, -433, 1656, -283
0.179296, -527, -2066, 94, -548, 1650, 204
0.179431, -527, -2066, 94, -548, 1650, 204
0.179565, -527, -2066, 94, -548, 1650, 204
0.179699, -527, -2066, 94, -548, 1650, 204
0.179833, -527, -2066, 94, -548, 1650, 204
0.179967, -527, -2066, 94, -548, 1650, 204
0.180102, -527, -2066, 94, -548, 1650, 204
0.180236, -527, -2066, 94, -548, 1650, 204
0.180370, -473, -2116, 394, -500, 1517, 437
0.180504, -473, -2116, 394, -500, 1517, 437
0.180638, -473, -2116, 394, -500, 1517, 437
0.180772, -473, -2116, 394, -500, 1517, 437
0.180907, -473, -2116, 394, -500, 1517, 437
0.181041, -473, -2116, 394, -500, 1517, 437
0.181175, -473, -2116, 394, -500, 1517, 437
0.181309, -473, -2116, 394, -500, 1517, 437
0.181443, -397, -2088, 529, -317, 1401, 654
0.181577, -397, -2088, 529, -317, 1401, 654
0.181711, -397, -2088, 529, -317, 1401, 654
0.181846, -397, -2088, 529, -317, 1401, 654
0.181980, -397, -2088, 529, -317, 1401, 654
0.182114, -397, -2088, 529, -317, 1401, 654
0.182248, -397, -2088, 529, -317, 1401, 654
0.182382, -147, -2034, 567, -157, 1307, 782
0.182516, -147, -2034, 567, -157, 1307, 782
0.182650, -147, -2034, 567, -157, 1307, 782
0.182784, -147, -2034, 567, -157, 1307, 782
0.182918, -147, -2034, 567, -157, 1307, 782
0.183052, -147, -2034, 567, -157, 1307, 782
0.183186, -147, -2034, 567, -157, 1307, 782
0.183320, -147, -2034, 567, -157, 1307, 782
0.183454, -3, -2000, 504, 15, 1200, 762
0.183589, -3, -2000, 504, 15, 1200, 762
0.183723, -3, -2000, 504, 15, 1200, 762
0.183857, -3, -2000, 504, 15, 1200, 762
0.183991, -3, -2000, 504, 15, 1200, 762
0.184125, -3, -2000, 504, 15, 1200, 762
0.184259, -3, -2000, 504, 15, 1200, 762
0.184393, 305, -1998, 366, 137, 1150, 654
0.184528, 305, -1998, 366, 137, 1150, 654
0.184662, 305, -1998, 366, 137, 1150, 654
0.184796, 305, -1998, 366, 137, 1150, 654
0.184930, 305, -1998, 366, 137, 1150, 654
0.185064, 305, -1998, 366, 137, 1150, 654
0.185198, 305, -1998, 366, 137, 1150, 654
0.185332, 305, -1998, 366, 137, 1150, 654
0.185466, 583, -2020, 449, 253, 1184, 373
0.185601, 583, -2020, 449, 253, 1184, 373
0.185735, 583, -2020, 449, 253, 1184, 373
0.185869, 583, -2020, 449, 253, 1184, 373
0.186003, 583, -2020, 449, 253, 1184, 373
0.186137, 583, -2020, 449, 253, 1184, 373
0.186271, 583, -2020, 449, 253, 1184, 373
0.186405, 353, -2051, 397, 416, 1284, 52
0.186539, 353, -2051, 397, 416, 1284, 52
0.186673, 353, -2051, 397, 416, 1284, 52
0.186807, 353, -2051, 397, 416, 1284, 52
0.186941, 353, -2051, 397, 416, 1284, 52
0.187075, 353, -2051, 397, 416, 1284, 52
0.187209, 353, -2051, 397, 416, 1284, 52
0.187343, 353, -2051, 397, 416, 1284, 52
0.187478, 19, -2069, 94, 458, 1449, -9
0.187612, 19, -2069, 94, 458, 1449, -9
0.187746, 19, -2069, 94, 458, 1449, -9
0.187880, 19, -2069, 94, 458, 1449, -9
0.188014, 19, -2069, 94, 458, 1449, -9
0.188148, 19, -2069, 94, 458, 1449, -9
0.188282, 19, -2069, 94, 458, 1449, -9
0.188416, 63, -2073, -24, 376, 1559, 94
0.188551, 63, -2073, -24, 376, 1559, 94
0.188685, 63, -2073, -24, 376, 1559, 94
0.188819, 63, -2073, -24, 376, 1559, 94
0.188953, 63, -2073, -24, 376, 1559, 94
0.189088, 63, -2073, -24, 376, 1559, 94
0.189222, 63, -2073, -24, 376, 1559, 94
0.189356, 63, -2073, -24, 376, 1559, 94
0.189490, 36, -2125, -62, 281, 1583, 136
0.189624, 36, -2125, -62, 281, 1583, 136
0.189758, 36, -2125, -62, 281, 1583, 136
0.189892, 36, -2125, -62, 281, 1583, 136
0.190026, 36, -2125, -62, 281, 1583, 136
0.190160, 36, -2125, -62, 281, 1583, 136
0.190294, 36, -2125, -62, 281, 1583, 136
0.190429, 36, -2125, -62, 281, 1583, 136
0.190563, -72, -2111, -184, 109, 1590, 217
0.190697, -72, -2111, -184, 109, 1590, 217
0.190831, -72, -2111, -184, 109, 1590, 217
0.190965, -72, -2111, -184, 109, 1590, 217
0.191099, -72, -2111, -184, 109, 1590, 217
0.191233, -72, -2111, -184, 109, 1590, 217
0.191367, -72, -2111, -184, 109, 1590, 217
0.191501, 141, -2004, -284, -155, 1510, 295
0.191640, 141, -2004, -284, -155, 1510, 295
0.191774, 141, -2004, -284, -155, 1510, 295
0.191908, 141, -2004, -284, -155, 1510, 295
0.192042, 141, -2004, -284, -155, 1510, 295
0.192176, 141, -2004, -284, -155, 1510, 295
0.192310, 141, -2004, -284, -155, 1510, 295
0.192444, 141, -2004, -284, -155, 1510, 295
0.192578, 267, -2009, -286, -476, 1370, 201
0.192713, 267, -2009, -286, -476, 1370, 201
0.192847, 267, -2009, -286, -476, 1370, 201
0.192981, 267, -2009, -286, -476, 1370, 201
0.193115, 267, -2009, -286, -476, 1370, 201
0.193249, 267, -2009, -286, -476, 1370, 201
0.193384, 267, -2009, -286, -476, 1370, 201
0.193518, 149, -2084, 29, -733, 1300, 76
0.193652, 149, -2084, 29, -733, 1300, 76
0.193786, 149, -2084, 29, -733, 1300, 76
0.193920, 149, -2084, 29, -733, 1300, 76
0.194054, 149, -2084, 29, -733, 1300, 76
0.194188, 149, -2084, 29, -733, 1300, 76
0.194322, 149, -2084, 29, -733, 1300, 76
0.194456, 149, -2084, 29, -733, 1300, 76
0.194591, 89, -2082, 414, -735, 1265, 54
0.194725, 89, -2082, 414, -735, 1265, 54
0.194859, 89, -2082, 414, -735, 1265, 54
0.194993, 89, -2082, 414, -735, 1265, 54
0.195127, 89, -2082, 414, -735, 1265, 54
0.195261, 89, -2082, 414, -735, 1265, 54
0.195395, 89, -2082, 414, -735, 1265, 54
0.195530, 458, -2025, 379, -617, 1208, -11
0.195664, 458, -2025, 379, -617, 1208, -11
0.195798, 458, -2025, 379, -617, 1208, -11
0.195932, 458, -2025, 379, -617, 1208, -11
0.196066, 458, -2025, 379, -617, 1208, -11
0.196200, 458, -2025, 379, -617, 1208, -11
0.196334, 458, -2025, 379, -617, 1208, -11
0.196468, 458, -2025, 379, -617, 1208, -11
0.196602, 950, -2000, -73, -668, 1155, -386
0.196737, 950, -2000, -73, -668, 1155, -386
0.196871, 950, -2000, -73, -668, 1155, -386
0.197005, 950, -2000, -73, -668, 1155, -386
0.197140, 950, -2000, -73, -668, 1155, -386
0.197273, 950, -2000, -73, -668, 1155, -386
0.197407, 950, -2000, -73, -668, 1155, -386
0.197540, 772, -1985, -554, -968, 1169, -912
0.197674, 772, -1985, -554, -968, 1169, -912
0.197807, 772, -1985, -554, -968, 1169, -912
0.197941, 772, -1985, -554, -968, 1169, -912
0.198074, 772, -1985, -554, -968, 1169, -912
0.198208, 772, -1985, -554, -968, 1169, -912
0.198341, 772, -1985, -554, -968, 1169, -912
0.198475, 772, -1985, -554, -968, 1169, -912
0.198608, 693, -1833, -1211, -1543, 1233, -1195
0.198742, 693, -1833, -1211, -1543, 1233, -1195
0.198875, 693, -1833, -1211, -1543, 1233, -1195
0.199009, 693, -1833, -1211, -1543, 1233, -1195
0.199142, 693, -1833, -1211, -1543, 1233, -1195
0.199276, 693, -1833, -1211, -1543, 1233, -1195
0.199409, 693, -1833, -1211, -1543, 1233, -1195
0.199543, 693, -1833, -1211, -1543, 1233, -1195
0.199676, 1131, -1896, -1559, -2570, 1263, -1529
0.199810, 1131, -1896, -1559, -2570, 1263, -1529
0.199943, 1131, -1896, -1559, -2570, 1263, -1529
0.200077, 1131, -1896, -1559, -2570, 1263, -1529
0.200210, 1131, -1896, -1559, -2570, 1263, -1529
0.200343, 1131, -1896, -1559, -2570, 1263, -1529
0.200477, 1131, -1896, -1559, -2570, 1263, -1529
0.200610, 259, -2391, 196, -3243, 1369, -1957
0.200744, 259, -2391, 196, -3243, 1369, -1957
0.200878, 259, -2391, 196, -3243, 1369, -1957
0.201013, 259, -2391, 196, -3243, 1369, -1957
0.201147, 259, -2391, 196, -3243, 1369, -1957
0.201281, 259, -2391, 196, -3243, 1369, -1957
0.201415, 259, -2391, 196, -3243, 1369, -1957
0.201549, 259, -2391, 196, -3243, 1369, -1957
0.201683, -1482, -2468, 2193, -2509, 1638, -1513
0.201818, -1482, -2468, 2193, -2509, 1638, -1513
0.201952, -1482, -2468, 2193, -2509, 1638, -1513
0.202086, -1482, -2468, 2193, -2509, 1638, -1513
0.202220, -1482, -2468, 2193, -2509, 1638, -1513
0.202354, -1482, -2468, 2193, -2509, 1638, -1513
0.202488, -1482, -2468, 2193, -2509, 1638, -1513
0.202622, -1101, -2044, 1690, -1391, 1817, -358
0.202757, -1101, -2044, 1690, -1391, 1817, -358
0.202891, -1101, -2044, 1690, -1391, 1817, -358
0.203025, -1101, -2044, 1690, -1391, 1817, -358
0.203159, -1101, -2044, 1690, -1391, 1817, -358
0.203293, -1101, -2044, 1690, -1391, 1817, -358
0.203428, -1101, -2044, 1690, -1391, 1817, -358
0.203562, -1101, -2044, 1690, -1391, 1817, -358
0.203696, 689, -1912, 577, -902, 1597, -87
0.203834, 689, -1912, 577, -902, 1597, -87
0.203969, 689, -1912, 577, -902, 1597, -87
0.204103, 689, -1912, 577, -902, 1597, -87
0.204237, 689, -1912, 577, -902, 1597, -87
0.204371, 689, -1912, 577, -902, 1597, -87
0.204505, 689, -1912, 577, -902, 1597, -87
0.204639, 1168, -2006, 175, -665, 1116, -929
0.204774, 1168, -2006, 175, -665, 1116, -929
0.204908, 1168, -2006, 175, -665, 1116, -929
0.205043, 1168, -2006, 175, -665, 1116, -929
0.205177, 1168, -2006, 175, -665, 1116, -929
0.205311, 1168, -2006, 175, -665, 1116, -929
0.205445, 1168, -2006, 175, -665, 1116, -929
0.205579, 1168, -2006, 175, -665, 1116, -929
0.205713, 317, -2013, -81, -591, 852, -1602
0.205848, 317, -2013, -81, -591, 852, -1602
0.205982, 317, -2013, -81, -591, 852, -1602
0.206116, 317, -2013, -81, -591, 852, -1602
0.206250, 317, -2013, -81, -591, 852, -1602
0.206384, 317, -2013, -81, -591, 852, -1602
0.206518, 317, -2013, -81, -591, 852, -1602
0.206653, 317, -2013, -81, -591, 852, -1602
0.206787, -257, -1953, -419, -808, 842, -1509
0.206921, -257, -1953, -419, -808, 842, -1509
0.207055, -257, -1953, -419, -808, 842, -1509
0.207189, -257, -1953, -419, -808, 842, -1509
0.207323, -257, -1953, -419, -808, 842, -1509
0.207457, -257, -1953, -419, -808, 842, -1509
0.207592, -257, -1953, -419, -808, 842, -1509
0.207726, -134, -1943, -752, -1287, 890, -1197
0.207860, -134, -1943, -752, -1287, 890, -1197
0.207994, -134, -1943, -752, -1287, 890, -1197
0.208128, -134, -1943, -752, -1287, 890, -1197
0.208262, -134, -1943, -752, -1287, 890, -1197
0.208396, -134, -1943, -752, -1287, 890, -1197
0.208530, -134, -1943, -752, -1287, 890, -1197
0.208665, -134, -1943, -752, -1287, 890, -1197
0.208799, -51, -2088, 5, -1692, 1093, -1061
0.208933, -51, -2088, 5, -1692, 1093, -1061
0.209067, -51, -2088, 5, -1692, 1093, -1061
0.209201, -51, -2088, 5, -1692, 1093, -1061
0.209336, -51, -2088, 5, -1692, 1093, -1061
0.209470, -51, -2088, 5, -1692, 1093, -1061
0.209604, -51, -2088, 5, -1692, 1093, -1061
0.209738, 240, -2155, 1570, -1346, 1366, -1058
0.209872, 240, -2155, 1570, -1346, 1366, -1058
0.210006, 240, -2155, 1570, -1346, 1366, -1058
0.210141, 240, -2155, 1570, -1346, 1366, -1058
0.210275, 240, -2155, 1570, -1346, 1366, -1058
0.210409, 240, -2155, 1570, -1346, 1366, -1058
0.210543, 240, -2155, 1570, -1346, 1366, -1058
0.210677, 240, -2155, 1570, -1346, 1366, -1058
0.210811, 500, -2030, 1997, -371, 1521, -1327
0.210945, 500, -2030, 1997, -371, 1521, -1327
0.211080, 500, -2030, 1997, -371, 1521, -1327
0.211214, 500, -2030, 1997, -371, 1521, -1327
0.211348, 500, -2030, 1997, -371, 1521, -1327
0.211482, 500, -2030, 1997, -371, 1521, -1327
0.211616, 500, -2030, 1997, -371, 1521, -1327
0.211750, -80, -2039, 1100, 381, 1593, -1632
0.211885, -80, -2039, 1100, 381, 1593, -1632
0.212019, -80, -2039, 1100, 381, 1593, -1632
0.212153, -80, -2039, 1100, 381, 1593, -1632
0.212287, -80, -2039, 1100, 381, 1593, -1632
0.212421, -80, -2039, 1100, 381, 1593, -1632
0.212555, -80, -2039, 1100, 381, 1593, -1632
0.212689, -80, -2039, 1100, 381, 1593, -1632
0.212823, -614, -2137, 127, 640, 1526, -1499
0.212958, -614, -2137, 127, 640, 1526, -1499
0.213092, -614, -2137, 127, 640, 1526, -1499
0.213226, -614, -2137, 127, 640, 1526, -1499
0.213361, -614, -2137, 127, 640, 1526, -1499
0.213495, -614, -2137, 127, 640, 1526, -1499
0.213629, -614, -2137, 127, 640, 1526, -1499
0.213763, -458, -2103, -133, 672, 1231, -1183
0.213897, -458, -2103, -133, 672, 1231, -1183
0.214031, -458, -2103, -133, 672, 1231, -1183
0.214166, -458, -2103, -133, 672, 1231, -1183
0.214300, -458, -2103, -133, 672, 1231, -1183
0.214434, -458, -2103, -133, 672, 1231, -1183
0.214568, -458, -2103, -133, 672, 1231, -1183
0.214702, -458, -2103, -133, 672, 1231, -1183
0.214836, -203, -2051, 27, 669, 880, -1054
0.214970, -203, -2051, 27, 669, 880, -1054
0.215104, -203, -2051, 27, 669, 880, -1054
0.215238, -203, -2051, 27, 669, 880, -1054
0.215372, -203, -2051, 27, 669, 880, -1054
0.215506, -203, -2051, 27, 669, 880, -1054
0.215640, -203, -2051, 27, 669, 880, -1054
0.215774, -203, -2051, 27, 669, 880, -1054
0.215915, -141, -1982, -340, 453, 725, -1049
0.216053, -141, -1982, -340, 453, 725, -1049
0.216187, -141, -1982, -340, 453, 725, -1049
0.216321, -141, -1982, -340, 453, 725, -1049
0.216456, -141, -1982, -340, 453, 725, -1049
0.216590, -141, -1982, -340, 453, 725, -1049
0.216723, -141, -1982, -340, 453, 725, -1049
0.216858, -141, -1921, -778, -143, 853, -1007
0.216992, -141, -1921, -778, -143, 853, -1007
0.217126, -141, -1921, -778, -143, 853, -1007
0.217260, -141, -1921, -778, -143, 853, -1007
0.217394, -141, -1921, -778, -143, 853, -1007
0.217529, -141, -1921, -778, -143, 853, -1007
0.217663, -141, -1921, -778, -143, 853, -1007
0.217797, -141, -1921, -778, -143, 853, -1007
0.217931, 32, -1978, -391, -723, 1133, -942
0.218065, 32, -1978, -391, -723, 1133, -942
0.218199, 32, -1978, -391, -723, 1133, -942
0.218333, 32, -1978, -391, -723, 1133, -942
0.218467, 32, -1978, -391, -723, 1133, -942
0.218601, 32, -1978, -391, -723, 1133, -942
0.218735, 32, -1978, -391, -723, 1133, -942
0.218869, 22, -2023, 127, -987, 1389, -968
0.219003, 22, -2023, 127, -987, 1389, -968
0.219137, 22, -2023, 127, -987, 1389, -968
0.219271, 22, -2023, 127, -987, 1389, -968
0.219405, 22, -2023, 127, -987, 1389, -968
0.219540, 22, -2023, 127, -987, 1389, -968
0.219674, 22, -2023, 127, -987, 1389, -968
0.219808, 22, -2023, 127, -987, 1389, -968
0.219942, -233, -2047, 358, -1092, 1526, -913
0.220076, -233, -2047, 358, -1092, 1526, -913
0.220210, -233, -2047, 358, -1092, 1526, -913
0.220344, -233, -2047, 358, -1092, 1526, -913
0.220479, -233, -2047, 358, -1092, 1526, -913
0.220613, -233, -2047, 358, -1092, 1526, -913
0.220747, -233, -2047, 358, -1092, 1526, -913
0.220881, -132, -2117, 447, -1065, 1466, -762
0.221016, -132, -2117, 447, -1065, 1466, -762
0.221150, -132, -2117, 447, -1065, 1466, -762
0.221284, -132, -2117, 447, -1065, 1466, -762
0.221418, -132, -2117, 447, -1065, 1466, -762
0.221552, -132, -2117, 447, -1065, 1466, -762
0.221686, -132, -2117, 447, -1065, 1466, -762
0.221820, -132, -2117, 447, -1065, 1466, -762
0.221955, -71, -2090, 27, -1031, 1336, -745
0.222089, -71, -2090, 27, -1031, 1336, -745
0.222223, -71, -2090, 27, -1031, 1336, -745
0.222357, -71, -2090, 27, -1031, 1336, -745
0.222491, -71, -2090, 27, -1031, 1336, -745
0.222625, -71, -2090, 27, -1031, 1336, -745
0.222760, -71, -2090, 27, -1031, 1336, -745
0.222894, -524, -2062, -128, -1209, 1291, -646
0.223028, -524, -2062, -128, -1209, 1291, -646
0.223162, -524, -2062, -128, -1209, 1291, -646
0.223296, -524, -2062, -128, -1209, 1291, -646
0.223431, -524, -2062, -128, -1209, 1291, -646
0.223565, -524, -2062, -128, -1209, 1291, -646
0.223699, -524, -2062, -128, -1209, 1291, -646
0.223833, -524, -2062, -128, -1209, 1291, -646
0.223967, -735, -2111, 577, -1186, 1202, -252
0.224101, -735, -2111, 577, -1186, 1202, -252
0.224235, -735, -2111, 577, -1186, 1202, -252
0.224370, -735, -2111, 577, -1186, 1202, -252
0.224504, -735, -2111, 577, -1186, 1202, -252
0.224638, -735, -2111, 577, -1186, 1202, -252
0.224772, -735, -2111, 577, -1186, 1202, -252
0.224906, -271, -2096, 1063, -782, 1017, 52
0.225041, -271, -2096, 1063, -782, 1017, 52
0.225175, -271, -2096, 1063, -782, 1017, 52
0.225309, -271, -2096, 1063, -782, 1017, 52
0.225443, -271, -2096, 1063, -782, 1017, 52
0.225577, -271, -2096, 1063, -782, 1017, 52
0.225712, -271, -2096, 1063, -782, 1017, 52
0.225846, -271, -2096, 1063, -782, 1017, 52
0.225980, 61, -2049, 1034, -326, 940, 10
0.226114, 61, -2049, 1034, -326, 940, 10
0.226248, 61, -2049, 1034, -326, 940, 10
0.226382, 61, -2049, 1034, -326, 940, 10
0.226517, 61, -2049, 1034, -326, 940, 10
0.226651, 61, -2049, 1034, -326, 940, 10
0.226785, 61, -2049, 1034, -326, 940, 10
0.226919, 61, -2049, 1034, -326, 940, 10
0.227053, 13, -2012, 619, 46, 1054, -98
0.227187, 13, -2012, 619, 46, 1054, -98
0.227322, 13, -2012, 619, 46, 1054, -98
0.227456, 13, -2012, 619, 46, 1054, -98
0.227590, 13, -2012, 619, 46, 1054, -98
0.227724, 13, -2012, 619, 46, 1054, -98
0.227858, 13, -2012, 619, 46, 1054, -98
0.227992, 12, -2000, 219, 186, 1250, -108
0.228127, 12, -2000, 219, 186, 1250, -108
0.228261, 12, -2000, 219, 186, 1250, -108
0.228400, 12, -2000, 219, 186, 1250, -108
0.228534, 12, -2000, 219, 186, 1250, -108
0.228669, 12, -2000, 219, 186, 1250, -108
0.228803, 12, -2000, 219, 186, 1250, -108
0.228937, 12, -2000, 219, 186, 1250, -108
0.229072, 69, -1973, 468, 296, 1392, -88
0.229206, 69, -1973, 468, 296, 1392, -88
0.229340, 69, -1973, 468, 296, 1392, -88
0.229474, 69, -1973, 468, 296, 1392, -88
0.229608, 69, -1973, 468, 296, 1392, -88
0.229742, 69, -1973, 468, 296, 1392, -88
0.229877, 69, -1973, 468, 296, 1392, -88
0.230011, 2, -1977, 572, 529, 1442, -81
0.230145, 2, -1977, 572, 529, 1442, -81
0.230279, 2, -1977, 572, 529, 1442, -81
0.230413, 2, -1977, 572, 529, 1442, -81
0.230547, 2, -1977, 572, 529, 1442, -81
0.230682, 2, -1977, 572, 529, 1442, -81
0.230816, 2, -1977, 572, 529, 1442, -81
0.230950, 2, -1977, 572, 529, 1442, -81
0.231084, -284, -2095, 50, 546, 1560, 10
0.231218, -284, -2095, 50, 546, 1560, 10
0.231352, -284, -2095, 50, 546, 1560, 10
0.231486, -284, -2095, 50, 546, 1560, 10
0.231620, -284, -2095, 50, 546, 1560, 10
0.231754, -284, -2095, 50, 546, 1560, 10
0.231889, -284, -2095, 50, 546, 1560, 10
0.232023, -303, -2157, -342, 312, 1716, 251
0.232157, -303, -2157, -342, 312, 1716, 251
0.232291, -303, -2157, -342, 312, 1716, 251
0.232425, -303, -2157, -342, 312, 1716, 251
0.232559, -303, -2157, -342, 312, 1716, 251
0.232693, -303, -2157, -342, 312, 1716, 251
0.232827, -303, -2157, -342, 312, 1716, 251
0.232962, -303, -2157, -342, 312, 1716, 251
0.233096, 94, -2079, -138, 112, 1745, 364
0.233230, 94, -2079, -138, 112, 1745, 364
0.233364, 94, -2079, -138, 112, 1745, 364
0.233498, 94, -2079, -138, 112, 1745, 364
0.233632, 94, -2079, -138, 112, 1745, 364
0.233766, 94, -2079, -138, 112, 1745, 364
0.233901, 94, -2079, -138, 112, 1745, 364
0.234035, 326, -1983, 358, 66, 1712, 185
0.234169, 326, -1983, 358, 66, 1712, 185
0.234303, 326, -1983, 358, 66, 1712, 185
0.234443, 326, -1983, 358, 66, 1712, 185
0.234585, 326, -1983, 358, 66, 1712, 185
0.234725, 326, -1983, 358, 66, 1712, 185
0.234866, 326, -1983, 358, 66, 1712, 185
0.235008, 326, -1983, 358, 66, 1712, 185
0.235151, 83, -2003, 672, 147, 1724, -50
0.235296, 83, -2003, 672, 147, 1724, -50
0.235439, 83, -2003, 672, 147, 1724, -50
0.235577, 83, -2003, 672, 147, 1724, -50
0.235721, 83, -2003, 672, 147, 1724, -50
0.235864, 83, -2003, 672, 147, 1724, -50
0.236007, 83, -2003, 672, 147, 1724, -50
0.236148, -248, -2091, 457, 281, 1808, -41
0.236294, -248, -2091, 457, 281, 1808, -41
0.236434, -248, -2091, 457, 281, 1808, -41
0.236576, -248, -2091, 457, 281, 1808, -41
0.236717, -248, -2091, 457, 281, 1808, -41
0.236860, -248, -2091, 457, 281, 1808, -41
0.237001, -248, -2091, 457, 281, 1808, -41
0.237138, -21, -2089, 32, 294, 1877, 85
0.237290, -21, -2089, 32, 294, 1877, 85
0.237430, -21, -2089, 32, 294, 1877, 85
0.237570, -21, -2089, 32, 294, 1877, 85
0.237714, -21, -2089, 32, 294, 1877, 85
0.237857, -21, -2089, 32, 294, 1877, 85
0.237999, -21, -2089, 32, 294, 1877, 85
0.238141, 132, -2033, 57, 215, 1857, 13
0.238286, 132, -2033, 57, 215, 1857, 13
0.238427, 132, -2033, 57, 215, 1857, 13
0.238569, 132, -2033, 57, 215, 1857, 13
0.238710, 132, -2033, 57, 215, 1857, 13
0.238854, 132, -2033, 57, 215, 1857, 13
0.238997, 132, -2033, 57, 215, 1857, 13
0.239139, -62, -2026, 203, 180, 1819, -25
0.239287, -62, -2026, 203, 180, 1819, -25
0.239428, -62, -2026, 203, 180, 1819, -25
0.239570, -62, -2026, 203, 180, 1819, -25
0.239713, -62, -2026, 203, 180, 1819, -25
0.239854, -62, -2026, 203, 180, 1819, -25
0.239998, -62, -2026, 203, 180, 1819, -25
0.240139, 197, -2076, 208, 128, 1812, 30
0.240287, 197, -2076, 208, 128, 1812, 30
0.240428, 197, -2076, 208, 128, 1812, 30
0.240572, 197, -2076, 208, 128, 1812, 30
0.240714, 197, -2076, 208, 128, 1812, 30
0.240864, 197, -2076, 208, 128, 1812, 30
0.241005, 197, -2076, 208, 128, 1812, 30
0.241149, 193, -2097, 274, 123, 1887, -71
0.241293, 193, -2097, 274, 123, 1887, -71
0.241437, 193, -2097, 274, 123, 1887, -71
0.241578, 193, -2097, 274, 123, 1887, -71
0.241722, 193, -2097, 274, 123, 1887, -71
0.241863, 193, -2097, 274, 123, 1887, -71
0.242007, 193, -2097, 274, 123, 1887, -71
0.242181, -348, -2043, 186, 167, 2100, 12
0.242325, -348, -2043, 186, 167, 2100, 12
0.242470, -348, -2043, 186, 167, 2100, 12
0.242614, -348, -2043, 186, 167, 2100, 12
0.242753, -348, -2043, 186, 167, 2100, 12
0.242895, -348, -2043, 186, 167, 2100, 12
0.243032, -348, -2043, 186, 167, 2100, 12
0.243166, -159, -1991, -72, 52, 2289, 352
0.243303, -159, -1991, -72, 52, 2289, 352
0.243448, -159, -1991, -72, 52, 2289, 352
0.243593, -159, -1991, -72, 52, 2289, 352
0.243740, -159, -1991, -72, 52, 2289, 352
0.243879, -159, -1991, -72, 52, 2289, 352
0.244015, -159, -1991, -72, 52, 2289, 352
0.244151, -159, -1991, -72, 52, 2289, 352
0.244285, 522, -1978, -252, -210, 2261, 351
0.244419, 522, -1978, -252, -210, 2261, 351
0.244552, 522, -1978, -252, -210, 2261, 351
0.244686, 522, -1978, -252, -210, 2261, 351
0.244819, 522, -1978, -252, -210, 2261, 351
0.244949, 522, -1978, -252, -210, 2261, 351
0.245084, 522, -1978, -252, -210, 2261, 351
0.245220, 708, -1986, -410, -532, 2147, -54
0.245355, 708, -1986, -410, -532, 2147, -54
0.245490, 708, -1986, -410, -532, 2147, -54
0.245623, 708, -1986, -410, -532, 2147, -54
0.245756, 708, -1986, -410, -532, 2147, -54
0.245890, 708, -1986, -410, -532, 2147, -54
0.246023, 708, -1986, -410, -532, 2147, -54
0.246157, 708, -1986, -410, -532, 2147, -54
0.246290, 539, -1910, -936, -1063, 2150, -425
0.246424, 539, -1910, -936, -1063, 2150, -425
0.246557, 539, -1910, -936, -1063, 2150, -425
0.246690, 539, -1910, -936, -1063, 2150, -425
0.246824, 539, -1910, -936, -1063, 2150, -425
0.246957, 539, -1910, -936, -1063, 2150, -425
0.247090, 539, -1910, -936, -1063, 2150, -425
0.247224, 362, -1887, -1375, -2018, 2233, -634
0.247357, 362, -1887, -1375, -2018, 2233, -634
0.247491, 362, -1887, -1375, -2018, 2233, -634
0.247624, 362, -1887, -1375, -2018, 2233, -634
0.247757, 362, -1887, -1375, -2018, 2233, -634
0.247891, 362, -1887, -1375, -2018, 2233, -634
0.248024, 362, -1887, -1375, -2018, 2233, -634
0.248158, 362, -1887, -1375, -2018, 2233, -634
0.248291, 18, -2216, 369, -2640, 2306, -705
0.248424, 18, -2216, 369, -2640, 2306, -705
0.248558, 18, -2216, 369, -2640, 2306, -705
0.248691, 18, -2216, 369, -2640, 2306, -705
0.248825, 18, -2216, 369, -2640, 2306, -705
0.248959, 18, -2216, 369, -2640, 2306, -705
0.249092, 18, -2216, 369, -2640, 2306, -705
0.249226, 18, -2216, 369, -2640, 2306, -705
0.249359, -246, -2347, 2670, -1771, 2360, -596
0.249493, -246, -2347, 2670, -1771, 2360, -596
0.249626, -246, -2347, 2670, -1771, 2360, -596
0.249754, -246, -2347, 2670, -1771, 2360, -596
0.249885, -246, -2347, 2670, -1771, 2360, -596
0.250019, -246, -2347, 2670, -1771, 2360, -596
0.250154, -246, -2347, 2670, -1771, 2360, -596
0.250287, -55, -2009, 1783, -479, 2464, -480
0.250421, -55, -2009, 1783, -479, 2464, -480
0.250554, -55, -2009, 1783, -479, 2464, -480
0.250688, -55, -2009, 1783, -479, 2464, -480
0.250821, -55, -2009, 1783, -479, 2464, -480
0.250954, -55, -2009, 1783, -479, 2464, -480
0.251088, -55, -2009, 1783, -479, 2464, -480
0.251221, -55, -2009, 1783, -479, 2464, -480
0.251355, 11, -1948, -27, -250, 2552, -531
0.251488, 11, -1948, -27, -250, 2552, -531
0.251622, 11, -1948, -27, -250, 2552, -531
0.251755, 11, -1948, -27, -250, 2552, -531
0.251888, 11, -1948, -27, -250, 2552, -531
0.252022, 11, -1948, -27, -250, 2552, -531
0.252155, 11, -1948, -27, -250, 2552, -531
0.252289, -230, -2142, -204, -331, 2391, -559
0.252422, -230, -2142, -204, -331, 2391, -559
0.252556, -230, -2142, -204, -331, 2391, -559
0.252690, -230, -2142, -204, -331, 2391, -559
0.252823, -230, -2142, -204, -331, 2391, -559
0.252958, -230, -2142, -204, -331, 2391, -559
0.253091, -230, -2142, -204, -331, 2391, -559
0.253225, -230, -2142, -204, -331, 2391, -559
0.253358, -141, -2087, -50, -197, 2082, -443
0.253492, -141, -2087, -50, -197, 2082, -443
0.253625, -141, -2087, -50, -197, 2082, -443
0.253758, -141, -2087, -50, -197, 2082, -443
0.253892, -141, -2087, -50, -197, 2082, -443
0.254025, -141, -2087, -50, -197, 2082, -443
0.254158, -141, -2087, -50, -197, 2082, -443
0.254292, -141, -2087, -50, -197, 2082, -443
0.254425, 451, -1940, -275, -363, 1850, -478
0.254585, 451, -1940, -275, -363, 1850, -478
0.254720, 451, -1940, -275, -363, 1850, -478
0.254854, 451, -1940, -275, -363, 1850, -478
0.254987, 451, -1940, -275, -363, 1850, -478
0.255121, 451, -1940, -275, -363, 1850, -478
0.255254, 451, -1940, -275, -363, 1850, -478
0.255388, 903, -1969, -421, -802, 1786, -911
0.255521, 903, -1969, -421, -802, 1786, -911
0.255655, 903, -1969, -421, -802, 1786, -911
0.255788, 903, -1969, -421, -802, 1786, -911
0.255922, 903, -1969, -421, -802, 1786, -911
0.256055, 903, -1969, -421, -802, 1786, -911
0.256188, 903, -1969, -421, -802, 1786, -911
0.256322, 903, -1969, -421, -802, 1786, -911
0.256455, 707, -2040, -339, -1183, 2087, -1452
0.256589, 707, -2040, -339, -1183, 2087, -1452
0.256722, 707, -2040, -339, -1183, 2087, -1452
0.256856, 707, -2040, -339, -1183, 2087, -1452
0.256990, 707, -2040, -339, -1183, 2087, -1452
0.257123, 707, -2040, -339, -1183, 2087, -1452
0.257256, 707, -2040, -339, -1183, 2087, -1452
0.257385, 189, -2080, -53, -1452, 2639, -1675
0.257521, 189, -2080, -53, -1452, 2639, -1675
0.257655, 189, -2080, -53, -1452, 2639, -1675
0.257789, 189, -2080, -53, -1452, 2639, -1675
0.257922, 189, -2080, -53, -1452, 2639, -1675
0.258056, 189, -2080, -53, -1452, 2639, -1675
0.258189, 189, -2080, -53, -1452, 2639, -1675
0.258322, 189, -2080, -53, -1452, 2639, -1675
0.258456, -327, -2085, 252, -1582, 2969, -1560
0.258589, -327, -2085, 252, -1582, 2969, -1560
0.258720, -327, -2085, 252, -1582, 2969, -1560
0.258854, -327, -2085, 252, -1582, 2969, -1560
0.258987, -327, -2085, 252, -1582, 2969, -1560
0.259121, -327, -2085, 252, -1582, 2969, -1560
0.259254, -327, -2085, 252, -1582, 2969, -1560
0.259388, -807, -1980, 109, -1633, 2932, -1204
0.259521, -807, -1980, 109, -1633, 2932, -1204
0.259655, -807, -1980, 109, -1633, 2932, -1204
0.259788, -807, -1980, 109, -1633, 2932, -1204
0.259921, -807, -1980, 109, -1633, 2932, -1204
0.260055, -807, -1980, 109, -1633, 2932, -1204
0.260188, -807, -1980, 109, -1633, 2932, -1204
0.260322, -807, -1980, 109, -1633, 2932, -1204
0.260455, -849, -1914, -467, -1897, 2709, -694
0.260589, -849, -1914, -467, -1897, 2709, -694
0.260722, -849, -1914, -467, -1897, 2709, -694
0.260856, -849, -1914, -467, -1897, 2709, -694
0.260990, -849, -1914, -467, -1897, 2709, -694
0.261123, -849, -1914, -467, -1897, 2709, -694
0.261256, -849, -1914, -467, -1897, 2709, -694
0.261390, -849, -1914, -467, -1897, 2709, -694
0.261524, -430, -2047, -364, -2366, 2398, -353
0.261658, -430, -2047, -364, -2366, 2398, -353
0.261791, -430, -2047, -364, -2366, 2398, -353
0.261925, -430, -2047, -364, -2366, 2398, -353
0.262058, -430, -2047, -364, -2366, 2398, -353
0.262191, -430, -2047, -364, -2366, 2398, -353
0.262325, -430, -2047, -364, -2366, 2398, -353
0.262458, -93, -2153, 906, -2294, 2071, -340
0.262592, -93, -2153, 906, -2294, 2071, -340
0.262725, -93, -2153, 906, -2294, 2071, -340
0.262859, -93, -2153, 906, -2294, 2071, -340
0.262992, -93, -2153, 906, -2294, 2071, -340
0.263125, -93, -2153, 906, -2294, 2071, -340
0.263259, -93, -2153, 906, -2294, 2071, -340
0.263392, -93, -2153, 906, -2294, 2071, -340
0.263525, -128, -2085, 1360, -1615, 1939, -435
0.263659, -128, -2085, 1360, -1615, 1939, -435
0.263792, -128, -2085, 1360, -1615, 1939, -435
0.263925, -128, -2085, 1360, -1615, 1939, -435
0.264059, -128, -2085, 1360, -1615, 1939, -435
0.264192, -128, -2085, 1360, -1615, 1939, -435
0.264326, -128, -2085, 1360, -1615, 1939, -435
0.264459, -429, -2095, 766, -1197, 2107, -366
0.264593, -429, -2095, 766, -1197, 2107, -366
0.264727, -429, -2095, 766, -1197, 2107, -366
0.264861, -429, -2095, 766, -1197, 2107, -366
0.264994, -429, -2095, 766, -1197, 2107, -366
0.265127, -429, -2095, 766, -1197, 2107, -366
0.265261, -429, -2095, 766, -1197, 2107, -366
0.265394, -429, -2095, 766, -1197, 2107, -366
0.265527, -391, -2096, 702, -893, 2278, -114
0.265661, -391, -2096, 702, -893, 2278, -114
0.265794, -391, -2096, 702, -893, 2278, -114
0.265928, -391, -2096, 702, -893, 2278, -114
0.266061, -391, -2096, 702, -893, 2278, -114
0.266195, -391, -2096, 702, -893, 2278, -114
0.266347, -391, -2096, 702, -893, 2278, -114
0.266481, 77, -2031, 715, -392, 2278, -19
0.266615, 77, -2031, 715, -392, 2278, -19
0.266748, 77, -2031, 715, -392, 2278, -19
0.266882, 77, -2031, 715, -392, 2278, -19
0.267015, 77, -2031, 715, -392, 2278, -19
0.267148, 77, -2031, 715, -392, 2278, -19
0.267282, 77, -2031, 715, -392, 2278, -19
0.267415, 77, -2031, 715, -392, 2278, -19
0.267548, 333, -2027, 152, -175, 2258, -238
0.267682, 333, -2027, 152, -175, 2258, -238
0.267815, 333, -2027, 152, -175, 2258, -238
0.267949, 333, -2027, 152, -175, 2258, -238
0.268082, 333, -2027, 152, -175, 2258, -238
0.268215, 333, -2027, 152, -175, 2258, -238
0.268349, 333, -2027, 152, -175, 2258, -238
0.268482, 333, -2027, 152, -175, 2258, -238
0.268615, 128, -2029, -493, -409, 2232, -487
0.268749, 128, -2029, -493, -409, 2232, -487
0.268883, 128, -2029, -493, -409, 2232, -487
0.269017, 128, -2029, -493, -409, 2232, -487
0.269150, 128, -2029, -493, -409, 2232, -487
0.269284, 128, -2029, -493, -409, 2232, -487
0.269417, 128, -2029, -493, -409, 2232, -487
0.269550, -155, -2050, -621, -828, 2251, -489
0.269684, -155, -2050, -621, -828, 2251, -489
0.269817, -155, -2050, -621, -828, 2251, -489
0.269951, -155, -2050, -621, -828, 2251, -489
0.270084, -155, -2050, -621, -828, 2251, -489
0.270218, -155, -2050, -621, -828, 2251, -489
0.270351, -155, -2050, -621, -828, 2251, -489
0.270485, -155, -2050, -621, -828, 2251, -489
0.270618, -196, -2100, -190, -1153, 2383, -320
0.270752, -196, -2100, -190, -1153, 2383, -320
0.270885, -196, -2100, -190, -1153, 2383, -320
0.271018, -196, -2100, -190, -1153, 2383, -320
0.271152, -196, -2100, -190, -1153, 2383, -320
0.271285, -196, -2100, -190, -1153, 2383, -320
0.271419, -196, -2100, -190, -1153, 2383, -320
0.271552, -151, -2104, 179, -1294, 2494, -202
0.271686, -151, -2104, 179, -1294, 2494, -202
0.271819, -151, -2104, 179, -1294, 2494, -202
0.271953, -151, -2104, 179, -1294, 2494, -202
0.272086, -151, -2104, 179, -1294, 2494, -202
0.272219, -151, -2104, 179, -1294, 2494, -202
0.272353, -151, -2104, 179, -1294, 2494, -202
0.272486, -151, -2104, 179, -1294, 2494, -202
0.272620, -167, -2022, 187, -1359, 2517, -150
0.272753, -167, -2022, 187, -1359, 2517, -150
0.272887, -167, -2022, 187, -1359, 2517, -150
0.273020, -167, -2022, 187, -1359, 2517, -150
0.273154, -167, -2022, 187, -1359, 2517, -150
0.273287, -167, -2022, 187, -1359, 2517, -150
0.273420, -167, -2022, 187, -1359, 2517, -150
0.273554, -167, -2022, 187, -1359, 2517, -150
0.273687, -17, -1942, 131, -1432, 2489, -122
0.273821, -17, -1942, 131, -1432, 2489, -122
0.273954, -17, -1942, 131, -1432, 2489, -122
0.274088, -17, -1942, 131, -1432, 2489, -122
0.274221, -17, -1942, 131, -1432, 2489, -122
0.274355, -17, -1942, 131, -1432, 2489, -122
0.274488, -17, -1942, 131, -1432, 2489, -122
0.274622, 46, -2051, 419, -1436, 2417, -190
0.274755, 46, -2051, 419, -1436, 2417, -190
0.274889, 46, -2051, 419, -1436, 2417, -190
0.275022, 46, -2051, 419, -1436, 2417, -190
0.275155, 46, -2051, 419, -1436, 2417, -190
0.275289, 46, -2051, 419, -1436, 2417, -190
0.275422, 46, -2051, 419, -1436, 2417, -190
0.275555, 46, -2051, 419, -1436, 2417, -190
0.275689, -273, -2174, 788, -1189, 2321, -213
0.275822, -273, -2174, 788, -1189, 2321, -213
0.275956, -273, -2174, 788, -1189, 2321, -213
0.276089, -273, -2174, 788, -1189, 2321, -213
0.276222, -273, -2174, 788, -1189, 2321, -213
0.276356, -273, -2174, 788, -1189, 2321, -213
0.276489, -273, -2174, 788, -1189, 2321, -213
0.276623, -269, -2093, 633, -832, 2195, -67
0.276756, -269, -2093, 633, -832, 2195, -67
0.276890, -269, -2093, 633, -832, 2195, -67
0.277024, -269, -2093, 633, -832, 2195, -67
0.277157, -269, -2093, 633, -832, 2195, -67
0.277290, -269, -2093, 633, -832, 2195, -67
0.277424, -269, -2093, 633, -832, 2195, -67
0.277557, -269, -2093, 633, -832, 2195, -67
0.277690, 215, -2009, 548, -536, 2062, -52
0.277824, 215, -2009, 548, -536, 2062, -52
0.277957, 215, -2009, 548, -536, 2062, -52
0.278091, 215, -2009, 548, -536, 2062, -52
0.278224, 215, -2009, 548, -536, 2062, -52
0.278358, 215, -2009, 548, -536, 2062, -52
0.278488, 215, -2009, 548, -536, 2062, -52
0.278632, 551, -1991, 597, -209, 1995, -357
0.278770, 551, -1991, 597, -209, 1995, -357
0.278904, 551, -1991, 597, -209, 1995, -357
0.279038, 551, -1991, 597, -209, 1995, -357
0.279171, 551, -1991, 597, -209, 1995, -357
0.279305, 551, -1991, 597, -209, 1995, -357
0.279438, 551, -1991, 597, -209, 1995, -357
0.279572, 551, -1991, 597, -209, 1995, -357
0.279705, 219, -2040, 520, 37, 2076, -713
0.279839, 219, -2040, 520, 37, 2076, -713
0.279972, 219, -2040, 520, 37, 2076, -713
0.280105, 219, -2040, 520, 37, 2076, -713
0.280239, 219, -2040, 520, 37, 2076, -713
0.280372, 219, -2040, 520, 37, 2076, -713
0.280506, 219, -2040, 520, 37, 2076, -713
0.280639, 219, -2040, 520, 37, 2076, -713
0.280773, -360, -2084, 623, 301, 2234, -696
0.280908, -360, -2084, 623, 301, 2234, -696
0.281042, -360, -2084, 623, 301, 2234, -696
0.281176, -360, -2084, 623, 301, 2234, -696
0.281310, -360, -2084, 623, 301, 2234, -696
0.281445, -360, -2084, 623, 301, 2234, -696
0.281579, -360, -2084, 623, 301, 2234, -696
0.281713, -429, -2048, 509, 644, 2309, -381
0.281847, -429, -2048, 509, 644, 2309, -381
0.281981, -429, -2048, 509, 644, 2309, -381
0.282115, -429, -2048, 509, 644, 2309, -381
0.282249, -429, -2048, 509, 644, 2309, -381
0.282383, -429, -2048, 509, 644, 2309, -381
0.282517, -429, -2048, 509, 644, 2309, -381
0.282651, -429, -2048, 509, 644, 2309, -381
0.282785, -361, -2043, 125, 785, 2323, -115
0.282920, -361, -2043, 125, 785, 2323, -115
0.283054, -361, -2043, 125, 785, 2323, -115
0.283188, -361, -2043, 125, 785, 2323, -115
0.283322, -361, -2043, 125, 785, 2323, -115
0.283456, -361, -2043, 125, 785, 2323, -115
0.283590, -361, -2043, 125, 785, 2323, -115
0.283724, -268, -2066, -147, 709, 2245, 69
0.283858, -268, -2066, -147, 709, 2245, 69
0.283993, -268, -2066, -147, 709, 2245, 69
0.284127, -268, -2066, -147, 709, 2245, 69
0.284261, -268, -2066, -147, 709, 2245, 69
0.284395, -268, -2066, -147, 709, 2245, 69
0.284529, -268, -2066, -147, 709, 2245, 69
0.284663, -268, -2066, -147, 709, 2245, 69
0.284797, 183, -2045, -259, 553, 2036, 94
0.284932, 183, -2045, -259, 553, 2036, 94
0.285066, 183, -2045, -259, 553, 2036, 94
0.285200, 183, -2045, -259, 553, 2036, 94
0.285334, 183, -2045, -259, 553, 2036, 94
0.285468, 183, -2045, -259, 553, 2036, 94
0.285602, 183, -2045, -259, 553, 2036, 94
0.285736, 505, -2052, 1, 389, 1844, -194
0.285870, 505, -2052, 1, 389, 1844, -194
0.286004, 505, -2052, 1, 389, 1844, -194
0.286138, 505, -2052, 1, 389, 1844, -194
0.286273, 505, -2052, 1, 389, 1844, -194
0.286407, 505, -2052, 1, 389, 1844, -194
0.286541, 505, -2052, 1, 389, 1844, -194
0.286675, 505, -2052, 1, 389, 1844, -194
0.286809, 90, -2131, 489, 434, 1815, -509
0.286943, 90, -2131, 489, 434, 1815, -509
0.287077, 90, -2131, 489, 434, 1815, -509
0.287211, 90, -2131, 489, 434, 1815, -509
0.287345, 90, -2131, 489, 434, 1815, -509
0.287479, 90, -2131, 489, 434, 1815, -509
0.287614, 90, -2131, 489, 434, 1815, -509
0.287748, -376, -2068, 239, 579, 1927, -447
0.287882, -376, -2068, 239, 579, 1927, -447
0.288016, -376, -2068, 239, 579, 1927, -447
0.288150, -376, -2068, 239, 579, 1927, -447
0.288284, -376, -2068, 239, 579, 1927, -447
0.288418, -376, -2068, 239, 579, 1927, -447
0.288553, -376, -2068, 239, 579, 1927, -447
0.288687, -376, -2068, 239, 579, 1927, -447
0.288821, -241, -1968, -412, 377, 1997, -227
0.288955, -241, -1968, -412, 377, 1997, -227
0.289089, -241, -1968, -412, 377, 1997, -227
0.289223, -241, -1968, -412, 377, 1997, -227
0.289358, -241, -1968, -412, 377, 1997, -227
0.289492, -241, -1968, -412, 377, 1997, -227
0.289626, -241, -1968, -412, 377, 1997, -227
0.289760, -241, -1968, -412, 377, 1997, -227
0.289894, -192, -2049, -373, 8, 1923, -163
0.290028, -192, -2049, -373, 8, 1923, -163
0.290162, -192, -2049, -373, 8, 1923, -163
0.290297, -192, -2049, -373, 8, 1923, -163
0.290431, -192, -2049, -373, 8, 1923, -163
0.290565, -192, -2049, -373, 8, 1923, -163
0.290699, -192, -2049, -373, 8, 1923, -163
0.290833, -299, -2109, 31, -158, 1769, -92
0.290967, -299, -2109, 31, -158, 1769, -92
0.291102, -299, -2109, 31, -158, 1769, -92
0.291236, -299, -2109, 31, -158, 1769, -92
0.291377, -299, -2109, 31, -158, 1769, -92
0.291512, -299, -2109, 31, -158, 1769, -92
0.291646, -299, -2109, 31, -158, 1769, -92
0.291780, -299, -2109, 31, -158, 1769, -92
0.291914, -195, -2112, 384, -153, 1623, 23
0.292048, -195, -2112, 384, -153, 1623, 23
0.292183, -195, -2112, 384, -153, 1623, 23
0.292317, -195, -2112, 384, -153, 1623, 23
0.292451, -195, -2112, 384, -153, 1623, 23
0.292585, -195, -2112, 384, -153, 1623, 23
0.292719, -195, -2112, 384, -153, 1623, 23
0.292854, -15, -2116, 625, 27, 1537, 50
0.292989, -15, -2116, 625, 27, 1537, 50
0.293125, -15, -2116, 625, 27, 1537, 50
0.293259, -15, -2116, 625, 27, 1537, 50
0.293393, -15, -2116, 625, 27, 1537, 50
0.293527, -15, -2116, 625, 27, 1537, 50
0.293661, -15, -2116, 625, 27, 1537, 50
0.293795, -15, -2116, 625, 27, 1537, 50
0.293929, 191, -2057, 502, 297, 1545, -38
0.294064, 191, -2057, 502, 297, 1545, -38
0.294198, 191, -2057, 502, 297, 1545, -38
0.294332, 191, -2057, 502, 297, 1545, -38
0.294466, 191, -2057, 502, 297, 1545, -38
0.294600, 191, -2057, 502, 297, 1545, -38
0.294734, 191, -2057, 502, 297, 1545, -38
0.294869, 238, -1988, 120, 403, 1637, -209
0.295003, 238, -1988, 120, 403, 1637, -209
0.295137, 238, -1988, 120, 403, 1637, -209
0.295271, 238, -1988, 120, 403, 1637, -209
0.295405, 238, -1988, 120, 403, 1637, -209
0.295539, 238, -1988, 120, 403, 1637, -209
0.295674, 238, -1988, 120, 403, 1637, -209
0.295808, 238, -1988, 120, 403, 1637, -209
0.295942, -65, -1977, -243, 264, 1723, -301
0.296076, -65, -1977, -243, 264, 1723, -301
0.296210, -65, -1977, -243, 264, 1723, -301
0.296344, -65, -1977, -243, 264, 1723, -301
0.296479, -65, -1977, -243, 264, 1723, -301
0.296613, -65, -1977, -243, 264, 1723, -301
0.296747, -65, -1977, -243, 264, 1723, -301
0.296881, -383, -2026, -464, -74, 1756, -139
0.297016, -383, -2026, -464, -74, 1756, -139
0.297150, -383, -2026, -464, -74, 1756, -139
0.297284, -383, -2026, -464, -74, 1756, -139
0.297418, -383, -2026, -464, -74, 1756, -139
0.297553, -383, -2026, -464, -74, 1756, -139
0.297687, -383, -2026, -464, -74, 1756, -139
0.297821, -383, -2026, -464, -74, 1756, -139
0.297955, -117, -2040, -548, -503, 1705, 100
0.298089, -117, -2040, -548, -503, 1705, 100
0.298223, -117, -2040, -548, -503, 1705, 100
0.298358, -117, -2040, -548, -503, 1705, 100
0.298492, -117, -2040, -548, -503, 1705, 100
0.298626, -117, -2040, -548, -503, 1705, 100
0.298760, -117, -2040, -548, -503, 1705, 100
0.298894, -117, -2040, -548, -503, 1705, 100
0.299028, 381, -1975, -642, -960, 1594, 22
0.299163, 381, -1975, -642, -960, 1594, 22
0.299297, 381, -1975, -642, -960, 1594, 22
0.299431, 381, -1975, -642, -960, 1594, 22
0.299565, 381, -1975, -642, -960, 1594, 22
0.299699, 381, -1975, -642, -960, 1594, 22
0.299834, 381, -1975, -642, -960, 1594, 22
0.299968, 425, -1897, -884, -1562, 1546, -317
0.300102, 425, -1897, -884, -1562, 1546, -317
0.300236, 425, -1897, -884, -1562, 1546, -317
0.300371, 425, -1897, -884, -1562, 1546, -317
0.300505, 425, -1897, -884, -1562, 1546, -317
0.300639, 425, -1897, -884, -1562, 1546, -317
0.300773, 425, -1897, -884, -1562, 1546, -317
0.300907, 425, -1897, -884, -1562, 1546, -317
0.301042, 428, -1930, -1072, -2400, 1569, -624
0.301176, 428, -1930, -1072, -2400, 1569, -624
0.301310, 428, -1930, -1072, -2400, 1569, -624
0.301444, 428, -1930, -1072, -2400, 1569, -624
0.301578, 428, -1930, -1072, -2400, 1569, -624
0.301713, 428, -1930, -1072, -2400, 1569, -624
0.301847, 428, -1930, -1072, -2400, 1569, -624
0.301981, 278, -2129, -162, -3029, 1610, -876
0.302115, 278, -2129, -162, -3029, 1610, -876
0.302249, 278, -2129, -162, -3029, 1610, -876
0.302383, 278, -2129, -162, -3029, 1610, -876
0.302518, 278, -2129, -162, -3029, 1610, -876
0.302652, 278, -2129, -162, -3029, 1610, -876
0.302786, 278, -2129, -162, -3029, 1610, -876
0.302920, 278, -2129, -162, -3029, 1610, -876
0.303054, -384, -2188, 1356, -2766, 1700, -874
0.303188, -384, -2188, 1356, -2766, 1700, -874
0.303323, -384, -2188, 1356, -2766, 1700, -874
0.303457, -384, -2188, 1356, -2766, 1700, -874
0.303591, -384, -2188, 1356, -2766, 1700, -874
0.303732, -384, -2188, 1356, -2766, 1700, -874
0.303867, -384, -2188, 1356, -2766, 1700, -874
0.304001, -699, -2078, 1768, -1945, 1826, -484
0.304135, -699, -2078, 1768, -1945, 1826, -484
0.304269, -699, -2078, 1768, -1945, 1826, -484
0.304404, -699, -2078, 1768, -1945, 1826, -484
0.304538, -699, -2078, 1768, -1945, 1826, -484
0.304672, -699, -2078, 1768, -1945, 1826, -484
0.304806, -699, -2078, 1768, -1945, 1826, -484
0.304941, -699, -2078, 1768, -1945, 1826, -484
0.305075, -411, -2102, 1578, -1145, 1853, -121
0.305209, -411, -2102, 1578, -1145, 1853, -121
0.305343, -411, -2102, 1578, -1145, 1853, -121
0.305477, -411, -2102, 1578, -1145, 1853, -121
0.305611, -411, -2102, 1578, -1145, 1853, -121
0.305746, -411, -2102, 1578, -1145, 1853, -121
0.305880, -411, -2102, 1578, -1145, 1853, -121
0.306014, -163, -2125, 1278, -312, 1685, -74
0.306148, -163, -2125, 1278, -312, 1685, -74
0.306282, -163, -2125, 1278, -312, 1685, -74
0.306416, -163, -2125, 1278, -312, 1685, -74
0.306550, -163, -2125, 1278, -312, 1685, -74
0.306685, -163, -2125, 1278, -312, 1685, -74
0.306819, -163, -2125, 1278, -312, 1685, -74
0.306953, -163, -2125, 1278, -312, 1685, -74
0.307087, -213, -2067, 588, 319, 1457, -149
0.307221, -213, -2067, 588, 319, 1457, -149
0.307355, -213, -2067, 588, 319, 1457, -149
0.307490, -213, -2067, 588, 319, 1457, -149
0.307624, -213, -2067, 588, 319, 1457, -149
0.307758, -213, -2067, 588, 319, 1457, -149
0.307892, -213, -2067, 588, 319, 1457, -149
0.308026, -88, -2050, 131, 517, 1248, -158
0.308160, -88, -2050, 131, 517, 1248, -158
0.308295, -88, -2050, 131, 517, 1248, -158
0.308429, -88, -2050, 131, 517, 1248, -158
0.308563, -88, -2050, 131, 517, 1248, -158
0.308697, -88, -2050, 131, 517, 1248, -158
0.308831, -88, -2050, 131, 517, 1248, -158
0.308965, -88, -2050, 131, 517, 1248, -158
0.309100, 384, -2045, 95, 579, 1068, -290
0.309234, 384, -2045, 95, 579, 1068, -290
0.309368, 384, -2045, 95, 579, 1068, -290
0.309502, 384, -2045, 95, 579, 1068, -290
0.309636, 384, -2045, 95, 579, 1068, -290
0.309770, 384, -2045, 95, 579, 1068, -290
0.309905, 384, -2045, 95, 579, 1068, -290
0.310039, 384, -2045, 95, 579, 1068, -290
0.310173, 257, -2074, 138, 614, 1155, -603
0.310307, 257, -2074, 138, 614, 1155, -603
0.310441, 257, -2074, 138, 614, 1155, -603
0.310575, 257, -2074, 138, 614, 1155, -603
0.310709, 257, -2074, 138, 614, 1155, -603
0.310843, 257, -2074, 138, 614, 1155, -603
0.310977, 257, -2074, 138, 614, 1155, -603
0.311112, -559, -2097, 323, 603, 1536, -598
0.311246, -559, -2097, 323, 603, 1536, -598
0.311380, -559, -2097, 323, 603, 1536, -598
0.311514, -559, -2097, 323, 603, 1536, -598
0.311648, -559, -2097, 323, 603, 1536, -598
0.311782, -559, -2097, 323, 603, 1536, -598
0.311916, -559, -2097, 323, 603, 1536, -598
0.312051, -559, -2097, 323, 603, 1536, -598
0.312185, -769, -2032, 441, 688, 1851, -128
0.312319, -769, -2032, 441, 688, 1851, -128
0.312453, -769, -2032, 441, 688, 1851, -128
0.312587, -769, -2032, 441, 688, 1851, -128
0.312721, -769, -2032, 441, 688, 1851, -128
0.312856, -769, -2032, 441, 688, 1851, -128
0.312990, -769, -2032, 441, 688, 1851, -128
0.313124, -383, -1984, 368, 779, 1906, 236
0.313258, -383, -1984, 368, 779, 1906, 236
0.313392, -383, -1984, 368, 779, 1906, 236
0.313526, -383, -1984, 368, 779, 1906, 236
0.313661, -383, -1984, 368, 779, 1906, 236
0.313795, -383, -1984, 368, 779, 1906, 236
0.313929, -383, -1984, 368, 779, 1906, 236
0.314063, -383, -1984, 368, 779, 1906, 236
0.314197, -543, -2040, 389, 830, 1791, 352
0.314331, -543, -2040, 389, 830, 1791, 352
0.314466, -543, -2040, 389, 830, 1791, 352
0.314600, -543, -2040, 389, 830, 1791, 352
0.314734, -543, -2040, 389, 830, 1791, 352
0.314868, -543, -2040, 389, 830, 1791, 352
0.315002, -543, -2040, 389, 830, 1791, 352
0.315136, -899, -2107, 371, 923, 1607, 649
0.315270, -899, -2107, 371, 923, 1607, 649
0.315404, -899, -2107, 371, 923, 1607, 649
0.315538, -899, -2107, 371, 923, 1607, 649
0.315672, -899, -2107, 371, 923, 1607, 649
0.315807, -899, -2107, 371, 923, 1607, 649
0.315941, -899, -2107, 371, 923, 1607, 649
0.316075, -899, -2107, 371, 923, 1607, 649
0.316222, -620, -2097, 233, 1000, 1415, 1069
0.316356, -620, -2097, 233, 1000, 1415, 1069
0.316491, -620, -2097, 233, 1000, 1415, 1069
0.316625, -620, -2097, 233, 1000, 1415, 1069
0.316759, -620, -2097, 233, 1000, 1415, 1069
0.316893, -620, -2097, 233, 1000, 1415, 1069
0.317027, -620, -2097, 233, 1000, 1415, 1069
0.317160, -40, -2036, 163, 1037, 1265, 1201
0.317294, -40, -2036, 163, 1037, 1265, 1201
0.317427, -40, -2036, 163, 1037, 1265, 1201
0.317561, -40, -2036, 163, 1037, 1265, 1201
0.317694, -40, -2036, 163, 1037, 1265, 1201
0.317828, -40, -2036, 163, 1037, 1265, 1201
0.317961, -40, -2036, 163, 1037, 1265, 1201
0.318094, -40, -2036, 163, 1037, 1265, 1201
0.318228, 368, -2011, 148, 1034, 1244, 997
0.318361, 368, -2011, 148, 1034, 1244, 997
0.318495, 368, -2011, 148, 1034, 1244, 997
0.318628, 368, -2011, 148, 1034, 1244, 997
0.318762, 368, -2011, 148, 1034, 1244, 997
0.318895, 368, -2011, 148, 1034, 1244, 997
0.319028, 368, -2011, 148, 1034, 1244, 997
0.319162, 368, -2011, 148, 1034, 1244, 997
0.319295, 441, -2054, 93, 970, 1395, 653
0.319429, 441, -2054, 93, 970, 1395, 653
0.319563, 441, -2054, 93, 970, 1395, 653
0.319696, 441, -2054, 93, 970, 1395, 653
0.319830, 441, -2054, 93, 970, 1395, 653
0.319964, 441, -2054, 93, 970, 1395, 653
0.320097, 441, -2054, 93, 970, 1395, 653
0.320230, 203, -2075, -20, 852, 1646, 402
0.320364, 203, -2075, -20, 852, 1646, 402
0.320498, 203, -2075, -20, 852, 1646, 402
0.320631, 203, -2075, -20, 852, 1646, 402
0.320764, 203, -2075, -20, 852, 1646, 402
0.320900, 203, -2075, -20, 852, 1646, 402
0.321035, 203, -2075, -20, 852, 1646, 402
0.321169, 203, -2075, -20, 852, 1646, 402
0.321303, 38, -2024, -240, 652, 1880, 372
0.321437, 38, -2024, -240, 652, 1880, 372
0.321571, 38, -2024, -240, 652, 1880, 372
0.321705, 38, -2024, -240, 652, 1880, 372
0.321840, 38, -2024, -240, 652, 1880, 372
0.321974, 38, -2024, -240, 652, 1880, 372
0.322108, 38, -2024, -240, 652, 1880, 372
0.322242, 122, -1962, -612, 265, 2015, 409
0.322376, 122, -1962, -612, 265, 2015, 409
0.322510, 122, -1962, -612, 265, 2015, 409
0.322644, 122, -1962, -612, 265, 2015, 409
0.322778, 122, -1962, -612, 265, 2015, 409
0.322912, 122, -1962, -612, 265, 2015, 409
0.323046, 122, -1962, -612, 265, 2015, 409
0.323180, 122, -1962, -612, 265, 2015, 409
0.323314, 237, -1917, -1128, -411, 2030, 362
0.323449, 237, -1917, -1128, -411, 2030, 362
0.323583, 237, -1917, -1128, -411, 2030, 362
0.323717, 237, -1917, -1128, -411, 2030, 362
0.323851, 237, -1917, -1128, -411, 2030, 362
0.323985, 237, -1917, -1128, -411, 2030, 362
0.324119, 237, -1917, -1128, -411, 2030, 362
0.324253, 526, -1834, -1779, -1465, 1935, 205
0.324387, 526, -1834, -1779, -1465, 1935, 205
0.324521, 526, -1834, -1779, -1465, 1935, 205
0.324655, 526, -1834, -1779, -1465, 1935, 205
0.324789, 526, -1834, -1779, -1465, 1935, 205
0.324924, 526, -1834, -1779, -1465, 1935, 205
0.325058, 526, -1834, -1779, -1465, 1935, 205
0.325192, 526, -1834, -1779, -1465, 1935, 205
0.325326, 921, -1975, -1780, -2818, 1769, -181
0.325460, 921, -1975, -1780, -2818, 1769, -181
0.325594, 921, -1975, -1780, -2818, 1769, -181
0.325728, 921, -1975, -1780, -2818, 1769, -181
0.325862, 921, -1975, -1780, -2818, 1769, -181
0.325996, 921, -1975, -1780, -2818, 1769, -181
0.326130, 921, -1975, -1780, -2818, 1769, -181
0.326264, 921, -1975, -1780, -2818, 1769, -181
0.326398, 647, -2322, -11, -3611, 1683, -686
0.326532, 647, -2322, -11, -3611, 1683, -686
0.326666, 647, -2322, -11, -3611, 1683, -686
0.326800, 647, -2322, -11, -3611, 1683, -686
0.326934, 647, -2322, -11, -3611, 1683, -686
0.327068, 647, -2322, -11, -3611, 1683, -686
0.327202, 647, -2322, -11, -3611, 1683, -686
0.327336, 143, -2174, 1371, -3238, 1784, -872
0.327471, 143, -2174, 1371, -3238, 1784, -872
0.327605, 143, -2174, 1371, -3238, 1784, -872
0.327739, 143, -2174, 1371, -3238, 1784, -872
0.327873, 143, -2174, 1371, -3238, 1784, -872
0.328007, 143, -2174, 1371, -3238, 1784, -872
0.328141, 143, -2174, 1371, -3238, 1784, -872
0.328275, 143, -2174, 1371, -3238, 1784, -872
0.328409, 259, -1961, 1520, -2633, 1978, -838
0.328543, 259, -1961, 1520, -2633, 1978, -838
0.328682, 259, -1961, 1520, -2633, 1978, -838
0.328817, 259, -1961, 1520, -2633, 1978, -838
0.328951, 259, -1961, 1520, -2633, 1978, -838
0.329085, 259, -1961, 1520, -2633, 1978, -838
0.329219, 259, -1961, 1520, -2633, 1978, -838
0.329352, 157, -2136, 2776, -1597, 2065, -943
0.329486, 157, -2136, 2776, -1597, 2065, -943
0.329615, 157, -2136, 2776, -1597, 2065, -943
0.329748, 157, -2136, 2776, -1597, 2065, -943
0.329882, 157, -2136, 2776, -1597, 2065, -943
0.330015, 157, -2136, 2776, -1597, 2065, -943
0.330149, 157, -2136, 2776, -1597, 2065, -943
0.330282, 157, -2136, 2776, -1597, 2065, -943
0.330416, -504, -2076, 2757, 247, 2028, -931
0.330549, -504, -2076, 2757, 247, 2028, -931
0.330683, -504, -2076, 2757, 247, 2028, -931
0.330816, -504, -2076, 2757, 247, 2028, -931
0.330950, -504, -2076, 2757, 247, 2028, -931
0.331083, -504, -2076, 2757, 247, 2028, -931
0.331216, -504, -2076, 2757, 247, 2028, -931
0.331350, -1029, -2032, 723, 1255, 1981, -520
0.331484, -1029, -2032, 723, 1255, 1981, -520
0.331617, -1029, -2032, 723, 1255, 1981, -520
0.331750, -1029, -2032, 723, 1255, 1981, -520
0.331884, -1029, -2032, 723, 1255, 1981, -520
0.332017, -1029, -2032, 723, 1255, 1981, -520
0.332151, -1029, -2032, 723, 1255, 1981, -520
0.332284, -1029, -2032, 723, 1255, 1981, -520
0.332417, -1100, -2192, -92, 1426, 1713, 131
0.332551, -1100, -2192, -92, 1426, 1713, 131
0.332684, -1100, -2192, -92, 1426, 1713, 131
0.332818, -1100, -2192, -92, 1426, 1713, 131
0.332952, -1100, -2192, -92, 1426, 1713, 131
0.333087, -1100, -2192, -92, 1426, 1713, 131
0.333221, -1100, -2192, -92, 1426, 1713, 131
0.333355, -1100, -2192, -92, 1426, 1713, 131
0.333489, -599, -2168, -28, 1720, 1285, 658
0.333623, -599, -2168, -28, 1720, 1285, 658
0.333758, -599, -2168, -28, 1720, 1285, 658
0.333892, -599, -2168, -28, 1720, 1285, 658
0.334026, -599, -2168, -28, 1720, 1285, 658
0.334160, -599, -2168, -28, 1720, 1285, 658
0.334294, -599, -2168, -28, 1720, 1285, 658
0.334428, -68, -2046, -46, 1796, 1143, 788
0.334562, -68, -2046, -46, 1796, 1143, 788
0.334697, -68, -2046, -46, 1796, 1143, 788
0.334831, -68, -2046, -46, 1796, 1143, 788
0.334965, -68, -2046, -46, 1796, 1143, 788
0.335099, -68, -2046, -46, 1796, 1143, 788
0.335233, -68, -2046, -46, 1796, 1143, 788
0.335367, -68, -2046, -46, 1796, 1143, 788
0.335501, 32, -2014, 39, 1634, 1212, 658
0.335635, 32, -2014, 39, 1634, 1212, 658
0.335770, 32, -2014, 39, 1634, 1212, 658
0.335904, 32, -2014, 39, 1634, 1212, 658
0.336038, 32, -2014, 39, 1634, 1212, 658
0.336172, 32, -2014, 39, 1634, 1212, 658
0.336306, 32, -2014, 39, 1634, 1212, 658
0.336440, 37, -2029, -13, 1505, 1361, 509
0.336574, 37, -2029, -13, 1505, 1361, 509
0.336708, 37, -2029, -13, 1505, 1361, 509
0.336843, 37, -2029, -13, 1505, 1361, 509
0.336977, 37, -2029, -13, 1505, 1361, 509
0.337111, 37, -2029, -13, 1505, 1361, 509
0.337245, 37, -2029, -13, 1505, 1361, 509
0.337379, 37, -2029, -13, 1505, 1361, 509
0.337514, 42, -2025, -64, 1323, 1614, 365
0.337648, 42, -2025, -64, 1323, 1614, 365
0.337782, 42, -2025, -64, 1323, 1614, 365
0.337916, 42, -2025, -64, 1323, 1614, 365
0.338050, 42, -2025, -64, 1323, 1614, 365
0.338184, 42, -2025, -64, 1323, 1614, 365
0.338318, 42, -2025, -64, 1323, 1614, 365
0.338453, -100, -2035, 133, 1151, 1721, 257
0.338587, -100, -2035, 133, 1151, 1721, 257
0.338721, -100, -2035, 133, 1151, 1721, 257
0.338855, -100, -2035, 133, 1151, 1721, 257
0.338989, -100, -2035, 133, 1151, 1721, 257
0.339123, -100, -2035, 133, 1151, 1721, 257
0.339257, -100, -2035, 133, 1151, 1721, 257
0.339392, -100, -2035, 133, 1151, 1721, 257
0.339526, -209, -2031, 201, 1084, 1585, 238
0.339660, -209, -2031, 201, 1084, 1585, 238
0.339794, -209, -2031, 201, 1084, 1585, 238
0.339928, -209, -2031, 201, 1084, 1585, 238
0.340062, -209, -2031, 201, 1084, 1585, 238
0.340197, -209, -2031, 201, 1084, 1585, 238
0.340331, -209, -2031, 201, 1084, 1585, 238
0.340465, -234, -2024, 69, 983, 1415, 253
0.340599, -234, -2024, 69, 983, 1415, 253
0.340733, -234, -2024, 69, 983, 1415, 253
0.340868, -234, -2024, 69, 983, 1415, 253
0.341002, -234, -2024, 69, 983, 1415, 253
0.341136, -234, -2024, 69, 983, 1415, 253
0.341276, -234, -2024, 69, 983, 1415, 253
0.341411, -234, -2024, 69, 983, 1415, 253
0.341545, -318, -2048, 163, 901, 1367, 307
0.341679, -318, -2048, 163, 901, 1367, 307
0.341813, -318, -2048, 163, 901, 1367, 307
0.341947, -318, -2048, 163, 901, 1367, 307
0.342082, -318, -2048, 163, 901, 1367, 307
0.342216, -318, -2048, 163, 901, 1367, 307
0.342350, -318, -2048, 163, 901, 1367, 307
0.342484, -372, -2051, 385, 978, 1436, 432
0.342618, -372, -2051, 385, 978, 1436, 432
0.342752, -372, -2051, 385, 978, 1436, 432
0.342887, -372, -2051, 385, 978, 1436, 432
0.343021, -372, -2051, 385, 978, 1436, 432
0.343155, -372, -2051, 385, 978, 1436, 432
0.343289, -372, -2051, 385, 978, 1436, 432
0.343423, -372, -2051, 385, 978, 1436, 432
0.343557, -435, -2039, 427, 1113, 1560, 582
0.343691, -435, -2039, 427, 1113, 1560, 582
0.343825, -435, -2039, 427, 1113, 1560, 582
0.343960, -435, -2039, 427, 1113, 1560, 582
0.344094, -435, -2039, 427, 1113, 1560, 582
0.344228, -435, -2039, 427, 1113, 1560, 582
0.344362, -435, -2039, 427, 1113, 1560, 582
0.344496, -435, -2039, 427, 1113, 1560, 582
0.344630, -508, -2043, 333, 1196, 1669, 766
0.344765, -508, -2043, 333, 1196, 1669, 766
0.344899, -508, -2043, 333, 1196, 1669, 766
0.345033, -508, -2043, 333, 1196, 1669, 766
0.345167, -508, -2043, 333, 1196, 1669, 766
0.345301, -508, -2043, 333, 1196, 1669, 766
0.345436, -508, -2043, 333, 1196, 1669, 766
0.345570, -382, -2044, 249, 1237, 1719, 963
0.345704, -382, -2044, 249, 1237, 1719, 963
0.345838, -382, -2044, 249, 1237, 1719, 963
0.345972, -382, -2044, 249, 1237, 1719, 963
0.346106, -382, -2044, 249, 1237, 1719, 963
0.346240, -382, -2044, 249, 1237, 1719, 963
0.346374, -382, -2044, 249, 1237, 1719, 963
0.346509, -382, -2044, 249, 1237, 1719, 963
0.346643, -159, -2057, 182, 1241, 1717, 1044
0.346777, -159, -2057, 182, 1241, 1717, 1044
0.346911, -159, -2057, 182, 1241, 1717, 1044
0.347045, -159, -2057, 182, 1241, 1717, 1044
0.347179, -159, -2057, 182, 1241, 1717, 1044
0.347314, -159, -2057, 182, 1241, 1717, 1044
0.347448, -159, -2057, 182, 1241, 1717, 1044
0.347582, -96, -2080, 101, 1182, 1690, 999
0.347716, -96, -2080, 101, 1182, 1690, 999
0.347850, -96, -2080, 101, 1182, 1690, 999
0.347984, -96, -2080, 101, 1182, 1690, 999
0.348118, -96, -2080, 101, 1182, 1690, 999
0.348253, -96, -2080, 101, 1182, 1690, 999
0.348387, -96, -2080, 101, 1182, 1690, 999
0.348521, -96, -2080, 101, 1182, 1690, 999
0.348655, -228, -2061, 69, 1076, 1667, 976
0.348789, -228, -2061, 69, 1076, 1667, 976
0.348924, -228, -2061, 69, 1076, 1667, 976
0.349058, -228, -2061, 69, 1076, 1667, 976
0.349192, -228, -2061, 69, 1076, 1667, 976
0.349326, -228, -2061, 69, 1076, 1667, 976
0.349460, -228, -2061, 69, 1076, 1667, 976
0.349594, -302, -2036, 100, 983, 1678, 1076
0.349729, -302, -2036, 100, 983, 1678, 1076
0.349863, -302, -2036, 100, 983, 1678, 1076
0.349997, -302, -2036, 100, 983, 1678, 1076
0.350131, -302, -2036, 100, 983, 1678, 1076
0.350265, -302, -2036, 100, 983, 1678, 1076
0.350399, -302, -2036, 100, 983, 1678, 1076
0.350533, -302, -2036, 100, 983, 1678, 1076
0.350667, -12, -2044, 15, 877, 1696, 1157
0.350802, -12, -2044, 15, 877, 1696, 1157
0.350936, -12, -2044, 15, 877, 1696, 1157
0.351070, -12, -2044, 15, 877, 1696, 1157
0.351205, -12, -2044, 15, 877, 1696, 1157
0.351339, -12, -2044, 15, 877, 1696, 1157
0.351473, -12, -2044, 15, 877, 1696, 1157
0.351607, 405, -2054, -209, 668, 1683, 991
0.351741, 405, -2054, -209, 668, 1683, 991
0.351875, 405, -2054, -209, 668, 1683, 991
0.352010, 405, -2054, -209, 668, 1683, 991
0.352144, 405, -2054, -209, 668, 1683, 991
0.352278, 405, -2054, -209, 668, 1683, 991
0.352412, 405, -2054, -209, 668, 1683, 991
0.352546, 405, -2054, -209, 668, 1683, 991
0.352680, 594, -2039, -440, 345, 1664, 616
0.352814, 594, -2039, -440, 345, 1664, 616
0.352949, 594, -2039, -440, 345, 1664, 616
0.353083, 594, -2039, -440, 345, 1664, 616
0.353217, 594, -2039, -440, 345, 1664, 616
0.353351, 594, -2039, -440, 345, 1664, 616
0.353485, 594, -2039, -440, 345, 1664, 616
0.353619, 594, -2039, -440, 345, 1664, 616
0.353753, 513, -1992, -685, -116, 1686, 226
0.353892, 513, -1992, -685, -116, 1686, 226
0.354027, 513, -1992, -685, -116, 1686, 226
0.354161, 513, -1992, -685, -116, 1686, 226
0.354295, 513, -1992, -685, -116, 1686, 226
0.354429, 513, -1992, -685, -116, 1686, 226
0.354564, 513, -1992, -685, -116, 1686, 226
0.354698, 239, -1948, -957, -771, 1757, -9
0.354832, 239, -1948, -957, -771, 1757, -9
0.354966, 239, -1948, -957, -771, 1757, -9
0.355100, 239, -1948, -957, -771, 1757, -9
0.355234, 239, -1948, -957, -771, 1757, -9
0.355368, 239, -1948, -957, -771, 1757, -9
0.355502, 239, -1948, -957, -771, 1757, -9
0.355637, 239, -1948, -957, -771, 1757, -9
0.355771, 290, -1879, -1395, -1642, 1796, -81
0.355905, 290, -1879, -1395, -1642, 1796, -81
0.356039, 290, -1879, -1395, -1642, 1796, -81
0.356173, 290, -1879, -1395, -1642, 1796, -81
0.356307, 290, -1879, -1395, -1642, 1796, -81
0.356442, 290, -1879, -1395, -1642, 1796, -81
0.356576, 290, -1879, -1395, -1642, 1796, -81
0.356710, 689, -1931, -1620, -2765, 1735, -302
0.356844, 689, -1931, -1620, -2765, 1735, -302
0.356979, 689, -1931, -1620, -2765, 1735, -302
0.357113, 689, -1931, -1620, -2765, 1735, -302
0.357247, 689, -1931, -1620, -2765, 1735, -302
0.357381, 689, -1931, -1620, -2765, 1735, -302
0.357515, 689, -1931, -1620, -2765, 1735, -302
0.357649, 689, -1931, -1620, -2765, 1735, -302
0.357783, 494, -2117, -404, -3611, 1673, -702
0.357918, 494, -2117, -404, -3611, 1673, -702
0.358052, 494, -2117, -404, -3611, 1673, -702
0.358186, 494, -2117, -404, -3611, 1673, -702
0.358320, 494, -2117, -404, -3611, 1673, -702
0.358454, 494, -2117, -404, -3611, 1673, -702
0.358588, 494, -2117, -404, -3611, 1673, -702
0.358722, -203, -2101, 1365, -3430, 1730, -792
0.358857, -203, -2101, 1365, -3430, 1730, -792
0.358991, -203, -2101, 1365, -3430, 1730, -792
0.359125, -203, -2101, 1365, -3430, 1730, -792
0.359259, -203, -2101, 1365, -3430, 1730, -792
0.359393, -203, -2101, 1365, -3430, 1730, -792
0.359527, -203, -2101, 1365, -3430, 1730, -792
0.359662, -203, -2101, 1365, -3430, 1730, -792
0.359796, -351, -2063, 1584, -2711, 1866, -521
0.359930, -351, -2063, 1584, -2711, 1866, -521
0.360064, -351, -2063, 1584, -2711, 1866, -521
0.360198, -351, -2063, 1584, -2711, 1866, -521
0.360332, -351, -2063, 1584, -2711, 1866, -521
0.360466, -351, -2063, 1584, -2711, 1866, -521
0.360600, -351, -2063, 1584, -2711, 1866, -521
0.360734, -117, -2203, 1138, -2159, 1866, -373
0.360869, -117, -2203, 1138, -2159, 1866, -373
0.361003, -117, -2203, 1138, -2159, 1866, -373
0.361138, -117, -2203, 1138, -2159, 1866, -373
0.361272, -117, -2203, 1138, -2159, 1866, -373
0.361406, -117, -2203, 1138, -2159, 1866, -373
0.361540, -117, -2203, 1138, -2159, 1866, -373
0.361674, -117, -2203, 1138, -2159, 1866, -373
0.361808, -432, -2223, 1358, -1400, 1659, -361
0.361942, -432, -2223, 1358, -1400, 1659, -361
0.362077, -432, -2223, 1358, -1400, 1659, -361
0.362211, -432, -2223, 1358, -1400, 1659, -361
0.362345, -432, -2223, 1358, -1400, 1659, -361
0.362479, -432, -2223, 1358, -1400, 1659, -361
0.362613, -432, -2223, 1358, -1400, 1659, -361
0.362747, -432, -2223, 1358, -1400, 1659, -361
0.362881, -942, -2082, 1356, -392, 1457, -59
0.363015, -942, -2082, 1356, -392, 1457, -59
0.363150, -942, -2082, 1356, -392, 1457, -59
0.363284, -942, -2082, 1356, -392, 1457, -59
0.363418, -942, -2082, 1356, -392, 1457, -59
0.363552, -942, -2082, 1356, -392, 1457, -59
0.363686, -942, -2082, 1356, -392, 1457, -59
0.363820, -815, -2015, 598, 176, 1284, 443
0.363955, -815, -2015, 598, 176, 1284, 443
0.364089, -815, -2015, 598, 176, 1284, 443
0.364223, -815, -2015, 598, 176, 1284, 443
0.364357, -815, -2015, 598, 176, 1284, 443
0.364491, -815, -2015, 598, 176, 1284, 443
0.364625, -815, -2015, 598, 176, 1284, 443
0.364759, -815, -2015, 598, 176, 1284, 443
0.364894, -430, -2054, 31, 310, 1057, 726
0.365028, -430, -2054, 31, 310, 1057, 726
0.365162, -430, -2054, 31, 310, 1057, 726
0.365296, -430, -2054, 31, 310, 1057, 726
0.365431, -430, -2054, 31, 310, 1057, 726
0.365565, -430, -2054, 31, 310, 1057, 726
0.365699, -430, -2054, 31, 310, 1057, 726
0.365833, -224, -2061, -61, 387, 967, 784
0.365975, -224, -2061, -61, 387, 967, 784
0.366110, -224, -2061, -61, 387, 967, 784
0.366244, -224, -2061, -61, 387, 967, 784
0.366378, -224, -2061, -61, 387, 967, 784
0.366512, -224, -2061, -61, 387, 967, 784
0.366647, -224, -2061, -61, 387, 967, 784
0.366781, -224, -2061, -61, 387, 967, 784
0.366915, 3, -1987, -190, 314, 1076, 757
0.367049, 3, -1987, -190, 314, 1076, 757
0.367183, 3, -1987, -190, 314, 1076, 757
0.367317, 3, -1987, -190, 314, 1076, 757
0.367451, 3, -1987, -190, 314, 1076, 757
0.367585, 3, -1987, -190, 314, 1076, 757
0.367719, 3, -1987, -190, 314, 1076, 757
0.367854, 217, -1953, -263, 14, 1152, 607
0.367988, 217, -1953, -263, 14, 1152, 607
0.368122, 217, -1953, -263, 14, 1152, 607
0.368256, 217, -1953, -263, 14, 1152, 607
0.368390, 217, -1953, -263, 14, 1152, 607
0.368524, 217, -1953, -263, 14, 1152, 607
0.368658, 217, -1953, -263, 14, 1152, 607
0.368792, 217, -1953, -263, 14, 1152, 607
0.368927, 175, -2036, 154, -193, 1171, 388
0.369061, 175, -2036, 154, -193, 1171, 388
0.369195, 175, -2036, 154, -193, 1171, 388
0.369329, 175, -2036, 154, -193, 1171, 388
0.369463, 175, -2036, 154, -193, 1171, 388
0.369597, 175, -2036, 154, -193, 1171, 388
