Time, ax, ay, az, gx, gy, gz
0.000017, -595, -2130, 239, 42, 886, -49
0.000186, -595, -2130, 239, 42, 886, -49
0.000327, -595, -2130, 239, 42, 886, -49
0.000465, 590, -2094, 467, 214, 844, 187
0.000607, 590, -2094, 467, 214, 844, 187
0.000744, 590, -2094, 467, 214, 844, 187
0.000893, 590, -2094, 467, 214, 844, 187
0.001033, 590, -2094, 467, 214, 844, 187
0.001180, 590, -2094, 467, 214, 844, 187
0.001321, 590, -2094, 467, 214, 844, 187
0.001460, 1047, -2025, 229, 434, 827, -383
0.001599, 1047, -2025, 229, 434, 827, -383
0.001737, 1047, -2025, 229, 434, 827, -383
0.001875, 1047, -2025, 229, 434, 827, -383
0.002014, 1047, -2025, 229, 434, 827, -383
0.002152, 1047, -2025, 229, 434, 827, -383
0.002290, 1047, -2025, 229, 434, 827, -383
0.002428, 1047, -2025, 229, 434, 827, -383
0.002567, 477, -2019, 110, 588, 964, -942
0.002708, 477, -2019, 110, 588, 964, -942
0.002847, 477, -2019, 110, 588, 964, -942
0.002985, 477, -2019, 110, 588, 964, -942
0.003123, 477, -2019, 110, 588, 964, -942
0.003262, 477, -2019, 110, 588, 964, -942
0.003400, 477, -2019, 110, 588, 964, -942
0.003538, 338, -2062, 183, 743, 1133, -1081
0.003680, 338, -2062, 183, 743, 1133, -1081
0.003818, 338, -2062, 183, 743, 1133, -1081
0.003957, 338, -2062, 183, 743, 1133, -1081
0.004095, 338, -2062, 183, 743, 1133, -1081
0.004233, 338, -2062, 183, 743, 1133, -1081
0.004372, 338, -2062, 183, 743, 1133, -1081
0.004510, 440, -2081, 92, 916, 1182, -1227
0.004652, 440, -2081, 92, 916, 1182, -1227
0.004790, 440, -2081, 92, 916, 1182, -1227
0.004927, 440, -2081, 92, 916, 1182, -1227
0.005064, 440, -2081, 92, 916, 1182, -1227
0.005202, 440, -2081, 92, 916, 1182, -1227
0.005342, 440, -2081, 92, 916, 1182, -1227
0.005481, 440, -2081, 92, 916, 1182, -1227
0.005619, -224, -2079, -58, 1023, 1166, -1300
0.005760, -224, -2079, -58, 1023, 1166, -1300
0.005898, -224, -2079, -58, 1023, 1166, -1300
0.006037, -224, -2079, -58, 1023, 1166, -1300
0.006174, -224, -2079, -58, 1023, 1166, -1300
0.006312, -224, -2079, -58, 1023, 1166, -1300
0.006457, -224, -2079, -58, 1023, 1166, -1300
0.006596, -476, -2058, -145, 1056, 1122, -946
0.006738, -476, -2058, -145, 1056, 1122, -946
0.006877, -476, -2058, -145, 1056, 1122, -946
0.007015, -476, -2058, -145, 1056, 1122, -946
0.007154, -476, -2058, -145, 1056, 1122, -946
0.007292, -476, -2058, -145, 1056, 1122, -946
0.007430, -476, -2058, -145, 1056, 1122, -946
0.007569, -7, -2031, -307, 989, 1022, -647
0.007710, -7, -2031, -307, 989, 1022, -647
0.007849, -7, -2031, -307, 989, 1022, -647
0.007987, -7, -2031, -307, 989, 1022, -647
0.008126, -7, -2031, -307, 989, 1022, -647
0.008264, -7, -2031, -307, 989, 1022, -647
0.008402, -7, -2031, -307, 989, 1022, -647
0.008541, -7, -2031, -307, 989, 1022, -647
0.008679, 190, -2034, -606, 746, 924, -666
0.008821, 190, -2034, -606, 746, 924, -666
0.008959, 190, -2034, -606, 746, 924, -666
0.009097, 190, -2034, -606, 746, 924, -666
0.009236, 190, -2034, -606, 746, 924, -666
0.009375, 190, -2034, -606, 746, 924, -666
0.009513, 190, -2034, -606, 746, 924, -666
0.009650, 587, -2039, -649, 378, 872, -818
0.009791, 587, -2039, -649, 378, 872, -818
0.009929, 587, -2039, -649, 378, 872, -818
0.010066, 587, -2039, -649, 378, 872, -818
0.010204, 587, -2039, -649, 378, 872, -818
0.010341, 587, -2039, -649, 378, 872, -818
0.010478, 587, -2039, -649, 378, 872, -818
0.010616, 870, -2033, -196, 152, 833, -1221
0.010756, 870, -2033, -196, 152, 833, -1221
0.010894, 870, -2033, -196, 152, 833, -1221
0.011031, 870, -2033, -196, 152, 833, -1221
0.011168, 870, -2033, -196, 152, 833, -1221
0.011306, 870, -2033, -196, 152, 833, -1221
0.011443, 870, -2033, -196, 152, 833, -1221
0.011580, 870, -2033, -196, 152, 833, -1221
0.011717, 291, -2071, 221, 212, 838, -1596
0.011858, 291, -2071, 221, 212, 838, -1596
0.011995, 291, -2071, 221, 212, 838, -1596
0.012133, 291, -2071, 221, 212, 838, -1596
0.012270, 291, -2071, 221, 212, 838, -1596
0.012407, 291, -2071, 221, 212, 838, -1596
0.012545, 291, -2071, 221, 212, 838, -1596
0.012682, -265, -2087, 28, 314, 925, -1512
0.012823, -265, -2087, 28, 314, 925, -1512
0.012960, -265, -2087, 28, 314, 925, -1512
0.013138, -265, -2087, 28, 314, 925, -1512
0.013282, -265, -2087, 28, 314, 925, -1512
0.013421, -265, -2087, 28, 314, 925, -1512
0.013559, -265, -2087, 28, 314, 925, -1512
0.013697, -173, -2026, -567, 170, 994, -1205
0.013838, -173, -2026, -567, 170, 994, -1205
0.013977, -173, -2026, -567, 170, 994, -1205
0.014115, -173, -2026, -567, 170, 994, -1205
0.014252, -173, -2026, -567, 170, 994, -1205
0.014390, -173, -2026, -567, 170, 994, -1205
0.014527, -173, -2026, -567, 170, 994, -1205
0.014664, 326, -2015, -594, -135, 925, -1114
0.014806, 326, -2015, -594, -135, 925, -1114
0.014944, 326, -2015, -594, -135, 925, -1114
0.015082, 326, -2015, -594, -135, 925, -1114
0.015220, 326, -2015, -594, -135, 925, -1114
0.015358, 326, -2015, -594, -135, 925, -1114
0.015495, 326, -2015, -594, -135, 925, -1114
0.015633, 326, -2015, -594, -135, 925, -1114
0.015771, 490, -2107, 91, -193, 730, -1353
0.015912, 490, -2107, 91, -193, 730, -1353
0.016051, 490, -2107, 91, -193, 730, -1353
0.016188, 490, -2107, 91, -193, 730, -1353
0.016325, 490, -2107, 91, -193, 730, -1353
0.016463, 490, -2107, 91, -193, 730, -1353
0.016600, 490, -2107, 91, -193, 730, -1353
0.016738, -73, -2119, 272, 21, 562, -1537
0.016880, -73, -2119, 272, 21, 562, -1537
0.017018, -73, -2119, 272, 21, 562, -1537
0.017157, -73, -2119, 272, 21, 562, -1537
0.017295, -73, -2119, 272, 21, 562, -1537
0.017434, -73, -2119, 272, 21, 562, -1537
0.017572, -73, -2119, 272, 21, 562, -1537
0.017709, -468, -2044, -300, -15, 562, -1331
0.017851, -468, -2044, -300, -15, 562, -1331
0.017989, -468, -2044, -300, -15, 562, -1331
0.018128, -468, -2044, -300, -15, 562, -1331
0.018265, -468, -2044, -300, -15, 562, -1331
0.018402, -468, -2044, -300, -15, 562, -1331
0.018540, -468, -2044, -300, -15, 562, -1331
0.018678, -517, -2038, -415, -282, 660, -933
0.018816, -517, -2038, -415, -282, 660, -933
0.018955, -517, -2038, -415, -282, 660, -933
0.019093, -517, -2038, -415, -282, 660, -933
0.019231, -517, -2038, -415, -282, 660, -933
0.019370, -517, -2038, -415, -282, 660, -933
0.019507, -517, -2038, -415, -282, 660, -933
0.019645, -517, -2038, -415, -282, 660, -933
0.019783, -263, -2010, -214, -361, 598, -588
0.019924, -263, -2010, -214, -361, 598, -588
0.020062, -263, -2010, -214, -361, 598, -588
0.020200, -263, -2010, -214, -361, 598, -588
0.020337, -263, -2010, -214, -361, 598, -588
0.020475, -263, -2010, -214, -361, 598, -588
0.020613, -263, -2010, -214, -361, 598, -588
0.020751, 409, -1963, -595, -540, 376, -578
0.020892, 409, -1963, -595, -540, 376, -578
0.021031, 409, -1963, -595, -540, 376, -578
0.021169, 409, -1963, -595, -540, 376, -578
0.021308, 409, -1963, -595, -540, 376, -578
0.021445, 409, -1963, -595, -540, 376, -578
0.021582, 409, -1963, -595, -540, 376, -578
0.021720, 548, -2027, -532, -918, 289, -936
0.021858, 548, -2027, -532, -918, 289, -936
0.021997, 548, -2027, -532, -918, 289, -936
0.022135, 548, -2027, -532, -918, 289, -936
0.022272, 548, -2027, -532, -918, 289, -936
0.022411, 548, -2027, -532, -918, 289, -936
0.022548, 548, -2027, -532, -918, 289, -936
0.022686, 548, -2027, -532, -918, 289, -936
0.022823, 96, -2132, 265, -969, 328, -1182
0.022965, 96, -2132, 265, -969, 328, -1182
0.023103, 96, -2132, 265, -969, 328, -1182
0.023241, 96, -2132, 265, -969, 328, -1182
0.023378, 96, -2132, 265, -969, 328, -1182
0.023515, 96, -2132, 265, -969, 328, -1182
0.023652, 96, -2132, 265, -969, 328, -1182
0.023791, -431, -2177, 876, -593, 344, -1084
0.023932, -431, -2177, 876, -593, 344, -1084
0.024071, -431, -2177, 876, -593, 344, -1084
0.024208, -431, -2177, 876, -593, 344, -1084
0.024346, -431, -2177, 876, -593, 344, -1084
0.024484, -431, -2177, 876, -593, 344, -1084
0.024622, -431, -2177, 876, -593, 344, -1084
0.024759, -431, -2177, 876, -593, 344, -1084
0.024896, -725, -2152, 1140, 37, 331, -707
0.025038, -725, -2152, 1140, 37, 331, -707
0.025177, -725, -2152, 1140, 37, 331, -707
0.025314, -725, -2152, 1140, 37, 331, -707
0.025452, -725, -2152, 1140, 37, 331, -707
0.025590, -725, -2152, 1140, 37, 331, -707
0.025728, -725, -2152, 1140, 37, 331, -707
0.025865, -179, -2040, 783, 682, 259, -374
0.026014, -179, -2040, 783, 682, 259, -374
0.026151, -179, -2040, 783, 682, 259, -374
0.026289, -179, -2040, 783, 682, 259, -374
0.026428, -179, -2040, 783, 682, 259, -374
0.026566, -179, -2040, 783, 682, 259, -374
0.026704, -179, -2040, 783, 682, 259, -374
0.026841, 362, -1976, 299, 1071, 207, -514
0.026983, 362, -1976, 299, 1071, 207, -514
0.027121, 362, -1976, 299, 1071, 207, -514
0.027259, 362, -1976, 299, 1071, 207, -514
0.027396, 362, -1976, 299, 1071, 207, -514
0.027533, 362, -1976, 299, 1071, 207, -514
0.027670, 362, -1976, 299, 1071, 207, -514
0.027808, 30, -2057, 185, 1300, 240, -806
0.027945, 30, -2057, 185, 1300, 240, -806
0.028084, 30, -2057, 185, 1300, 240, -806
0.028221, 30, -2057, 185, 1300, 240, -806
0.028358, 30, -2057, 185, 1300, 240, -806
0.028495, 30, -2057, 185, 1300, 240, -806
0.028633, 30, -2057, 185, 1300, 240, -806
0.028770, 30, -2057, 185, 1300, 240, -806
0.028907, -304, -2107, -131, 1412, 283, -757
0.029049, -304, -2107, -131, 1412, 283, -757
0.029188, -304, -2107, -131, 1412, 283, -757
0.029325, -304, -2107, -131, 1412, 283, -757
0.029462, -304, -2107, -131, 1412, 283, -757
0.029599, -304, -2107, -131, 1412, 283, -757
0.029737, -304, -2107, -131, 1412, 283, -757
0.029874, 79, -2027, -608, 1249, 300, -600
0.030015, 79, -2027, -608, 1249, 300, -600
0.030153, 79, -2027, -608, 1249, 300, -600
0.030290, 79, -2027, -608, 1249, 300, -600
0.030428, 79, -2027, -608, 1249, 300, -600
0.030564, 79, -2027, -608, 1249, 300, -600
0.030699, 79, -2027, -608, 1249, 300, -600
0.030835, 79, -2027, -608, 1249, 300, -600
0.030970, 697, -1992, -603, 915, 303, -808
0.031106, 697, -1992, -603, 915, 303, -808
0.031242, 697, -1992, -603, 915, 303, -808
0.031378, 697, -1992, -603, 915, 303, -808
0.031513, 697, -1992, -603, 915, 303, -808
0.031649, 697, -1992, -603, 915, 303, -808
0.031784, 697, -1992, -603, 915, 303, -808
0.031920, 602, -2065, -90, 723, 358, -1315
0.032056, 602, -2065, -90, 723, 358, -1315
0.032191, 602, -2065, -90, 723, 358, -1315
0.032327, 602, -2065, -90, 723, 358, -1315
0.032463, 602, -2065, -90, 723, 358, -1315
0.032598, 602, -2065, -90, 723, 358, -1315
0.032734, 602, -2065, -90, 723, 358, -1315
0.032869, 602, -2065, -90, 723, 358, -1315
0.033005, -128, -2119, 265, 743, 506, -1567
0.033142, -128, -2119, 265, 743, 506, -1567
0.033280, -128, -2119, 265, 743, 506, -1567
0.033418, -128, -2119, 265, 743, 506, -1567
0.033556, -128, -2119, 265, 743, 506, -1567
0.033693, -128, -2119, 265, 743, 506, -1567
0.033831, -128, -2119, 265, 743, 506, -1567
0.033970, -354, -2103, 120, 769, 656, -1398
0.034111, -354, -2103, 120, 769, 656, -1398
0.034250, -354, -2103, 120, 769, 656, -1398
0.034388, -354, -2103, 120, 769, 656, -1398
0.034525, -354, -2103, 120, 769, 656, -1398
0.034663, -354, -2103, 120, 769, 656, -1398
0.034800, -354, -2103, 120, 769, 656, -1398
0.034937, 316, -2034, -211, 699, 685, -1327
0.035078, 316, -2034, -211, 699, 685, -1327
0.035216, 316, -2034, -211, 699, 685, -1327
0.035353, 316, -2034, -211, 699, 685, -1327
0.035490, 316, -2034, -211, 699, 685, -1327
0.035627, 316, -2034, -211, 699, 685, -1327
0.035764, 316, -2034, -211, 699, 685, -1327
0.035901, 316, -2034, -211, 699, 685, -1327
0.036038, 622, -2005, -413, 579, 609, -1698
0.036180, 622, -2005, -413, 579, 609, -1698
0.036318, 622, -2005, -413, 579, 609, -1698
0.036455, 622, -2005, -413, 579, 609, -1698
0.036592, 622, -2005, -413, 579, 609, -1698
0.036729, 622, -2005, -413, 579, 609, -1698
0.036866, 622, -2005, -413, 579, 609, -1698
0.037003, 69, -2020, -563, 377, 565, -2020
0.037146, 69, -2020, -563, 377, 565, -2020
0.037281, 69, -2020, -563, 377, 565, -2020
0.037417, 69, -2020, -563, 377, 565, -2020
0.037552, 69, -2020, -563, 377, 565, -2020
0.037688, 69, -2020, -563, 377, 565, -2020
0.037823, 69, -2020, -563, 377, 565, -2020
0.037959, -203, -2032, -680, -4, 587, -1926
0.038094, -203, -2032, -680, -4, 587, -1926
0.038230, -203, -2032, -680, -4, 587, -1926
0.038365, -203, -2032, -680, -4, 587, -1926
0.038501, -203, -2032, -680, -4, 587, -1926
0.038636, -203, -2032, -680, -4, 587, -1926
0.038771, -203, -2032, -680, -4, 587, -1926
0.038907, -203, -2032, -680, -4, 587, -1926
0.039053, 105, -2025, -572, -405, 611, -1771
0.039190, 105, -2025, -572, -405, 611, -1771
0.039328, 105, -2025, -572, -405, 611, -1771
0.039466, 105, -2025, -572, -405, 611, -1771
0.039603, 105, -2025, -572, -405, 611, -1771
0.039741, 105, -2025, -572, -405, 611, -1771
0.039879, 105, -2025, -572, -405, 611, -1771
0.040016, 251, -1997, -420, -703, 642, -1828
0.040156, 251, -1997, -420, -703, 642, -1828
0.040293, 251, -1997, -420, -703, 642, -1828
0.040430, 251, -1997, -420, -703, 642, -1828
0.040567, 251, -1997, -420, -703, 642, -1828
0.040704, 251, -1997, -420, -703, 642, -1828
0.040841, 251, -1997, -420, -703, 642, -1828
0.040979, 76, -1987, -336, -999, 729, -1925
0.041117, 76, -1987, -336, -999, 729, -1925
0.041254, 76, -1987, -336, -999, 729, -1925
0.041392, 76, -1987, -336, -999, 729, -1925
0.041530, 76, -1987, -336, -999, 729, -1925
0.041667, 76, -1987, -336, -999, 729, -1925
0.041805, 76, -1987, -336, -999, 729, -1925
0.041943, 76, -1987, -336, -999, 729, -1925
0.042080, -60, -2031, -95, -1219, 830, -1906
0.042221, -60, -2031, -95, -1219, 830, -1906
0.042361, -60, -2031, -95, -1219, 830, -1906
0.042499, -60, -2031, -95, -1219, 830, -1906
0.042637, -60, -2031, -95, -1219, 830, -1906
0.042775, -60, -2031, -95, -1219, 830, -1906
0.042913, -60, -2031, -95, -1219, 830, -1906
0.043050, -758, -2152, 546, -1135, 868, -1706
0.043192, -758, -2152, 546, -1135, 868, -1706
0.043330, -758, -2152, 546, -1135, 868, -1706
0.043468, -758, -2152, 546, -1135, 868, -1706
0.043605, -758, -2152, 546, -1135, 868, -1706
0.043743, -758, -2152, 546, -1135, 868, -1706
0.043881, -758, -2152, 546, -1135, 868, -1706
0.044019, -758, -2152, 546, -1135, 868, -1706
0.044156, -1219, -2182, 893, -658, 771, -1065
0.044297, -1219, -2182, 893, -658, 771, -1065
0.044435, -1219, -2182, 893, -658, 771, -1065
0.044574, -1219, -2182, 893, -658, 771, -1065
0.044711, -1219, -2182, 893, -658, 771, -1065
0.044849, -1219, -2182, 893, -658, 771, -1065
0.044986, -1219, -2182, 893, -658, 771, -1065
0.045125, 55, -2051, 237, -243, 544, -543
0.045266, 55, -2051, 237, -243, 544, -543
0.045404, 55, -2051, 237, -243, 544, -543
0.045542, 55, -2051, 237, -243, 544, -543
0.045680, 55, -2051, 237, -243, 544, -543
0.045819, 55, -2051, 237, -243, 544, -543
0.045957, 55, -2051, 237, -243, 544, -543
0.046095, 819, -2008, -121, -154, 424, -941
0.046236, 819, -2008, -121, -154, 424, -941
0.046375, 819, -2008, -121, -154, 424, -941
0.046513, 819, -2008, -121, -154, 424, -941
0.046650, 819, -2008, -121, -154, 424, -941
0.046788, 819, -2008, -121, -154, 424, -941
0.046925, 819, -2008, -121, -154, 424, -941
0.047063, -381, -2123, 443, 46, 500, -1361
0.047201, -381, -2123, 443, 46, 500, -1361
0.047339, -381, -2123, 443, 46, 500, -1361
0.047476, -381, -2123, 443, 46, 500, -1361
0.047614, -381, -2123, 443, 46, 500, -1361
0.047751, -381, -2123, 443, 46, 500, -1361
0.047889, -381, -2123, 443, 46, 500, -1361
0.048026, -381, -2123, 443, 46, 500, -1361
0.048164, -1559, -2206, 924, 529, 573, -812
0.048307, -1559, -2206, 924, 529, 573, -812
0.048445, -1559, -2206, 924, 529, 573, -812
0.048583, -1559, -2206, 924, 529, 573, -812
0.048721, -1559, -2206, 924, 529, 573, -812
0.048858, -1559, -2206, 924, 529, 573, -812
0.048995, -1559, -2206, 924, 529, 573, -812
0.049134, -1263, -2130, 682, 1039, 478, 171
0.049275, -1263, -2130, 682, 1039, 478, 171
0.049422, -1263, -2130, 682, 1039, 478, 171
0.049563, -1263, -2130, 682, 1039, 478, 171
0.049702, -1263, -2130, 682, 1039, 478, 171
0.049841, -1263, -2130, 682, 1039, 478, 171
0.049978, -1263, -2130, 682, 1039, 478, 171
0.050117, 400, -1966, -258, 1223, 257, 504
0.050254, 400, -1966, -258, 1223, 257, 504
0.050393, 400, -1966, -258, 1223, 257, 504
0.050531, 400, -1966, -258, 1223, 257, 504
0.050668, 400, -1966, -258, 1223, 257, 504
0.050805, 400, -1966, -258, 1223, 257, 504
0.050943, 400, -1966, -258, 1223, 257, 504
0.051080, 400, -1966, -258, 1223, 257, 504
0.051217, 1910, -1864, -1138, 875, 154, -327
0.051359, 1910, -1864, -1138, 875, 154, -327
0.051497, 1910, -1864, -1138, 875, 154, -327
0.051635, 1910, -1864, -1138, 875, 154, -327
0.051786, 1910, -1864, -1138, 875, 154, -327
0.051924, 1910, -1864, -1138, 875, 154, -327
0.052062, 1910, -1864, -1138, 875, 154, -327
0.052200, 1902, -1912, -1289, 180, 310, -1721
0.052341, 1902, -1912, -1289, 180, 310, -1721
0.052479, 1902, -1912, -1289, 180, 310, -1721
0.052617, 1902, -1912, -1289, 180, 310, -1721
0.052754, 1902, -1912, -1289, 180, 310, -1721
0.052891, 1902, -1912, -1289, 180, 310, -1721
0.053029, 1902, -1912, -1289, 180, 310, -1721
0.053167, 758, -2025, -809, -474, 619, -2638
0.053309, 758, -2025, -809, -474, 619, -2638
0.053447, 758, -2025, -809, -474, 619, -2638
0.053584, 758, -2025, -809, -474, 619, -2638
0.053720, 758, -2025, -809, -474, 619, -2638
0.053854, 758, -2025, -809, -474, 619, -2638
0.053988, 758, -2025, -809, -474, 619, -2638
0.054123, 758, -2025, -809, -474, 619, -2638
0.054257, -767, -2132, -59, -810, 923, -2596
0.054391, -767, -2132, -59, -810, 923, -2596
0.054525, -767, -2132, -59, -810, 923, -2596
0.054659, -767, -2132, -59, -810, 923, -2596
0.054793, -767, -2132, -59, -810, 923, -2596
0.054927, -767, -2132, -59, -810, 923, -2596
0.055061, -767, -2132, -59, -810, 923, -2596
0.055195, -2006, -2247, 750, -685, 1098, -1618
0.055330, -2006, -2247, 750, -685, 1098, -1618
0.055464, -2006, -2247, 750, -685, 1098, -1618
0.055598, -2006, -2247, 750, -685, 1098, -1618
0.055732, -2006, -2247, 750, -685, 1098, -1618
0.055866, -2006, -2247, 750, -685, 1098, -1618
0.056000, -2006, -2247, 750, -685, 1098, -1618
0.056134, -2006, -2247, 750, -685, 1098, -1618
0.056268, -1686, -2205, 794, -281, 976, -292
0.056402, -1686, -2205, 794, -281, 976, -292
0.056537, -1686, -2205, 794, -281, 976, -292
0.056671, -1686, -2205, 794, -281, 976, -292
0.056814, -1686, -2205, 794, -281, 976, -292
0.056956, -1686, -2205, 794, -281, 976, -292
0.057095, -1686, -2205, 794, -281, 976, -292
0.057230, 1, -2026, 53, -68, 533, 255
0.057365, 1, -2026, 53, -68, 533, 255
0.057499, 1, -2026, 53, -68, 533, 255
0.057633, 1, -2026, 53, -68, 533, 255
0.057768, 1, -2026, 53, -68, 533, 255
0.057902, 1, -2026, 53, -68, 533, 255
0.058036, 1, -2026, 53, -68, 533, 255
0.058170, 1, -2026, 53, -68, 533, 255
0.058300, 1147, -1949, -207, -50, 95, -315
0.058434, 1147, -1949, -207, -50, 95, -315
0.058568, 1147, -1949, -207, -50, 95, -315
0.058702, 1147, -1949, -207, -50, 95, -315
0.058837, 1147, -1949, -207, -50, 95, -315
0.058971, 1147, -1949, -207, -50, 95, -315
0.059105, 1147, -1949, -207, -50, 95, -315
0.059239, 988, -2004, 207, 77, -32, -1185
0.059373, 988, -2004, 207, 77, -32, -1185
0.059508, 988, -2004, 207, 77, -32, -1185
0.059642, 988, -2004, 207, 77, -32, -1185
0.059776, 988, -2004, 207, 77, -32, -1185
0.059910, 988, -2004, 207, 77, -32, -1185
0.060044, 988, -2004, 207, 77, -32, -1185
0.060179, 988, -2004, 207, 77, -32, -1185
0.060313, 534, -2061, 583, 404, 152, -1635
0.060447, 534, -2061, 583, 404, 152, -1635
0.060582, 534, -2061, 583, 404, 152, -1635
0.060716, 534, -2061, 583, 404, 152, -1635
0.060850, 534, -2061, 583, 404, 152, -1635
0.060984, 534, -2061, 583, 404, 152, -1635
0.061119, 534, -2061, 583, 404, 152, -1635
0.061253, 170, -2068, 344, 716, 494, -1729
0.061387, 170, -2068, 344, 716, 494, -1729
0.061521, 170, -2068, 344, 716, 494, -1729
0.061656, 170, -2068, 344, 716, 494, -1729
0.061790, 170, -2068, 344, 716, 494, -1729
0.061924, 170, -2068, 344, 716, 494, -1729
0.062058, 170, -2068, 344, 716, 494, -1729
0.062192, 170, -2068, 344, 716, 494, -1729
0.062326, -812, -2083, 58, 811, 858, -1481
0.062460, -812, -2083, 58, 811, 858, -1481
0.062594, -812, -2083, 58, 811, 858, -1481
0.062729, -812, -2083, 58, 811, 858, -1481
0.062863, -812, -2083, 58, 811, 858, -1481
0.062997, -812, -2083, 58, 811, 858, -1481
0.063131, -812, -2083, 58, 811, 858, -1481
0.063265, -812, -2083, 58, 811, 858, -1481
0.063399, -1251, -2100, 34, 850, 994, -687
0.063534, -1251, -2100, 34, 850, 994, -687
0.063668, -1251, -2100, 34, 850, 994, -687
0.063802, -1251, -2100, 34, 850, 994, -687
0.063936, -1251, -2100, 34, 850, 994, -687
0.064070, -1251, -2100, 34, 850, 994, -687
0.064204, -1251, -2100, 34, 850, 994, -687
0.064338, -393, -2117, -371, 774, 742, -39
0.064493, -393, -2117, -371, 774, 742, -39
0.064628, -393, -2117, -371, 774, 742, -39
0.064763, -393, -2117, -371, 774, 742, -39
0.064897, -393, -2117, -371, 774, 742, -39
0.065031, -393, -2117, -371, 774, 742, -39
0.065165, -393, -2117, -371, 774, 742, -39
0.065300, -393, -2117, -371, 774, 742, -39
0.065434, 371, -2075, -629, 502, 345, -121
0.065568, 371, -2075, -629, 502, 345, -121
0.065702, 371, -2075, -629, 502, 345, -121
0.065836, 371, -2075, -629, 502, 345, -121
0.065971, 371, -2075, -629, 502, 345, -121
0.066105, 371, -2075, -629, 502, 345, -121
0.066239, 371, -2075, -629, 502, 345, -121
0.066373, 927, -1982, -484, 248, 64, -614
0.066507, 927, -1982, -484, 248, 64, -614
0.066641, 927, -1982, -484, 248, 64, -614
0.066775, 927, -1982, -484, 248, 64, -614
0.066910, 927, -1982, -484, 248, 64, -614
0.067044, 927, -1982, -484, 248, 64, -614
0.067178, 927, -1982, -484, 248, 64, -614
0.067312, 927, -1982, -484, 248, 64, -614
0.067446, 1291, -1923, -533, -43, 57, -1342
0.067580, 1291, -1923, -533, -43, 57, -1342
0.067715, 1291, -1923, -533, -43, 57, -1342
0.067849, 1291, -1923, -533, -43, 57, -1342
0.067983, 1291, -1923, -533, -43, 57, -1342
0.068117, 1291, -1923, -533, -43, 57, -1342
0.068251, 1291, -1923, -533, -43, 57, -1342
0.068385, 791, -1907, -710, -492, 386, -2030
0.068519, 791, -1907, -710, -492, 386, -2030
0.068654, 791, -1907, -710, -492, 386, -2030
0.068788, 791, -1907, -710, -492, 386, -2030
0.068922, 791, -1907, -710, -492, 386, -2030
0.069056, 791, -1907, -710, -492, 386, -2030
0.069191, 791, -1907, -710, -492, 386, -2030
0.069325, 791, -1907, -710, -492, 386, -2030
0.069459, -516, -2108, -242, -876, 822, -2107
0.069593, -516, -2108, -242, -876, 822, -2107
0.069727, -516, -2108, -242, -876, 822, -2107
0.069861, -516, -2108, -242, -876, 822, -2107
0.069996, -516, -2108, -242, -876, 822, -2107
0.070130, -516, -2108, -242, -876, 822, -2107
0.070264, -516, -2108, -242, -876, 822, -2107
0.070398, -1670, -2340, 905, -699, 988, -1311
0.070532, -1670, -2340, 905, -699, 988, -1311
0.070667, -1670, -2340, 905, -699, 988, -1311
0.070801, -1670, -2340, 905, -699, 988, -1311
0.070935, -1670, -2340, 905, -699, 988, -1311
0.071069, -1670, -2340, 905, -699, 988, -1311
0.071203, -1670, -2340, 905, -699, 988, -1311
0.071337, -1670, -2340, 905, -699, 988, -1311
0.071472, -898, -2167, 875, -92, 661, -284
0.071606, -898, -2167, 875, -92, 661, -284
0.071740, -898, -2167, 875, -92, 661, -284
0.071874, -898, -2167, 875, -92, 661, -284
0.072008, -898, -2167, 875, -92, 661, -284
0.072143, -898, -2167, 875, -92, 661, -284
0.072277, -898, -2167, 875, -92, 661, -284
0.072411, 1073, -1875, -576, -3, 167, -282
0.072545, 1073, -1875, -576, -3, 167, -282
0.072679, 1073, -1875, -576, -3, 167, -282
0.072813, 1073, -1875, -576, -3, 167, -282
0.072948, 1073, -1875, -576, -3, 167, -282
0.073082, 1073, -1875, -576, -3, 167, -282
0.073216, 1073, -1875, -576, -3, 167, -282
0.073350, 1073, -1875, -576, -3, 167, -282
0.073485, 1905, -1822, -1051, -541, 42, -1368
0.073619, 1905, -1822, -1051, -541, 42, -1368
0.073753, 1905, -1822, -1051, -541, 42, -1368
0.073887, 1905, -1822, -1051, -541, 42, -1368
0.074021, 1905, -1822, -1051, -541, 42, -1368
0.074156, 1905, -1822, -1051, -541, 42, -1368
0.074290, 1905, -1822, -1051, -541, 42, -1368
0.074424, 1905, -1822, -1051, -541, 42, -1368
0.074558, 1495, -1917, -204, -883, 266, -2485
0.074692, 1495, -1917, -204, -883, 266, -2485
0.074826, 1495, -1917, -204, -883, 266, -2485
0.074961, 1495, -1917, -204, -883, 266, -2485
0.075095, 1495, -1917, -204, -883, 266, -2485
0.075229, 1495, -1917, -204, -883, 266, -2485
0.075363, 1495, -1917, -204, -883, 266, -2485
0.075498, 139, -2130, 502, -789, 621, -2942
0.075633, 139, -2130, 502, -789, 621, -2942
0.075767, 139, -2130, 502, -789, 621, -2942
0.075901, 139, -2130, 502, -789, 621, -2942
0.076035, 139, -2130, 502, -789, 621, -2942
0.076169, 139, -2130, 502, -789, 621, -2942
0.076304, 139, -2130, 502, -789, 621, -2942
0.076438, 139, -2130, 502, -789, 621, -2942
0.076572, -1475, -2311, 966, -392, 1044, -2345
0.076706, -1475, -2311, 966, -392, 1044, -2345
0.076841, -1475, -2311, 966, -392, 1044, -2345
0.076982, -1475, -2311, 966, -392, 1044, -2345
0.077117, -1475, -2311, 966, -392, 1044, -2345
0.077251, -1475, -2311, 966, -392, 1044, -2345
0.077385, -1475, -2311, 966, -392, 1044, -2345
0.077519, -1218, -2194, 812, 200, 1203, -1136
0.077654, -1218, -2194, 812, 200, 1203, -1136
0.077788, -1218, -2194, 812, 200, 1203, -1136
0.077922, -1218, -2194, 812, 200, 1203, -1136
0.078056, -1218, -2194, 812, 200, 1203, -1136
0.078190, -1218, -2194, 812, 200, 1203, -1136
0.078325, -1218, -2194, 812, 200, 1203, -1136
0.078459, -1218, -2194, 812, 200, 1203, -1136
0.078593, 535, -1965, -193, 456, 915, -741
0.078727, 535, -1965, -193, 456, 915, -741
0.078861, 535, -1965, -193, 456, 915, -741
0.078995, 535, -1965, -193, 456, 915, -741
0.079129, 535, -1965, -193, 456, 915, -741
0.079264, 535, -1965, -193, 456, 915, -741
0.079398, 535, -1965, -193, 456, 915, -741
0.079532, 1087, -1960, -678, 223, 546, -1449
0.079666, 1087, -1960, -678, 223, 546, -1449
0.079800, 1087, -1960, -678, 223, 546, -1449
0.079935, 1087, -1960, -678, 223, 546, -1449
0.080069, 1087, -1960, -678, 223, 546, -1449
0.080203, 1087, -1960, -678, 223, 546, -1449
0.080337, 1087, -1960, -678, 223, 546, -1449
0.080471, 1087, -1960, -678, 223, 546, -1449
0.080605, 390, -2087, -290, -25, 372, -2089
0.080740, 390, -2087, -290, -25, 372, -2089
0.080874, 390, -2087, -290, -25, 372, -2089
0.081008, 390, -2087, -290, -25, 372, -2089
0.081143, 390, -2087, -290, -25, 372, -2089
0.081277, 390, -2087, -290, -25, 372, -2089
0.081411, 390, -2087, -290, -25, 372, -2089
0.081545, 134, -2044, -69, -80, 342, -2151
0.081679, 134, -2044, -69, -80, 342, -2151
0.081814, 134, -2044, -69, -80, 342, -2151
0.081948, 134, -2044, -69, -80, 342, -2151
0.082082, 134, -2044, -69, -80, 342, -2151
0.082216, 134, -2044, -69, -80, 342, -2151
0.082350, 134, -2044, -69, -80, 342, -2151
0.082484, 134, -2044, -69, -80, 342, -2151
0.082618, 298, -1911, -692, -274, 402, -2108
0.082753, 298, -1911, -692, -274, 402, -2108
0.082887, 298, -1911, -692, -274, 402, -2108
0.083021, 298, -1911, -692, -274, 402, -2108
0.083155, 298, -1911, -692, -274, 402, -2108
0.083289, 298, -1911, -692, -274, 402, -2108
0.083424, 298, -1911, -692, -274, 402, -2108
0.083558, 222, -2004, -965, -859, 578, -2138
0.083692, 222, -2004, -965, -859, 578, -2138
0.083826, 222, -2004, -965, -859, 578, -2138
0.083961, 222, -2004, -965, -859, 578, -2138
0.084095, 222, -2004, -965, -859, 578, -2138
0.084229, 222, -2004, -965, -859, 578, -2138
0.084363, 222, -2004, -965, -859, 578, -2138
0.084497, 222, -2004, -965, -859, 578, -2138
0.084631, 80, -2110, -146, -1236, 705, -2105
0.084766, 80, -2110, -146, -1236, 705, -2105
0.084900, 80, -2110, -146, -1236, 705, -2105
0.085034, 80, -2110, -146, -1236, 705, -2105
0.085169, 80, -2110, -146, -1236, 705, -2105
0.085303, 80, -2110, -146, -1236, 705, -2105
0.085437, 80, -2110, -146, -1236, 705, -2105
0.085571, 80, -2110, -146, -1236, 705, -2105
0.085705, -390, -2102, 449, -1072, 583, -1963
0.085840, -390, -2102, 449, -1072, 583, -1963
0.085974, -390, -2102, 449, -1072, 583, -1963
0.086108, -390, -2102, 449, -1072, 583, -1963
0.086242, -390, -2102, 449, -1072, 583, -1963
0.086376, -390, -2102, 449, -1072, 583, -1963
0.086511, -390, -2102, 449, -1072, 583, -1963
0.086645, -968, -2188, 447, -792, 382, -1514
0.086779, -968, -2188, 447, -792, 382, -1514
0.086913, -968, -2188, 447, -792, 382, -1514
0.087047, -968, -2188, 447, -792, 382, -1514
0.087181, -968, -2188, 447, -792, 382, -1514
0.087316, -968, -2188, 447, -792, 382, -1514
0.087450, -968, -2188, 447, -792, 382, -1514
0.087584, -968, -2188, 447, -792, 382, -1514
0.087718, -605, -2132, 158, -596, 215, -913
0.087852, -605, -2132, 158, -596, 215, -913
0.087986, -605, -2132, 158, -596, 215, -913
0.088121, -605, -2132, 158, -596, 215, -913
0.088255, -605, -2132, 158, -596, 215, -913
0.088389, -605, -2132, 158, -596, 215, -913
0.088523, -605, -2132, 158, -596, 215, -913
0.088657, 215, -1966, -59, -503, 21, -728
0.088791, 215, -1966, -59, -503, 21, -728
0.088926, 215, -1966, -59, -503, 21, -728
0.089060, 215, -1966, -59, -503, 21, -728
0.089199, 215, -1966, -59, -503, 21, -728
0.089333, 215, -1966, -59, -503, 21, -728
0.089467, 215, -1966, -59, -503, 21, -728
0.089601, 215, -1966, -59, -503, 21, -728
0.089736, 593, -1989, -64, -458, -114, -999
0.089870, 593, -1989, -64, -458, -114, -999
0.090004, 593, -1989, -64, -458, -114, -999
0.090138, 593, -1989, -64, -458, -114, -999
0.090272, 593, -1989, -64, -458, -114, -999
0.090406, 593, -1989, -64, -458, -114, -999
0.090541, 593, -1989, -64, -458, -114, -999
0.090675, 315, -2101, 81, -424, -77, -1322
0.090809, 315, -2101, 81, -424, -77, -1322
0.090943, 315, -2101, 81, -424, -77, -1322
0.091077, 315, -2101, 81, -424, -77, -1322
0.091212, 315, -2101, 81, -424, -77, -1322
0.091346, 315, -2101, 81, -424, -77, -1322
0.091480, 315, -2101, 81, -424, -77, -1322
0.091614, 315, -2101, 81, -424, -77, -1322
0.091748, -262, -2135, 655, -186, 84, -1301
0.091882, -262, -2135, 655, -186, 84, -1301
0.092016, -262, -2135, 655, -186, 84, -1301
0.092151, -262, -2135, 655, -186, 84, -1301
0.092285, -262, -2135, 655, -186, 84, -1301
0.092419, -262, -2135, 655, -186, 84, -1301
0.092553, -262, -2135, 655, -186, 84, -1301
0.092688, -149, -2058, 763, 325, 153, -1025
0.092822, -149, -2058, 763, 325, 153, -1025
0.092956, -149, -2058, 763, 325, 153, -1025
0.093090, -149, -2058, 763, 325, 153, -1025
0.093225, -149, -2058, 763, 325, 153, -1025
0.093358, -149, -2058, 763, 325, 153, -1025
0.093492, -149, -2058, 763, 325, 153, -1025
0.093625, -149, -2058, 763, 325, 153, -1025
0.093759, 448, -1987, 54, 580, 146, -1054
0.093892, 448, -1987, 54, 580, 146, -1054
0.094026, 448, -1987, 54, 580, 146, -1054
0.094159, 448, -1987, 54, 580, 146, -1054
0.094293, 448, -1987, 54, 580, 146, -1054
0.094426, 448, -1987, 54, 580, 146, -1054
0.094559, 448, -1987, 54, 580, 146, -1054
0.094693, 448, -1987, 54, 580, 146, -1054
0.094826, 216, -2022, -271, 485, 239, -1373
0.094960, 216, -2022, -271, 485, 239, -1373
0.095093, 216, -2022, -271, 485, 239, -1373
0.095227, 216, -2022, -271, 485, 239, -1373
0.095360, 216, -2022, -271, 485, 239, -1373
0.095494, 216, -2022, -271, 485, 239, -1373
0.095627, 216, -2022, -271, 485, 239, -1373
0.095761, -625, -2108, -15, 456, 301, -1317
0.095894, -625, -2108, -15, 456, 301, -1317
0.096028, -625, -2108, -15, 456, 301, -1317
0.096161, -625, -2108, -15, 456, 301, -1317
0.096295, -625, -2108, -15, 456, 301, -1317
0.096428, -625, -2108, -15, 456, 301, -1317
0.096562, -625, -2108, -15, 456, 301, -1317
0.096695, -625, -2108, -15, 456, 301, -1317
0.096829, -263, -2076, -24, 515, 146, -884
0.096962, -263, -2076, -24, 515, 146, -884
0.097096, -263, -2076, -24, 515, 146, -884
0.097230, -263, -2076, -24, 515, 146, -884
0.097363, -263, -2076, -24, 515, 146, -884
0.097497, -263, -2076, -24, 515, 146, -884
0.097631, -263, -2076, -24, 515, 146, -884
0.097764, 1151, -1903, -647, 324, -101, -1036
0.097898, 1151, -1903, -647, 324, -101, -1036
0.098031, 1151, -1903, -647, 324, -101, -1036
0.098166, 1151, -1903, -647, 324, -101, -1036
0.098300, 1151, -1903, -647, 324, -101, -1036
0.098435, 1151, -1903, -647, 324, -101, -1036
0.098569, 1151, -1903, -647, 324, -101, -1036
0.098704, 1151, -1903, -647, 324, -101, -1036
0.098838, 1473, -1909, -989, -239, -115, -1965
0.098967, 1473, -1909, -989, -239, -115, -1965
0.099098, 1473, -1909, -989, -239, -115, -1965
0.099234, 1473, -1909, -989, -239, -115, -1965
0.099367, 1473, -1909, -989, -239, -115, -1965
0.099501, 1473, -1909, -989, -239, -115, -1965
0.099634, 1473, -1909, -989, -239, -115, -1965
0.099768, 1473, -1909, -989, -239, -115, -1965
0.099901, 529, -2114, -317, -687, 178, -2656
0.100035, 529, -2114, -317, -687, 178, -2656
0.100169, 529, -2114, -317, -687, 178, -2656
0.100302, 529, -2114, -317, -687, 178, -2656
0.100436, 529, -2114, -317, -687, 178, -2656
0.100570, 529, -2114, -317, -687, 178, -2656
0.100703, 529, -2114, -317, -687, 178, -2656
0.100837, -616, -2150, 391, -612, 495, -2524
0.100971, -616, -2150, 391, -612, 495, -2524
0.101104, -616, -2150, 391, -612, 495, -2524
0.101242, -616, -2150, 391, -612, 495, -2524
0.101376, -616, -2150, 391, -612, 495, -2524
0.101510, -616, -2150, 391, -612, 495, -2524
0.101653, -616, -2150, 391, -612, 495, -2524
0.101788, -616, -2150, 391, -612, 495, -2524
0.101922, -1370, -2088, 449, -360, 630, -1726
0.102056, -1370, -2088, 449, -360, 630, -1726
0.102191, -1370, -2088, 449, -360, 630, -1726
0.102325, -1370, -2088, 449, -360, 630, -1726
0.102459, -1370, -2088, 449, -360, 630, -1726
0.102593, -1370, -2088, 449, -360, 630, -1726
0.102727, -1370, -2088, 449, -360, 630, -1726
0.102862, -844, -2097, 229, -241, 536, -829
0.102996, -844, -2097, 229, -241, 536, -829
0.103130, -844, -2097, 229, -241, 536, -829
0.103264, -844, -2097, 229, -241, 536, -829
0.103398, -844, -2097, 229, -241, 536, -829
0.103533, -844, -2097, 229, -241, 536, -829
0.103667, -844, -2097, 229, -241, 536, -829
0.103801, -844, -2097, 229, -241, 536, -829
0.103935, 106, -2112, 258, -102, 250, -581
0.104069, 106, -2112, 258, -102, 250, -581
0.104204, 106, -2112, 258, -102, 250, -581
0.104338, 106, -2112, 258, -102, 250, -581
0.104473, 106, -2112, 258, -102, 250, -581
0.104609, 106, -2112, 258, -102, 250, -581
0.104743, 106, -2112, 258, -102, 250, -581
0.104878, -27, -2145, 902, 360, -48, -762
0.105013, -27, -2145, 902, 360, -48, -762
0.105148, -27, -2145, 902, 360, -48, -762
0.105283, -27, -2145, 902, 360, -48, -762
0.105419, -27, -2145, 902, 360, -48, -762
0.105553, -27, -2145, 902, 360, -48, -762
0.105696, -27, -2145, 902, 360, -48, -762
0.105837, -27, -2145, 902, 360, -48, -762
0.105975, -456, -2149, 1111, 1091, -203, -660
0.106112, -456, -2149, 1111, 1091, -203, -660
0.106247, -456, -2149, 1111, 1091, -203, -660
0.106381, -456, -2149, 1111, 1091, -203, -660
0.106516, -456, -2149, 1111, 1091, -203, -660
0.106650, -456, -2149, 1111, 1091, -203, -660
0.106784, -456, -2149, 1111, 1091, -203, -660
0.106918, -517, -2108, 218, 1526, -133, -304
0.107053, -517, -2108, 218, 1526, -133, -304
0.107187, -517, -2108, 218, 1526, -133, -304
0.107321, -517, -2108, 218, 1526, -133, -304
0.107456, -517, -2108, 218, 1526, -133, -304
0.107590, -517, -2108, 218, 1526, -133, -304
0.107724, -517, -2108, 218, 1526, -133, -304
0.107858, -517, -2108, 218, 1526, -133, -304
0.107992, -295, -2050, -635, 1421, 71, 51
0.108127, -295, -2050, -635, 1421, 71, 51
0.108261, -295, -2050, -635, 1421, 71, 51
0.108395, -295, -2050, -635, 1421, 71, 51
0.108529, -295, -2050, -635, 1421, 71, 51
0.108663, -295, -2050, -635, 1421, 71, 51
0.108797, -295, -2050, -635, 1421, 71, 51
0.108931, 476, -1946, -994, 1022, 112, 151
0.109066, 476, -1946, -994, 1022, 112, 151
0.109202, 476, -1946, -994, 1022, 112, 151
0.109336, 476, -1946, -994, 1022, 112, 151
0.109470, 476, -1946, -994, 1022, 112, 151
0.109604, 476, -1946, -994, 1022, 112, 151
0.109738, 476, -1946, -994, 1022, 112, 151
0.109873, 476, -1946, -994, 1022, 112, 151
0.110007, 1267, -1895, -1141, 423, -23, -305
0.110141, 1267, -1895, -1141, 423, -23, -305
0.110275, 1267, -1895, -1141, 423, -23, -305
0.110410, 1267, -1895, -1141, 423, -23, -305
0.110544, 1267, -1895, -1141, 423, -23, -305
0.110678, 1267, -1895, -1141, 423, -23, -305
0.110812, 1267, -1895, -1141, 423, -23, -305
0.110946, 1173, -2013, -727, -213, -31, -1093
0.111081, 1173, -2013, -727, -213, -31, -1093
0.111215, 1173, -2013, -727, -213, -31, -1093
0.111349, 1173, -2013, -727, -213, -31, -1093
0.111483, 1173, -2013, -727, -213, -31, -1093
0.111617, 1173, -2013, -727, -213, -31, -1093
0.111752, 1173, -2013, -727, -213, -31, -1093
0.111886, 1173, -2013, -727, -213, -31, -1093
0.112020, -25, -2128, -9, -495, 194, -1480
0.112154, -25, -2128, -9, -495, 194, -1480
0.112288, -25, -2128, -9, -495, 194, -1480
0.112423, -25, -2128, -9, -495, 194, -1480
0.112557, -25, -2128, -9, -495, 194, -1480
0.112691, -25, -2128, -9, -495, 194, -1480
0.112825, -25, -2128, -9, -495, 194, -1480
0.112959, -903, -2116, 426, -427, 456, -1018
0.113094, -903, -2116, 426, -427, 456, -1018
0.113228, -903, -2116, 426, -427, 456, -1018
0.113362, -903, -2116, 426, -427, 456, -1018
0.113497, -903, -2116, 426, -427, 456, -1018
0.113631, -903, -2116, 426, -427, 456, -1018
0.113765, -903, -2116, 426, -427, 456, -1018
0.113899, -903, -2116, 426, -427, 456, -1018
0.114033, -324, -2121, 584, -159, 523, -374
0.114188, -324, -2121, 584, -159, 523, -374
0.114325, -324, -2121, 584, -159, 523, -374
0.114460, -324, -2121, 584, -159, 523, -374
0.114594, -324, -2121, 584, -159, 523, -374
0.114728, -324, -2121, 584, -159, 523, -374
0.114862, -324, -2121, 584, -159, 523, -374
0.114996, 144, -2092, 164, 130, 397, -299
0.115131, 144, -2092, 164, 130, 397, -299
0.115265, 144, -2092, 164, 130, 397, -299
0.115399, 144, -2092, 164, 130, 397, -299
0.115533, 144, -2092, 164, 130, 397, -299
0.115668, 144, -2092, 164, 130, 397, -299
0.115802, 144, -2092, 164, 130, 397, -299
0.115936, 144, -2092, 164, 130, 397, -299
0.116070, 381, -1946, -474, 92, 291, -462
0.116204, 381, -1946, -474, 92, 291, -462
0.116339, 381, -1946, -474, 92, 291, -462
0.116473, 381, -1946, -474, 92, 291, -462
0.116607, 381, -1946, -474, 92, 291, -462
0.116741, 381, -1946, -474, 92, 291, -462
0.116875, 381, -1946, -474, 92, 291, -462
0.117010, 860, -1920, -535, -183, 274, -773
0.117145, 860, -1920, -535, -183, 274, -773
0.117279, 860, -1920, -535, -183, 274, -773
0.117413, 860, -1920, -535, -183, 274, -773
0.117547, 860, -1920, -535, -183, 274, -773
0.117681, 860, -1920, -535, -183, 274, -773
0.117816, 860, -1920, -535, -183, 274, -773
0.117950, 860, -1920, -535, -183, 274, -773
0.118084, -5, -2097, -107, -348, 325, -1112
0.118218, -5, -2097, -107, -348, 325, -1112
0.118353, -5, -2097, -107, -348, 325, -1112
0.118487, -5, -2097, -107, -348, 325, -1112
0.118621, -5, -2097, -107, -348, 325, -1112
0.118755, -5, -2097, -107, -348, 325, -1112
0.118889, -5, -2097, -107, -348, 325, -1112
0.119023, -5, -2097, -107, -348, 325, -1112
0.119157, -1398, -2206, 482, -240, 444, -631
0.119292, -1398, -2206, 482, -240, 444, -631
0.119426, -1398, -2206, 482, -240, 444, -631
0.119560, -1398, -2206, 482, -240, 444, -631
0.119694, -1398, -2206, 482, -240, 444, -631
0.119828, -1398, -2206, 482, -240, 444, -631
0.119963, -1398, -2206, 482, -240, 444, -631
0.120097, -1026, -2169, 715, 86, 458, 419
0.120231, -1026, -2169, 715, 86, 458, 419
0.120365, -1026, -2169, 715, 86, 458, 419
0.120500, -1026, -2169, 715, 86, 458, 419
0.120634, -1026, -2169, 715, 86, 458, 419
0.120768, -1026, -2169, 715, 86, 458, 419
0.120902, -1026, -2169, 715, 86, 458, 419
0.121036, -1026, -2169, 715, 86, 458, 419
0.121171, 492, -2091, 333, 394, 281, 737
0.121305, 492, -2091, 333, 394, 281, 737
0.121439, 492, -2091, 333, 394, 281, 737
0.121573, 492, -2091, 333, 394, 281, 737
0.121707, 492, -2091, 333, 394, 281, 737
0.121842, 492, -2091, 333, 394, 281, 737
0.121976, 492, -2091, 333, 394, 281, 737
0.122110, 926, -2008, -325, 462, 134, 108
0.122244, 926, -2008, -325, 462, 134, 108
0.122378, 926, -2008, -325, 462, 134, 108
0.122513, 926, -2008, -325, 462, 134, 108
0.122647, 926, -2008, -325, 462, 134, 108
0.122781, 926, -2008, -325, 462, 134, 108
0.122915, 926, -2008, -325, 462, 134, 108
0.123049, 926, -2008, -325, 462, 134, 108
0.123183, 148, -2004, -641, 216, 212, -397
0.123318, 148, -2004, -641, 216, 212, -397
0.123452, 148, -2004, -641, 216, 212, -397
0.123586, 148, -2004, -641, 216, 212, -397
0.123720, 148, -2004, -641, 216, 212, -397
0.123854, 148, -2004, -641, 216, 212, -397
0.123989, 148, -2004, -641, 216, 212, -397
0.124123, -87, -1999, -408, -75, 372, -277
0.124257, -87, -1999, -408, -75, 372, -277
0.124391, -87, -1999, -408, -75, 372, -277
0.124526, -87, -1999, -408, -75, 372, -277
0.124660, -87, -1999, -408, -75, 372, -277
0.124794, -87, -1999, -408, -75, 372, -277
0.124928, -87, -1999, -408, -75, 372, -277
0.125062, -87, -1999, -408, -75, 372, -277
0.125197, 321, -1996, -228, -250, 386, -190
0.125331, 321, -1996, -228, -250, 386, -190
0.125465, 321, -1996, -228, -250, 386, -190
0.125599, 321, -1996, -228, -250, 386, -190
0.125733, 321, -1996, -228, -250, 386, -190
0.125868, 321, -1996, -228, -250, 386, -190
0.126002, 321, -1996, -228, -250, 386, -190
0.126136, -16, -2067, -71, -373, 382, -306
0.126270, -16, -2067, -71, -373, 382, -306
0.126404, -16, -2067, -71, -373, 382, -306
0.126538, -16, -2067, -71, -373, 382, -306
0.126673, -16, -2067, -71, -373, 382, -306
0.126807, -16, -2067, -71, -373, 382, -306
0.126946, -16, -2067, -71, -373, 382, -306
0.127081, -16, -2067, -71, -373, 382, -306
0.127215, -291, -2048, -57, -437, 464, -141
0.127349, -291, -2048, -57, -437, 464, -141
0.127483, -291, -2048, -57, -437, 464, -141
0.127617, -291, -2048, -57, -437, 464, -141
0.127751, -291, -2048, -57, -437, 464, -141
0.127886, -291, -2048, -57, -437, 464, -141
0.128020, -291, -2048, -57, -437, 464, -141
0.128154, -9, -2069, -176, -568, 522, 53
0.128288, -9, -2069, -176, -568, 522, 53
0.128422, -9, -2069, -176, -568, 522, 53
0.128556, -9, -2069, -176, -568, 522, 53
0.128691, -9, -2069, -176, -568, 522, 53
0.128825, -9, -2069, -176, -568, 522, 53
0.128959, -9, -2069, -176, -568, 522, 53
0.129093, -9, -2069, -176, -568, 522, 53
0.129228, -67, -2109, 191, -587, 528, 77
0.129362, -67, -2109, 191, -587, 528, 77
0.129496, -67, -2109, 191, -587, 528, 77
0.129630, -67, -2109, 191, -587, 528, 77
0.129764, -67, -2109, 191, -587, 528, 77
0.129898, -67, -2109, 191, -587, 528, 77
0.130033, -67, -2109, 191, -587, 528, 77
0.130167, -67, -2109, 191, -587, 528, 77
0.130301, 49, -2036, 597, -288, 452, 125
0.130435, 49, -2036, 597, -288, 452, 125
0.130569, 49, -2036, 597, -288, 452, 125
0.130703, 49, -2036, 597, -288, 452, 125
0.130837, 49, -2036, 597, -288, 452, 125
0.130972, 49, -2036, 597, -288, 452, 125
0.131106, 49, -2036, 597, -288, 452, 125
0.131240, 9, -2056, 807, 160, 389, 100
0.131374, 9, -2056, 807, 160, 389, 100
0.131508, 9, -2056, 807, 160, 389, 100
0.131642, 9, -2056, 807, 160, 389, 100
0.131777, 9, -2056, 807, 160, 389, 100
0.131911, 9, -2056, 807, 160, 389, 100
0.132045, 9, -2056, 807, 160, 389, 100
0.132179, 9, -2056, 807, 160, 389, 100
0.132313, -418, -2118, 748, 657, 448, 214
0.132447, -418, -2118, 748, 657, 448, 214
0.132581, -418, -2118, 748, 657, 448, 214
0.132716, -418, -2118, 748, 657, 448, 214
0.132850, -418, -2118, 748, 657, 448, 214
0.132984, -418, -2118, 748, 657, 448, 214
0.133118, -418, -2118, 748, 657, 448, 214
0.133252, -299, -2113, 226, 1005, 544, 546
0.133387, -299, -2113, 226, 1005, 544, 546
0.133521, -299, -2113, 226, 1005, 544, 546
0.133655, -299, -2113, 226, 1005, 544, 546
0.133789, -299, -2113, 226, 1005, 544, 546
0.133923, -299, -2113, 226, 1005, 544, 546
0.134057, -299, -2113, 226, 1005, 544, 546
0.134191, -299, -2113, 226, 1005, 544, 546
0.134325, 149, -2060, -380, 1050, 569, 670
0.134460, 149, -2060, -380, 1050, 569, 670
0.134594, 149, -2060, -380, 1050, 569, 670
0.134728, 149, -2060, -380, 1050, 569, 670
0.134862, 149, -2060, -380, 1050, 569, 670
0.134996, 149, -2060, -380, 1050, 569, 670
0.135131, 149, -2060, -380, 1050, 569, 670
0.135265, 38, -2027, -613, 838, 501, 571
0.135399, 38, -2027, -613, 838, 501, 571
0.135533, 38, -2027, -613, 838, 501, 571
0.135667, 38, -2027, -613, 838, 501, 571
0.135801, 38, -2027, -613, 838, 501, 571
0.135936, 38, -2027, -613, 838, 501, 571
0.136070, 38, -2027, -613, 838, 501, 571
0.136204, 38, -2027, -613, 838, 501, 571
0.136338, -65, -2073, -292, 582, 391, 601
0.136472, -65, -2073, -292, 582, 391, 601
0.136606, -65, -2073, -292, 582, 391, 601
0.136740, -65, -2073, -292, 582, 391, 601
0.136874, -65, -2073, -292, 582, 391, 601
0.137009, -65, -2073, -292, 582, 391, 601
0.137143, -65, -2073, -292, 582, 391, 601
0.137277, 436, -2086, -29, 501, 267, 564
0.137412, 436, -2086, -29, 501, 267, 564
0.137546, 436, -2086, -29, 501, 267, 564
0.137680, 436, -2086, -29, 501, 267, 564
0.137814, 436, -2086, -29, 501, 267, 564
0.137948, 436, -2086, -29, 501, 267, 564
0.138082, 436, -2086, -29, 501, 267, 564
0.138217, 436, -2086, -29, 501, 267, 564
0.138351, 190, -2023, -326, 408, 246, 312
0.138485, 190, -2023, -326, 408, 246, 312
0.138619, 190, -2023, -326, 408, 246, 312
0.138753, 190, -2023, -326, 408, 246, 312
0.138888, 190, -2023, -326, 408, 246, 312
0.139022, 190, -2023, -326, 408, 246, 312
0.139156, 190, -2023, -326, 408, 246, 312
0.139290, 190, -2023, -326, 408, 246, 312
0.139424, -321, -2006, -509, 94, 401, 402
0.139558, -321, -2006, -509, 94, 401, 402
0.139693, -321, -2006, -509, 94, 401, 402
0.139827, -321, -2006, -509, 94, 401, 402
0.139961, -321, -2006, -509, 94, 401, 402
0.140099, -321, -2006, -509, 94, 401, 402
0.140233, -321, -2006, -509, 94, 401, 402
0.140368, 90, -2068, 2, -120, 504, 657
0.140502, 90, -2068, 2, -120, 504, 657
0.140636, 90, -2068, 2, -120, 504, 657
0.140770, 90, -2068, 2, -120, 504, 657
0.140904, 90, -2068, 2, -120, 504, 657
0.141039, 90, -2068, 2, -120, 504, 657
0.141173, 90, -2068, 2, -120, 504, 657
0.141307, 90, -2068, 2, -120, 504, 657
0.141440, 100, -2087, 428, 50, 401, 616
0.141574, 100, -2087, 428, 50, 401, 616
0.141708, 100, -2087, 428, 50, 401, 616
0.141841, 100, -2087, 428, 50, 401, 616
0.141974, 100, -2087, 428, 50, 401, 616
0.142108, 100, -2087, 428, 50, 401, 616
0.142241, 100, -2087, 428, 50, 401, 616
0.142375, -131, -2000, 118, 266, 270, 658
0.142509, -131, -2000, 118, 266, 270, 658
0.142642, -131, -2000, 118, 266, 270, 658
0.142776, -131, -2000, 118, 266, 270, 658
0.142909, -131, -2000, 118, 266, 270, 658
0.143042, -131, -2000, 118, 266, 270, 658
0.143176, -131, -2000, 118, 266, 270, 658
0.143309, -131, -2000, 118, 266, 270, 658
0.143443, 321, -1948, -444, 177, 280, 741
0.143576, 321, -1948, -444, 177, 280, 741
0.143710, 321, -1948, -444, 177, 280, 741
0.143843, 321, -1948, -444, 177, 280, 741
0.143977, 321, -1948, -444, 177, 280, 741
0.144110, 321, -1948, -444, 177, 280, 741
0.144244, 321, -1948, -444, 177, 280, 741
0.144377, 338, -2010, -597, -110, 382, 603
0.144511, 338, -2010, -597, -110, 382, 603
0.144644, 338, -2010, -597, -110, 382, 603
0.144778, 338, -2010, -597, -110, 382, 603
0.144911, 338, -2010, -597, -110, 382, 603
0.145044, 338, -2010, -597, -110, 382, 603
0.145179, 338, -2010, -597, -110, 382, 603
0.145314, 338, -2010, -597, -110, 382, 603
0.145448, -209, -2100, 22, -233, 444, 637
0.145582, -209, -2100, 22, -233, 444, 637
0.145716, -209, -2100, 22, -233, 444, 637
0.145851, -209, -2100, 22, -233, 444, 637
0.145985, -209, -2100, 22, -233, 444, 637
0.146114, -209, -2100, 22, -233, 444, 637
0.146249, -209, -2100, 22, -233, 444, 637
0.146383, -209, -2100, 22, -233, 444, 637
0.146518, -447, -2191, 941, 108, 375, 975
0.146652, -447, -2191, 941, 108, 375, 975
0.146786, -447, -2191, 941, 108, 375, 975
0.146920, -447, -2191, 941, 108, 375, 975
0.147054, -447, -2191, 941, 108, 375, 975
0.147189, -447, -2191, 941, 108, 375, 975
0.147323, -447, -2191, 941, 108, 375, 975
0.147457, -649, -2240, 1099, 773, 228, 1364
0.147591, -649, -2240, 1099, 773, 228, 1364
0.147725, -649, -2240, 1099, 773, 228, 1364
0.147859, -649, -2240, 1099, 773, 228, 1364
0.147994, -649, -2240, 1099, 773, 228, 1364
0.148128, -649, -2240, 1099, 773, 228, 1364
0.148262, -649, -2240, 1099, 773, 228, 1364
0.148396, -649, -2240, 1099, 773, 228, 1364
0.148530, -735, -2170, 508, 1298, 130, 1793
0.148665, -735, -2170, 508, 1298, 130, 1793
0.148799, -735, -2170, 508, 1298, 130, 1793
0.148933, -735, -2170, 508, 1298, 130, 1793
0.149067, -735, -2170, 508, 1298, 130, 1793
0.149202, -735, -2170, 508, 1298, 130, 1793
0.149336, -735, -2170, 508, 1298, 130, 1793
0.149470, -406, -2051, -24, 1504, 77, 2151
0.149605, -406, -2051, -24, 1504, 77, 2151
0.149739, -406, -2051, -24, 1504, 77, 2151
0.149873, -406, -2051, -24, 1504, 77, 2151
0.150003, -406, -2051, -24, 1504, 77, 2151
0.150140, -406, -2051, -24, 1504, 77, 2151
0.150276, -406, -2051, -24, 1504, 77, 2151
0.150410, -406, -2051, -24, 1504, 77, 2151
0.150544, -76, -1982, -288, 1485, -21, 2271
0.150679, -76, -1982, -288, 1485, -21, 2271
0.150813, -76, -1982, -288, 1485, -21, 2271
0.150947, -76, -1982, -288, 1485, -21, 2271
0.151081, -76, -1982, -288, 1485, -21, 2271
0.151215, -76, -1982, -288, 1485, -21, 2271
0.151350, -76, -1982, -288, 1485, -21, 2271
0.151484, 643, -1955, -585, 1275, -152, 2153
0.151618, 643, -1955, -585, 1275, -152, 2153
0.151752, 643, -1955, -585, 1275, -152, 2153
0.151887, 643, -1955, -585, 1275, -152, 2153
0.152021, 643, -1955, -585, 1275, -152, 2153
0.152155, 643, -1955, -585, 1275, -152, 2153
0.152289, 643, -1955, -585, 1275, -152, 2153
0.152423, 643, -1955, -585, 1275, -152, 2153
0.152558, 1788, -1935, -1006, 821, -202, 1498
0.152692, 1788, -1935, -1006, 821, -202, 1498
0.152826, 1788, -1935, -1006, 821, -202, 1498
0.152970, 1788, -1935, -1006, 821, -202, 1498
0.153105, 1788, -1935, -1006, 821, -202, 1498
0.153243, 1788, -1935, -1006, 821, -202, 1498
0.153378, 1788, -1935, -1006, 821, -202, 1498
0.153512, 1716, -1958, -958, 215, -37, 346
0.153646, 1716, -1958, -958, 215, -37, 346
0.153780, 1716, -1958, -958, 215, -37, 346
0.153915, 1716, -1958, -958, 215, -37, 346
0.154049, 1716, -1958, -958, 215, -37, 346
0.154183, 1716, -1958, -958, 215, -37, 346
0.154317, 1716, -1958, -958, 215, -37, 346
0.154451, 1716, -1958, -958, 215, -37, 346
0.154585, 32, -2085, -157, -163, 326, -239
0.154720, 32, -2085, -157, -163, 326, -239
0.154854, 32, -2085, -157, -163, 326, -239
0.154988, 32, -2085, -157, -163, 326, -239
0.155122, 32, -2085, -157, -163, 326, -239
0.155256, 32, -2085, -157, -163, 326, -239
0.155390, 32, -2085, -157, -163, 326, -239
0.155525, -1017, -2188, 631, -93, 634, 315
0.155659, -1017, -2188, 631, -93, 634, 315
0.155793, -1017, -2188, 631, -93, 634, 315
0.155927, -1017, -2188, 631, -93, 634, 315
0.156061, -1017, -2188, 631, -93, 634, 315
0.156196, -1017, -2188, 631, -93, 634, 315
0.156330, -1017, -2188, 631, -93, 634, 315
0.156465, -1017, -2188, 631, -93, 634, 315
0.156599, -292, -2074, 563, 215, 641, 1028
0.156734, -292, -2074, 563, 215, 641, 1028
0.156868, -292, -2074, 563, 215, 641, 1028
0.157002, -292, -2074, 563, 215, 641, 1028
0.157137, -292, -2074, 563, 215, 641, 1028
0.157271, -292, -2074, 563, 215, 641, 1028
0.157405, -292, -2074, 563, 215, 641, 1028
0.157539, -292, -2074, 563, 215, 641, 1028
0.157673, 860, -1910, -337, 298, 426, 917
0.157808, 860, -1910, -337, 298, 426, 917
0.157942, 860, -1910, -337, 298, 426, 917
0.158076, 860, -1910, -337, 298, 426, 917
0.158210, 860, -1910, -337, 298, 426, 917
0.158345, 860, -1910, -337, 298, 426, 917
0.158479, 860, -1910, -337, 298, 426, 917
0.158613, 1304, -1906, -893, -19, 338, 177
0.158747, 1304, -1906, -893, -19, 338, 177
0.158881, 1304, -1906, -893, -19, 338, 177
0.159015, 1304, -1906, -893, -19, 338, 177
0.159151, 1304, -1906, -893, -19, 338, 177
0.159288, 1304, -1906, -893, -19, 338, 177
0.159422, 1304, -1906, -893, -19, 338, 177
0.159556, 1304, -1906, -893, -19, 338, 177
0.159690, 1014, -1893, -918, -457, 450, -529
0.159825, 1014, -1893, -918, -457, 450, -529
0.159959, 1014, -1893, -918, -457, 450, -529
0.160093, 1014, -1893, -918, -457, 450, -529
0.160227, 1014, -1893, -918, -457, 450, -529
0.160361, 1014, -1893, -918, -457, 450, -529
0.160495, 1014, -1893, -918, -457, 450, -529
0.160630, 160, -2050, -666, -943, 600, -829
0.160764, 160, -2050, -666, -943, 600, -829
0.160898, 160, -2050, -666, -943, 600, -829
0.161032, 160, -2050, -666, -943, 600, -829
0.161167, 160, -2050, -666, -943, 600, -829
0.161301, 160, -2050, -666, -943, 600, -829
0.161435, 160, -2050, -666, -943, 600, -829
0.161569, 160, -2050, -666, -943, 600, -829
0.161703, -1236, -2410, 810, -980, 744, -414
0.161837, -1236, -2410, 810, -980, 744, -414
0.161972, -1236, -2410, 810, -980, 744, -414
0.162106, -1236, -2410, 810, -980, 744, -414
0.162240, -1236, -2410, 810, -980, 744, -414
0.162374, -1236, -2410, 810, -980, 744, -414
0.162508, -1236, -2410, 810, -980, 744, -414
0.162642, -1463, -2340, 1581, -186, 646, 678
0.162777, -1463, -2340, 1581, -186, 646, 678
0.162911, -1463, -2340, 1581, -186, 646, 678
0.163045, -1463, -2340, 1581, -186, 646, 678
0.163179, -1463, -2340, 1581, -186, 646, 678
0.163313, -1463, -2340, 1581, -186, 646, 678
0.163447, -1463, -2340, 1581, -186, 646, 678
0.163581, -1463, -2340, 1581, -186, 646, 678
0.163715, 444, -1963, 97, 326, 305, 1247
0.163850, 444, -1963, 97, 326, 305, 1247
0.163984, 444, -1963, 97, 326, 305, 1247
0.164118, 444, -1963, 97, 326, 305, 1247
0.164252, 444, -1963, 97, 326, 305, 1247
0.164386, 444, -1963, 97, 326, 305, 1247
0.164520, 444, -1963, 97, 326, 305, 1247
0.164654, 2168, -1836, -987, 2, 165, 393
0.164789, 2168, -1836, -987, 2, 165, 393
0.164923, 2168, -1836, -987, 2, 165, 393
0.165058, 2168, -1836, -987, 2, 165, 393
0.165192, 2168, -1836, -987, 2, 165, 393
0.165326, 2168, -1836, -987, 2, 165, 393
0.165461, 2168, -1836, -987, 2, 165, 393
0.165595, 2168, -1836, -987, 2, 165, 393
0.165746, 1240, -1994, -277, -295, 321, -939
0.165881, 1240, -1994, -277, -295, 321, -939
0.166016, 1240, -1994, -277, -295, 321, -939
0.166150, 1240, -1994, -277, -295, 321, -939
0.166284, 1240, -1994, -277, -295, 321, -939
0.166418, 1240, -1994, -277, -295, 321, -939
0.166552, 1240, -1994, -277, -295, 321, -939
0.166687, -926, -2070, 411, -103, 559, -1036
0.166821, -926, -2070, 411, -103, 559, -1036
0.166955, -926, -2070, 411, -103, 559, -1036
0.167089, -926, -2070, 411, -103, 559, -1036
0.167223, -926, -2070, 411, -103, 559, -1036
0.167358, -926, -2070, 411, -103, 559, -1036
0.167492, -926, -2070, 411, -103, 559, -1036
0.167626, -926, -2070, 411, -103, 559, -1036
0.167760, -803, -2029, 154, 38, 693, -54
0.167894, -803, -2029, 154, 38, 693, -54
0.168028, -803, -2029, 154, 38, 693, -54
0.168163, -803, -2029, 154, 38, 693, -54
0.168297, -803, -2029, 154, 38, 693, -54
0.168431, -803, -2029, 154, 38, 693, -54
0.168565, -803, -2029, 154, 38, 693, -54
0.168699, 270, -2113, 250, 82, 678, 352
0.168833, 270, -2113, 250, 82, 678, 352
0.168968, 270, -2113, 250, 82, 678, 352
0.169102, 270, -2113, 250, 82, 678, 352
0.169236, 270, -2113, 250, 82, 678, 352
0.169370, 270, -2113, 250, 82, 678, 352
0.169504, 270, -2113, 250, 82, 678, 352
0.169639, 270, -2113, 250, 82, 678, 352
0.169773, 177, -2057, -40, 289, 537, 154
0.169907, 177, -2057, -40, 289, 537, 154
0.170041, 177, -2057, -40, 289, 537, 154
0.170175, 177, -2057, -40, 289, 537, 154
0.170309, 177, -2057, -40, 289, 537, 154
0.170444, 177, -2057, -40, 289, 537, 154
0.170578, 177, -2057, -40, 289, 537, 154
0.170712, 177, -2057, -40, 289, 537, 154
0.170846, 33, -1990, -744, 58, 442, 87
0.170980, 33, -1990, -744, 58, 442, 87
0.171114, 33, -1990, -744, 58, 442, 87
0.171249, 33, -1990, -744, 58, 442, 87
0.171383, 33, -1990, -744, 58, 442, 87
0.171517, 33, -1990, -744, 58, 442, 87
0.171651, 33, -1990, -744, 58, 442, 87
0.171785, -390, -2136, -31, -246, 501, 201
0.171919, -390, -2136, -31, -246, 501, 201
0.172054, -390, -2136, -31, -246, 501, 201
0.172188, -390, -2136, -31, -246, 501, 201
0.172322, -390, -2136, -31, -246, 501, 201
0.172456, -390, -2136, -31, -246, 501, 201
0.172590, -390, -2136, -31, -246, 501, 201
0.172724, -390, -2136, -31, -246, 501, 201
0.172859, -625, -2145, 424, -36, 435, 587
0.172993, -625, -2145, 424, -36, 435, 587
0.173127, -625, -2145, 424, -36, 435, 587
0.173261, -625, -2145, 424, -36, 435, 587
0.173394, -625, -2145, 424, -36, 435, 587
0.173528, -625, -2145, 424, -36, 435, 587
0.173661, -625, -2145, 424, -36, 435, 587
0.173795, 300, -2007, -291, -13, 269, 834
0.173929, 300, -2007, -291, -13, 269, 834
0.174063, 300, -2007, -291, -13, 269, 834
0.174197, 300, -2007, -291, -13, 269, 834
0.174331, 300, -2007, -291, -13, 269, 834
0.174465, 300, -2007, -291, -13, 269, 834
0.174599, 300, -2007, -291, -13, 269, 834
0.174733, 300, -2007, -291, -13, 269, 834
0.174867, 847, -2014, 85, -142, 249, 481
0.175001, 847, -2014, 85, -142, 249, 481
0.175135, 847, -2014, 85, -142, 249, 481
0.175269, 847, -2014, 85, -142, 249, 481
0.175403, 847, -2014, 85, -142, 249, 481
0.175537, 847, -2014, 85, -142, 249, 481
0.175671, 847, -2014, 85, -142, 249, 481
0.175805, 215, -2133, 959, 252, 298, 64
0.175939, 215, -2133, 959, 252, 298, 64
0.176073, 215, -2133, 959, 252, 298, 64
0.176207, 215, -2133, 959, 252, 298, 64
0.176341, 215, -2133, 959, 252, 298, 64
0.176475, 215, -2133, 959, 252, 298, 64
0.176609, 215, -2133, 959, 252, 298, 64
0.176743, 215, -2133, 959, 252, 298, 64
0.176877, -720, -2130, 379, 713, 403, 215
0.177011, -720, -2130, 379, 713, 403, 215
0.177145, -720, -2130, 379, 713, 403, 215
0.177279, -720, -2130, 379, 713, 403, 215
0.177413, -720, -2130, 379, 713, 403, 215
0.177547, -720, -2130, 379, 713, 403, 215
0.177681, -720, -2130, 379, 713, 403, 215
0.177816, -720, -2130, 379, 713, 403, 215
0.177950, -1142, -2053, -554, 615, 562, 898
0.178084, -1142, -2053, -554, 615, 562, 898
0.178218, -1142, -2053, -554, 615, 562, 898
0.178352, -1142, -2053, -554, 615, 562, 898
0.178486, -1142, -2053, -554, 615, 562, 898
0.178620, -1142, -2053, -554, 615, 562, 898
0.178754, -1142, -2053, -554, 615, 562, 898
0.178894, -470, -2038, -603, 313, 515, 1601
0.179030, -470, -2038, -603, 313, 515, 1601
0.179165, -470, -2038, -603, 313, 515, 1601
0.179299, -470, -2038, -603, 313, 515, 1601
0.179433, -470, -2038, -603, 313, 515, 1601
0.179567, -470, -2038, -603, 313, 515, 1601
0.179701, -470, -2038, -603, 313, 515, 1601
0.179835, -470, -2038, -603, 313, 515, 1601
0.179969, 876, -2050, -134, 180, 184, 1596
0.180104, 876, -2050, -134, 180, 184, 1596
0.180238, 876, -2050, -134, 180, 184, 1596
0.180372, 876, -2050, -134, 180, 184, 1596
0.180506, 876, -2050, -134, 180, 184, 1596
0.180640, 876, -2050, -134, 180, 184, 1596
0.180774, 876, -2050, -134, 180, 184, 1596
0.180908, 959, -1992, 280, 250, -56, 885
0.181043, 959, -1992, 280, 250, -56, 885
0.181177, 959, -1992, 280, 250, -56, 885
0.181311, 959, -1992, 280, 250, -56, 885
0.181446, 959, -1992, 280, 250, -56, 885
0.181580, 959, -1992, 280, 250, -56, 885
0.181714, 959, -1992, 280, 250, -56, 885
0.181848, 959, -1992, 280, 250, -56, 885
0.181982, -54, -1927, 132, 319, 97, 530
0.182116, -54, -1927, 132, 319, 97, 530
0.182250, -54, -1927, 132, 319, 97, 530
0.182385, -54, -1927, 132, 319, 97, 530
0.182519, -54, -1927, 132, 319, 97, 530
0.182653, -54, -1927, 132, 319, 97, 530
0.182787, -54, -1927, 132, 319, 97, 530
0.182921, -129, -2001, -158, 207, 485, 806
0.183055, -129, -2001, -158, 207, 485, 806
0.183189, -129, -2001, -158, 207, 485, 806
0.183323, -129, -2001, -158, 207, 485, 806
0.183457, -129, -2001, -158, 207, 485, 806
0.183592, -129, -2001, -158, 207, 485, 806
0.183726, -129, -2001, -158, 207, 485, 806
0.183860, -129, -2001, -158, 207, 485, 806
0.183994, 466, -2058, -557, 3, 735, 905
0.184128, 466, -2058, -557, 3, 735, 905
0.184262, 466, -2058, -557, 3, 735, 905
0.184396, 466, -2058, -557, 3, 735, 905
0.184531, 466, -2058, -557, 3, 735, 905
0.184665, 466, -2058, -557, 3, 735, 905
0.184799, 466, -2058, -557, 3, 735, 905
0.184933, 59, -2169, -349, -304, 776, 708
0.185067, 59, -2169, -349, -304, 776, 708
0.185202, 59, -2169, -349, -304, 776, 708
0.185336, 59, -2169, -349, -304, 776, 708
0.185470, 59, -2169, -349, -304, 776, 708
0.185604, 59, -2169, -349, -304, 776, 708
0.185738, 59, -2169, -349, -304, 776, 708
0.185872, 59, -2169, -349, -304, 776, 708
0.186006, -832, -2242, 1015, -76, 713, 971
0.186141, -832, -2242, 1015, -76, 713, 971
0.186275, -832, -2242, 1015, -76, 713, 971
0.186409, -832, -2242, 1015, -76, 713, 971
0.186543, -832, -2242, 1015, -76, 713, 971
0.186677, -832, -2242, 1015, -76, 713, 971
0.186811, -832, -2242, 1015, -76, 713, 971
0.186945, -5, -1996, 591, 532, 493, 1475
0.187080, -5, -1996, 591, 532, 493, 1475
0.187214, -5, -1996, 591, 532, 493, 1475
0.187348, -5, -1996, 591, 532, 493, 1475
0.187482, -5, -1996, 591, 532, 493, 1475
0.187616, -5, -1996, 591, 532, 493, 1475
0.187751, -5, -1996, 591, 532, 493, 1475
0.187885, -5, -1996, 591, 532, 493, 1475
0.188019, 971, -1943, -683, 307, 428, 1185
0.188153, 971, -1943, -683, 307, 428, 1185
0.188287, 971, -1943, -683, 307, 428, 1185
0.188421, 971, -1943, -683, 307, 428, 1185
0.188556, 971, -1943, -683, 307, 428, 1185
0.188690, 971, -1943, -683, 307, 428, 1185
0.188824, 971, -1943, -683, 307, 428, 1185
0.188958, 971, -1943, -683, 307, 428, 1185
0.189092, 105, -2138, -60, -13, 671, 676
0.189226, 105, -2138, -60, -13, 671, 676
0.189360, 105, -2138, -60, -13, 671, 676
0.189493, 105, -2138, -60, -13, 671, 676
0.189627, 105, -2138, -60, -13, 671, 676
0.189760, 105, -2138, -60, -13, 671, 676
0.189894, 105, -2138, -60, -13, 671, 676
0.190027, -578, -2137, 358, 227, 787, 910
0.190161, -578, -2137, 358, 227, 787, 910
0.190295, -578, -2137, 358, 227, 787, 910
0.190428, -578, -2137, 358, 227, 787, 910
0.190562, -578, -2137, 358, 227, 787, 910
0.190695, -578, -2137, 358, 227, 787, 910
0.190828, -578, -2137, 358, 227, 787, 910
0.190962, -578, -2137, 358, 227, 787, 910
0.191095, 353, -2028, -64, 309, 732, 1273
0.191229, 353, -2028, -64, 309, 732, 1273
0.191362, 353, -2028, -64, 309, 732, 1273
0.191496, 353, -2028, -64, 309, 732, 1273
0.191629, 353, -2028, -64, 309, 732, 1273
0.191763, 353, -2028, -64, 309, 732, 1273
0.191900, 353, -2028, -64, 309, 732, 1273
0.192034, 1850, -1978, -146, 206, 658, 760
0.192168, 1850, -1978, -146, 206, 658, 760
0.192301, 1850, -1978, -146, 206, 658, 760
0.192435, 1850, -1978, -146, 206, 658, 760
0.192568, 1850, -1978, -146, 206, 658, 760
0.192702, 1850, -1978, -146, 206, 658, 760
0.192835, 1850, -1978, -146, 206, 658, 760
0.192969, 1850, -1978, -146, 206, 658, 760
0.193102, 1061, -2089, 232, 259, 692, -355
0.193236, 1061, -2089, 232, 259, 692, -355
0.193370, 1061, -2089, 232, 259, 692, -355
0.193504, 1061, -2089, 232, 259, 692, -355
0.193638, 1061, -2089, 232, 259, 692, -355
0.193772, 1061, -2089, 232, 259, 692, -355
0.193906, 1061, -2089, 232, 259, 692, -355
0.194040, -1481, -2173, 575, 540, 986, -309
0.194174, -1481, -2173, 575, 540, 986, -309
0.194308, -1481, -2173, 575, 540, 986, -309
0.194442, -1481, -2173, 575, 540, 986, -309
0.194576, -1481, -2173, 575, 540, 986, -309
0.194710, -1481, -2173, 575, 540, 986, -309
0.194844, -1481, -2173, 575, 540, 986, -309
0.194978, -1481, -2173, 575, 540, 986, -309
0.195112, -682, -1974, 30, 672, 1273, 928
0.195246, -682, -1974, 30, 672, 1273, 928
0.195380, -682, -1974, 30, 672, 1273, 928
0.195514, -682, -1974, 30, 672, 1273, 928
0.195648, -682, -1974, 30, 672, 1273, 928
0.195782, -682, -1974, 30, 672, 1273, 928
0.195916, -682, -1974, 30, 672, 1273, 928
0.196050, -682, -1974, 30, 672, 1273, 928
0.196184, 2624, -1780, -818, 355, 1291, 776
0.196318, 2624, -1780, -818, 355, 1291, 776
0.196452, 2624, -1780, -818, 355, 1291, 776
0.196586, 2624, -1780, -818, 355, 1291, 776
0.196720, 2624, -1780, -818, 355, 1291, 776
0.196854, 2624, -1780, -818, 355, 1291, 776
0.196988, 2624, -1780, -818, 355, 1291, 776
0.197122, 2546, -1976, -832, -131, 1299, -1124
0.197256, 2546, -1976, -832, -131, 1299, -1124
0.197391, 2546, -1976, -832, -131, 1299, -1124
0.197525, 2546, -1976, -832, -131, 1299, -1124
0.197659, 2546, -1976, -832, -131, 1299, -1124
0.197793, 2546, -1976, -832, -131, 1299, -1124
0.197927, 2546, -1976, -832, -131, 1299, -1124
0.198062, 2546, -1976, -832, -131, 1299, -1124
0.198196, -888, -2227, 26, -324, 1594, -1888
0.198330, -888, -2227, 26, -324, 1594, -1888
0.198464, -888, -2227, 26, -324, 1594, -1888
0.198598, -888, -2227, 26, -324, 1594, -1888
0.198733, -888, -2227, 26, -324, 1594, -1888
0.198867, -888, -2227, 26, -324, 1594, -1888
0.199001, -888, -2227, 26, -324, 1594, -1888
0.199135, -1613, -2076, 494, -140, 1857, -558
0.199269, -1613, -2076, 494, -140, 1857, -558
0.199404, -1613, -2076, 494, -140, 1857, -558
0.199538, -1613, -2076, 494, -140, 1857, -558
0.199672, -1613, -2076, 494, -140, 1857, -558
0.199806, -1613, -2076, 494, -140, 1857, -558
0.199940, -1613, -2076, 494, -140, 1857, -558
0.200075, -1613, -2076, 494, -140, 1857, -558
0.200209, 1188, -1810, -222, -132, 1747, 161
0.200343, 1188, -1810, -222, -132, 1747, 161
0.200477, 1188, -1810, -222, -132, 1747, 161
0.200611, 1188, -1810, -222, -132, 1747, 161
0.200745, 1188, -1810, -222, -132, 1747, 161
0.200880, 1188, -1810, -222, -132, 1747, 161
0.201014, 1188, -1810, -222, -132, 1747, 161
0.201149, 1334, -1982, -461, -477, 1588, -850
0.201283, 1334, -1982, -461, -477, 1588, -850
0.201417, 1334, -1982, -461, -477, 1588, -850
0.201551, 1334, -1982, -461, -477, 1588, -850
0.201685, 1334, -1982, -461, -477, 1588, -850
0.201819, 1334, -1982, -461, -477, 1588, -850
0.201953, 1334, -1982, -461, -477, 1588, -850
0.202088, 1334, -1982, -461, -477, 1588, -850
0.202222, -1411, -2413, 713, -401, 1646, -1123
0.202356, -1411, -2413, 713, -401, 1646, -1123
0.202490, -1411, -2413, 713, -401, 1646, -1123
0.202624, -1411, -2413, 713, -401, 1646, -1123
0.202758, -1411, -2413, 713, -401, 1646, -1123
0.202893, -1411, -2413, 713, -401, 1646, -1123
0.203027, -1411, -2413, 713, -401, 1646, -1123
0.203161, -1733, -2374, 1249, 343, 1581, 181
0.203295, -1733, -2374, 1249, 343, 1581, 181
0.203429, -1733, -2374, 1249, 343, 1581, 181
0.203564, -1733, -2374, 1249, 343, 1581, 181
0.203698, -1733, -2374, 1249, 343, 1581, 181
0.203832, -1733, -2374, 1249, 343, 1581, 181
0.203966, -1733, -2374, 1249, 343, 1581, 181
0.204100, -1733, -2374, 1249, 343, 1581, 181
0.204238, 358, -2000, 187, 864, 1208, 925
0.204375, 358, -2000, 187, 864, 1208, 925
0.204509, 358, -2000, 187, 864, 1208, 925
0.204644, 358, -2000, 187, 864, 1208, 925
0.204778, 358, -2000, 187, 864, 1208, 925
0.204912, 358, -2000, 187, 864, 1208, 925
0.205046, 358, -2000, 187, 864, 1208, 925
0.205181, 358, -2000, 187, 864, 1208, 925
0.205315, 1639, -1838, -623, 787, 907, 201
0.205449, 1639, -1838, -623, 787, 907, 201
0.205583, 1639, -1838, -623, 787, 907, 201
0.205718, 1639, -1838, -623, 787, 907, 201
0.205852, 1639, -1838, -623, 787, 907, 201
0.205986, 1639, -1838, -623, 787, 907, 201
0.206120, 1639, -1838, -623, 787, 907, 201
0.206254, 1298, -1898, -770, 480, 906, -906
0.206388, 1298, -1898, -770, 480, 906, -906
0.206523, 1298, -1898, -770, 480, 906, -906
0.206657, 1298, -1898, -770, 480, 906, -906
0.206791, 1298, -1898, -770, 480, 906, -906
0.206925, 1298, -1898, -770, 480, 906, -906
0.207059, 1298, -1898, -770, 480, 906, -906
0.207193, 1298, -1898, -770, 480, 906, -906
0.207327, 7, -2068, -592, 51, 1120, -1354
0.207462, 7, -2068, -592, 51, 1120, -1354
0.207596, 7, -2068, -592, 51, 1120, -1354
0.207730, 7, -2068, -592, 51, 1120, -1354
0.207864, 7, -2068, -592, 51, 1120, -1354
0.207998, 7, -2068, -592, 51, 1120, -1354
0.208132, 7, -2068, -592, 51, 1120, -1354
0.208267, -644, -2120, 27, -174, 1351, -928
0.208401, -644, -2120, 27, -174, 1351, -928
0.208535, -644, -2120, 27, -174, 1351, -928
0.208669, -644, -2120, 27, -174, 1351, -928
0.208804, -644, -2120, 27, -174, 1351, -928
0.208938, -644, -2120, 27, -174, 1351, -928
0.209072, -644, -2120, 27, -174, 1351, -928
0.209206, -644, -2120, 27, -174, 1351, -928
0.209340, 231, -2018, 50, -176, 1396, -468
0.209475, 231, -2018, 50, -176, 1396, -468
0.209609, 231, -2018, 50, -176, 1396, -468
0.209743, 231, -2018, 50, -176, 1396, -468
0.209877, 231, -2018, 50, -176, 1396, -468
0.210011, 231, -2018, 50, -176, 1396, -468
0.210145, 231, -2018, 50, -176, 1396, -468
0.210279, 674, -2082, 274, -240, 1384, -716
0.210414, 674, -2082, 274, -240, 1384, -716
0.210548, 674, -2082, 274, -240, 1384, -716
0.210682, 674, -2082, 274, -240, 1384, -716
0.210816, 674, -2082, 274, -240, 1384, -716
0.210950, 674, -2082, 274, -240, 1384, -716
0.211084, 674, -2082, 274, -240, 1384, -716
0.211218, 674, -2082, 274, -240, 1384, -716
0.211353, 136, -2094, 594, 35, 1410, -1028
0.211487, 136, -2094, 594, 35, 1410, -1028
0.211621, 136, -2094, 594, 35, 1410, -1028
0.211755, 136, -2094, 594, 35, 1410, -1028
0.211889, 136, -2094, 594, 35, 1410, -1028
0.212023, 136, -2094, 594, 35, 1410, -1028
0.212158, 136, -2094, 594, 35, 1410, -1028
0.212292, 628, -1952, -740, 92, 1416, -1109
0.212426, 628, -1952, -740, 92, 1416, -1109
0.212560, 628, -1952, -740, 92, 1416, -1109
0.212694, 628, -1952, -740, 92, 1416, -1109
0.212828, 628, -1952, -740, 92, 1416, -1109
0.212962, 628, -1952, -740, 92, 1416, -1109
0.213096, 628, -1952, -740, 92, 1416, -1109
0.213231, 628, -1952, -740, 92, 1416, -1109
0.213365, 795, -1987, -1318, -589, 1544, -1515
0.213499, 795, -1987, -1318, -589, 1544, -1515
0.213633, 795, -1987, -1318, -589, 1544, -1515
0.213768, 795, -1987, -1318, -589, 1544, -1515
0.213902, 795, -1987, -1318, -589, 1544, -1515
0.214036, 795, -1987, -1318, -589, 1544, -1515
0.214170, 795, -1987, -1318, -589, 1544, -1515
0.214304, 795, -1987, -1318, -589, 1544, -1515
0.214438, -272, -2015, -272, -1000, 1658, -1677
0.214573, -272, -2015, -272, -1000, 1658, -1677
0.214707, -272, -2015, -272, -1000, 1658, -1677
0.214841, -272, -2015, -272, -1000, 1658, -1677
0.214975, -272, -2015, -272, -1000, 1658, -1677
0.215109, -272, -2015, -272, -1000, 1658, -1677
0.215243, -272, -2015, -272, -1000, 1658, -1677
0.215377, -312, -2119, 672, -905, 1620, -1283
0.215511, -312, -2119, 672, -905, 1620, -1283
0.215645, -312, -2119, 672, -905, 1620, -1283
0.215779, -312, -2119, 672, -905, 1620, -1283
0.215914, -312, -2119, 672, -905, 1620, -1283
0.216048, -312, -2119, 672, -905, 1620, -1283
0.216182, -312, -2119, 672, -905, 1620, -1283
0.216316, -312, -2119, 672, -905, 1620, -1283
0.216450, -158, -2305, 1474, -402, 1613, -1073
0.216584, -158, -2305, 1474, -402, 1613, -1073
0.216726, -158, -2305, 1474, -402, 1613, -1073
0.216861, -158, -2305, 1474, -402, 1613, -1073
0.216995, -158, -2305, 1474, -402, 1613, -1073
0.217130, -158, -2305, 1474, -402, 1613, -1073
0.217264, -158, -2305, 1474, -402, 1613, -1073
0.217398, -784, -2137, 1082, 412, 1603, -877
0.217533, -784, -2137, 1082, 412, 1603, -877
0.217667, -784, -2137, 1082, 412, 1603, -877
0.217801, -784, -2137, 1082, 412, 1603, -877
0.217935, -784, -2137, 1082, 412, 1603, -877
0.218069, -784, -2137, 1082, 412, 1603, -877
0.218204, -784, -2137, 1082, 412, 1603, -877
0.218338, -784, -2137, 1082, 412, 1603, -877
0.218472, -639, -1948, 214, 793, 1595, -418
0.218606, -639, -1948, 214, 793, 1595, -418
0.218740, -639, -1948, 214, 793, 1595, -418
0.218875, -639, -1948, 214, 793, 1595, -418
0.219009, -639, -1948, 214, 793, 1595, -418
0.219143, -639, -1948, 214, 793, 1595, -418
0.219277, -639, -1948, 214, 793, 1595, -418
0.219411, -17, -1997, 23, 862, 1568, -217
0.219545, -17, -1997, 23, 862, 1568, -217
0.219680, -17, -1997, 23, 862, 1568, -217
0.219814, -17, -1997, 23, 862, 1568, -217
0.219948, -17, -1997, 23, 862, 1568, -217
0.220082, -17, -1997, 23, 862, 1568, -217
0.220216, -17, -1997, 23, 862, 1568, -217
0.220350, -17, -1997, 23, 862, 1568, -217
0.220484, -154, -2051, -424, 816, 1432, -300
0.220619, -154, -2051, -424, 816, 1432, -300
0.220753, -154, -2051, -424, 816, 1432, -300
0.220887, -154, -2051, -424, 816, 1432, -300
0.221021, -154, -2051, -424, 816, 1432, -300
0.221156, -154, -2051, -424, 816, 1432, -300
0.221290, -154, -2051, -424, 816, 1432, -300
0.221424, -157, -2102, -530, 514, 1321, -235
0.221558, -157, -2102, -530, 514, 1321, -235
0.221692, -157, -2102, -530, 514, 1321, -235
0.221827, -157, -2102, -530, 514, 1321, -235
0.221961, -157, -2102, -530, 514, 1321, -235
0.222095, -157, -2102, -530, 514, 1321, -235
0.222229, -157, -2102, -530, 514, 1321, -235
0.222363, -157, -2102, -530, 514, 1321, -235
0.222497, 572, -2033, -127, 351, 1254, -305
0.222632, 572, -2033, -127, 351, 1254, -305
0.222766, 572, -2033, -127, 351, 1254, -305
0.222900, 572, -2033, -127, 351, 1254, -305
0.223034, 572, -2033, -127, 351, 1254, -305
0.223168, 572, -2033, -127, 351, 1254, -305
0.223303, 572, -2033, -127, 351, 1254, -305
0.223437, 748, -1923, -156, 264, 1297, -791
0.223571, 748, -1923, -156, 264, 1297, -791
0.223705, 748, -1923, -156, 264, 1297, -791
0.223839, 748, -1923, -156, 264, 1297, -791
0.223973, 748, -1923, -156, 264, 1297, -791
0.224108, 748, -1923, -156, 264, 1297, -791
0.224242, 748, -1923, -156, 264, 1297, -791
0.224376, 748, -1923, -156, 264, 1297, -791
0.224510, 67, -1986, -325, -63, 1623, -1118
0.224645, 67, -1986, -325, -63, 1623, -1118
0.224779, 67, -1986, -325, -63, 1623, -1118
0.224913, 67, -1986, -325, -63, 1623, -1118
0.225047, 67, -1986, -325, -63, 1623, -1118
0.225182, 67, -1986, -325, -63, 1623, -1118
0.225316, 67, -1986, -325, -63, 1623, -1118
0.225450, 67, -1986, -325, -63, 1623, -1118
0.225584, -120, -2058, -204, -369, 2012, -997
0.225719, -120, -2058, -204, -369, 2012, -997
0.225853, -120, -2058, -204, -369, 2012, -997
0.225987, -120, -2058, -204, -369, 2012, -997
0.226121, -120, -2058, -204, -369, 2012, -997
0.226255, -120, -2058, -204, -369, 2012, -997
0.226390, -120, -2058, -204, -369, 2012, -997
0.226524, 34, -2084, -47, -446, 2167, -889
0.226658, 34, -2084, -47, -446, 2167, -889
0.226792, 34, -2084, -47, -446, 2167, -889
0.226926, 34, -2084, -47, -446, 2167, -889
0.227061, 34, -2084, -47, -446, 2167, -889
0.227195, 34, -2084, -47, -446, 2167, -889
0.227329, 34, -2084, -47, -446, 2167, -889
0.227463, 34, -2084, -47, -446, 2167, -889
0.227597, -316, -2092, 230, -362, 2141, -824
0.227732, -316, -2092, 230, -362, 2141, -824
0.227866, -316, -2092, 230, -362, 2141, -824
0.228000, -316, -2092, 230, -362, 2141, -824
0.228134, -316, -2092, 230, -362, 2141, -824
0.228268, -316, -2092, 230, -362, 2141, -824
0.228402, -316, -2092, 230, -362, 2141, -824
0.228537, -82, -2075, 594, -125, 2050, -630
0.228671, -82, -2075, 594, -125, 2050, -630
0.228805, -82, -2075, 594, -125, 2050, -630
0.228939, -82, -2075, 594, -125, 2050, -630
0.229078, -82, -2075, 594, -125, 2050, -630
0.229212, -82, -2075, 594, -125, 2050, -630
0.229347, -82, -2075, 594, -125, 2050, -630
0.229481, -82, -2075, 594, -125, 2050, -630
0.229615, 78, -2156, 519, 151, 2003, -684
0.229749, 78, -2156, 519, 151, 2003, -684
0.229883, 78, -2156, 519, 151, 2003, -684
0.230016, 78, -2156, 519, 151, 2003, -684
0.230150, 78, -2156, 519, 151, 2003, -684
0.230283, 78, -2156, 519, 151, 2003, -684
0.230416, 78, -2156, 519, 151, 2003, -684
0.230550, -771, -2192, 140, 340, 2089, -612
0.230683, -771, -2192, 140, 340, 2089, -612
0.230817, -771, -2192, 140, 340, 2089, -612
0.230950, -771, -2192, 140, 340, 2089, -612
0.231084, -771, -2192, 140, 340, 2089, -612
0.231217, -771, -2192, 140, 340, 2089, -612
0.231350, -771, -2192, 140, 340, 2089, -612
0.231484, -771, -2192, 140, 340, 2089, -612
0.231617, -312, -2013, -254, 364, 2114, -117
0.231751, -312, -2013, -254, 364, 2114, -117
0.231884, -312, -2013, -254, 364, 2114, -117
0.232018, -312, -2013, -254, 364, 2114, -117
0.232151, -312, -2013, -254, 364, 2114, -117
0.232284, -312, -2013, -254, 364, 2114, -117
0.232418, -312, -2013, -254, 364, 2114, -117
0.232551, -312, -2013, -254, 364, 2114, -117
0.232685, 1509, -1858, -499, 188, 1964, -315
0.232818, 1509, -1858, -499, 188, 1964, -315
0.232952, 1509, -1858, -499, 188, 1964, -315
0.233085, 1509, -1858, -499, 188, 1964, -315
0.233219, 1509, -1858, -499, 188, 1964, -315
0.233353, 1509, -1858, -499, 188, 1964, -315
0.233486, 1509, -1858, -499, 188, 1964, -315
0.233619, 1812, -1868, -655, -148, 1903, -1502
0.233753, 1812, -1868, -655, -148, 1903, -1502
0.233886, 1812, -1868, -655, -148, 1903, -1502
0.234020, 1812, -1868, -655, -148, 1903, -1502
0.234153, 1812, -1868, -655, -148, 1903, -1502
0.234287, 1812, -1868, -655, -148, 1903, -1502
0.234420, 1812, -1868, -655, -148, 1903, -1502
0.234554, 1812, -1868, -655, -148, 1903, -1502
0.234687, 95, -2045, -286, -573, 2168, -2283
0.234822, 95, -2045, -286, -573, 2168, -2283
0.234955, 95, -2045, -286, -573, 2168, -2283
0.235089, 95, -2045, -286, -573, 2168, -2283
0.235222, 95, -2045, -286, -573, 2168, -2283
0.235356, 95, -2045, -286, -573, 2168, -2283
0.235489, 95, -2045, -286, -573, 2168, -2283
0.235622, -1349, -2296, 1283, -422, 2552, -1772
0.235756, -1349, -2296, 1283, -422, 2552, -1772
0.235890, -1349, -2296, 1283, -422, 2552, -1772
0.236023, -1349, -2296, 1283, -422, 2552, -1772
0.236156, -1349, -2296, 1283, -422, 2552, -1772
0.236290, -1349, -2296, 1283, -422, 2552, -1772
0.236423, -1349, -2296, 1283, -422, 2552, -1772
0.236557, -1349, -2296, 1283, -422, 2552, -1772
0.236690, -1402, -2272, 1959, 612, 2653, -713
0.236824, -1402, -2272, 1959, 612, 2653, -713
0.236957, -1402, -2272, 1959, 612, 2653, -713
0.237091, -1402, -2272, 1959, 612, 2653, -713
0.237226, -1402, -2272, 1959, 612, 2653, -713
0.237360, -1402, -2272, 1959, 612, 2653, -713
0.237495, -1402, -2272, 1959, 612, 2653, -713
0.237630, -1077, -2075, 491, 1384, 2519, 57
0.237764, -1077, -2075, 491, 1384, 2519, 57
0.237898, -1077, -2075, 491, 1384, 2519, 57
0.238032, -1077, -2075, 491, 1384, 2519, 57
0.238167, -1077, -2075, 491, 1384, 2519, 57
0.238301, -1077, -2075, 491, 1384, 2519, 57
0.238435, -1077, -2075, 491, 1384, 2519, 57
0.238569, -1077, -2075, 491, 1384, 2519, 57
0.238703, -568, -2020, -763, 1302, 2371, 499
0.238837, -568, -2020, -763, 1302, 2371, 499
0.238971, -568, -2020, -763, 1302, 2371, 499
0.239106, -568, -2020, -763, 1302, 2371, 499
0.239240, -568, -2020, -763, 1302, 2371, 499
0.239374, -568, -2020, -763, 1302, 2371, 499
0.239508, -568, -2020, -763, 1302, 2371, 499
0.239642, -568, -2020, -763, 1302, 2371, 499
0.239776, 365, -1962, -1056, 941, 2098, 525
0.239911, 365, -1962, -1056, 941, 2098, 525
0.240045, 365, -1962, -1056, 941, 2098, 525
0.240179, 365, -1962, -1056, 941, 2098, 525
0.240313, 365, -1962, -1056, 941, 2098, 525
0.240447, 365, -1962, -1056, 941, 2098, 525
0.240581, 365, -1962, -1056, 941, 2098, 525
0.240715, 645, -1954, -991, 450, 1752, 59
0.240850, 645, -1954, -991, 450, 1752, 59
0.240984, 645, -1954, -991, 450, 1752, 59
0.241119, 645, -1954, -991, 450, 1752, 59
0.241258, 645, -1954, -991, 450, 1752, 59
0.241393, 645, -1954, -991, 450, 1752, 59
0.241527, 645, -1954, -991, 450, 1752, 59
0.241661, 645, -1954, -991, 450, 1752, 59
0.241795, 49, -2062, -323, -9, 1658, -298
0.241930, 49, -2062, -323, -9, 1658, -298
0.242064, 49, -2062, -323, -9, 1658, -298
0.242198, 49, -2062, -323, -9, 1658, -298
0.242332, 49, -2062, -323, -9, 1658, -298
0.242466, 49, -2062, -323, -9, 1658, -298
0.242600, 49, -2062, -323, -9, 1658, -298
0.242735, -128, -2072, 386, -64, 1828, -216
0.242869, -128, -2072, 386, -64, 1828, -216
0.243003, -128, -2072, 386, -64, 1828, -216
0.243137, -128, -2072, 386, -64, 1828, -216
0.243271, -128, -2072, 386, -64, 1828, -216
0.243405, -128, -2072, 386, -64, 1828, -216
0.243539, -128, -2072, 386, -64, 1828, -216
0.243674, -128, -2072, 386, -64, 1828, -216
0.243808, -311, -2117, 607, 135, 2066, -83
0.243942, -311, -2117, 607, 135, 2066, -83
0.244076, -311, -2117, 607, 135, 2066, -83
0.244210, -311, -2117, 607, 135, 2066, -83
0.244344, -311, -2117, 607, 135, 2066, -83
0.244478, -311, -2117, 607, 135, 2066, -83
0.244612, -311, -2117, 607, 135, 2066, -83
0.244747, -887, -2183, 469, 360, 2246, 194
0.244881, -887, -2183, 469, 360, 2246, 194
0.245015, -887, -2183, 469, 360, 2246, 194
0.245150, -887, -2183, 469, 360, 2246, 194
0.245284, -887, -2183, 469, 360, 2246, 194
0.245418, -887, -2183, 469, 360, 2246, 194
0.245552, -887, -2183, 469, 360, 2246, 194
0.245686, -887, -2183, 469, 360, 2246, 194
0.245820, -703, -2037, 1, 483, 2231, 680
0.245954, -703, -2037, 1, 483, 2231, 680
0.246088, -703, -2037, 1, 483, 2231, 680
0.246223, -703, -2037, 1, 483, 2231, 680
0.246357, -703, -2037, 1, 483, 2231, 680
0.246491, -703, -2037, 1, 483, 2231, 680
0.246625, -703, -2037, 1, 483, 2231, 680
0.246759, -16, -1946, -253, 392, 2028, 873
0.246893, -16, -1946, -253, 392, 2028, 873
0.247027, -16, -1946, -253, 392, 2028, 873
0.247161, -16, -1946, -253, 392, 2028, 873
0.247296, -16, -1946, -253, 392, 2028, 873
0.247430, -16, -1946, -253, 392, 2028, 873
0.247564, -16, -1946, -253, 392, 2028, 873
0.247698, -16, -1946, -253, 392, 2028, 873
0.247832, 470, -2066, 84, 367, 1823, 644
0.247966, 470, -2066, 84, 367, 1823, 644
0.248100, 470, -2066, 84, 367, 1823, 644
0.248234, 470, -2066, 84, 367, 1823, 644
0.248369, 470, -2066, 84, 367, 1823, 644
0.248503, 470, -2066, 84, 367, 1823, 644
0.248637, 470, -2066, 84, 367, 1823, 644
0.248771, 265, -2152, 217, 556, 1787, 275
0.248905, 265, -2152, 217, 556, 1787, 275
0.249039, 265, -2152, 217, 556, 1787, 275
0.249174, 265, -2152, 217, 556, 1787, 275
0.249308, 265, -2152, 217, 556, 1787, 275
0.249442, 265, -2152, 217, 556, 1787, 275
0.249576, 265, -2152, 217, 556, 1787, 275
0.249710, 265, -2152, 217, 556, 1787, 275
0.249844, -426, -2053, -99, 641, 1966, 266
0.249979, -426, -2053, -99, 641, 1966, 266
0.250113, -426, -2053, -99, 641, 1966, 266
0.250247, -426, -2053, -99, 641, 1966, 266
0.250381, -426, -2053, -99, 641, 1966, 266
0.250515, -426, -2053, -99, 641, 1966, 266
0.250649, -426, -2053, -99, 641, 1966, 266
0.250784, -426, -2053, -99, 641, 1966, 266
0.250918, -243, -1950, -249, 487, 2200, 625
0.251052, -243, -1950, -249, 487, 2200, 625
0.251186, -243, -1950, -249, 487, 2200, 625
0.251320, -243, -1950, -249, 487, 2200, 625
0.251454, -243, -1950, -249, 487, 2200, 625
0.251588, -243, -1950, -249, 487, 2200, 625
0.251723, -243, -1950, -249, 487, 2200, 625
0.251857, 36, -2115, 399, 414, 2321, 724
0.251991, 36, -2115, 399, 414, 2321, 724
0.252125, 36, -2115, 399, 414, 2321, 724
0.252259, 36, -2115, 399, 414, 2321, 724
0.252393, 36, -2115, 399, 414, 2321, 724
0.252527, 36, -2115, 399, 414, 2321, 724
0.252662, 36, -2115, 399, 414, 2321, 724
0.252796, 36, -2115, 399, 414, 2321, 724
0.252930, -617, -2269, 1323, 922, 2300, 777
0.253064, -617, -2269, 1323, 922, 2300, 777
0.253199, -617, -2269, 1323, 922, 2300, 777
0.253333, -617, -2269, 1323, 922, 2300, 777
0.253467, -617, -2269, 1323, 922, 2300, 777
0.253601, -617, -2269, 1323, 922, 2300, 777
0.253735, -617, -2269, 1323, 922, 2300, 777
0.253869, -360, -2086, 791, 1628, 2160, 1117
0.254004, -360, -2086, 791, 1628, 2160, 1117
0.254142, -360, -2086, 791, 1628, 2160, 1117
0.254277, -360, -2086, 791, 1628, 2160, 1117
0.254411, -360, -2086, 791, 1628, 2160, 1117
0.254545, -360, -2086, 791, 1628, 2160, 1117
0.254679, -360, -2086, 791, 1628, 2160, 1117
0.254813, -360, -2086, 791, 1628, 2160, 1117
0.254947, 847, -1926, -453, 1680, 2082, 1000
0.255081, 847, -1926, -453, 1680, 2082, 1000
0.255216, 847, -1926, -453, 1680, 2082, 1000
0.255350, 847, -1926, -453, 1680, 2082, 1000
0.255499, 847, -1926, -453, 1680, 2082, 1000
0.255645, 847, -1926, -453, 1680, 2082, 1000
0.255786, 847, -1926, -453, 1680, 2082, 1000
0.255927, 456, -2045, -580, 1366, 2175, 406
0.256068, 456, -2045, -580, 1366, 2175, 406
0.256206, 456, -2045, -580, 1366, 2175, 406
0.256343, 456, -2045, -580, 1366, 2175, 406
0.256478, 456, -2045, -580, 1366, 2175, 406
0.256613, 456, -2045, -580, 1366, 2175, 406
0.256748, 456, -2045, -580, 1366, 2175, 406
0.256887, -698, -2123, -174, 1273, 2306, 448
0.257027, -698, -2123, -174, 1273, 2306, 448
0.257164, -698, -2123, -174, 1273, 2306, 448
0.257302, -698, -2123, -174, 1273, 2306, 448
0.257439, -698, -2123, -174, 1273, 2306, 448
0.257574, -698, -2123, -174, 1273, 2306, 448
0.257714, -698, -2123, -174, 1273, 2306, 448
0.257855, -698, -2123, -174, 1273, 2306, 448
0.258002, -196, -2007, -221, 1196, 2336, 973
0.258145, -196, -2007, -221, 1196, 2336, 973
0.258288, -196, -2007, -221, 1196, 2336, 973
0.258425, -196, -2007, -221, 1196, 2336, 973
0.258560, -196, -2007, -221, 1196, 2336, 973
0.258695, -196, -2007, -221, 1196, 2336, 973
0.258830, -196, -2007, -221, 1196, 2336, 973
0.258964, 686, -1987, -402, 908, 2293, 918
0.259099, 686, -1987, -402, 908, 2293, 918
0.259238, 686, -1987, -402, 908, 2293, 918
0.259378, 686, -1987, -402, 908, 2293, 918
0.259514, 686, -1987, -402, 908, 2293, 918
0.259648, 686, -1987, -402, 908, 2293, 918
0.259786, 686, -1987, -402, 908, 2293, 918
0.259923, 820, -2051, -388, 603, 2295, 396
0.260058, 820, -2051, -388, 603, 2295, 396
0.260192, 820, -2051, -388, 603, 2295, 396
0.260332, 820, -2051, -388, 603, 2295, 396
0.260470, 820, -2051, -388, 603, 2295, 396
0.260604, 820, -2051, -388, 603, 2295, 396
0.260739, 820, -2051, -388, 603, 2295, 396
0.260880, 820, -2051, -388, 603, 2295, 396
0.261018, 843, -1978, -292, 386, 2372, -111
0.261152, 843, -1978, -292, 386, 2372, -111
0.261289, 843, -1978, -292, 386, 2372, -111
0.261427, 843, -1978, -292, 386, 2372, -111
0.261564, 843, -1978, -292, 386, 2372, -111
0.261698, 843, -1978, -292, 386, 2372, -111
0.261839, 843, -1978, -292, 386, 2372, -111
0.261979, 233, -2015, 62, 243, 2511, -452
0.262118, 233, -2015, 62, 243, 2511, -452
0.262253, 233, -2015, 62, 243, 2511, -452
0.262392, 233, -2015, 62, 243, 2511, -452
0.262531, 233, -2015, 62, 243, 2511, -452
0.262667, 233, -2015, 62, 243, 2511, -452
0.262801, 233, -2015, 62, 243, 2511, -452
0.262939, 233, -2015, 62, 243, 2511, -452
0.263075, -761, -2161, 738, 412, 2666, -247
0.263212, -761, -2161, 738, 412, 2666, -247
0.263348, -761, -2161, 738, 412, 2666, -247
0.263484, -761, -2161, 738, 412, 2666, -247
0.263619, -761, -2161, 738, 412, 2666, -247
0.263754, -761, -2161, 738, 412, 2666, -247
0.263888, -761, -2161, 738, 412, 2666, -247
0.264023, -933, -2150, 896, 953, 2672, 435
0.264159, -933, -2150, 896, 953, 2672, 435
0.264295, -933, -2150, 896, 953, 2672, 435
0.264430, -933, -2150, 896, 953, 2672, 435
0.264564, -933, -2150, 896, 953, 2672, 435
0.264699, -933, -2150, 896, 953, 2672, 435
0.264836, -933, -2150, 896, 953, 2672, 435
0.264972, -933, -2150, 896, 953, 2672, 435
0.265107, -570, -2096, 117, 1305, 2486, 961
0.265261, -570, -2096, 117, 1305, 2486, 961
0.265395, -570, -2096, 117, 1305, 2486, 961
0.265529, -570, -2096, 117, 1305, 2486, 961
0.265664, -570, -2096, 117, 1305, 2486, 961
0.265801, -570, -2096, 117, 1305, 2486, 961
0.265947, -570, -2096, 117, 1305, 2486, 961
0.266085, -122, -2038, -537, 1219, 2258, 1164
0.266220, -122, -2038, -537, 1219, 2258, 1164
0.266354, -122, -2038, -537, 1219, 2258, 1164
0.266488, -122, -2038, -537, 1219, 2258, 1164
0.266622, -122, -2038, -537, 1219, 2258, 1164
0.266756, -122, -2038, -537, 1219, 2258, 1164
0.266923, -122, -2038, -537, 1219, 2258, 1164
0.267063, 618, -1978, -477, 1013, 2025, 1034
0.267197, 618, -1978, -477, 1013, 2025, 1034
0.267328, 618, -1978, -477, 1013, 2025, 1034
0.267469, 618, -1978, -477, 1013, 2025, 1034
0.267604, 618, -1978, -477, 1013, 2025, 1034
0.267738, 618, -1978, -477, 1013, 2025, 1034
0.267872, 618, -1978, -477, 1013, 2025, 1034
0.268006, 618, -1978, -477, 1013, 2025, 1034
0.268140, 828, -2004, -39, 915, 1860, 532
0.268274, 828, -2004, -39, 915, 1860, 532
0.268408, 828, -2004, -39, 915, 1860, 532
0.268542, 828, -2004, -39, 915, 1860, 532
0.268676, 828, -2004, -39, 915, 1860, 532
0.268810, 828, -2004, -39, 915, 1860, 532
0.268944, 828, -2004, -39, 915, 1860, 532
0.269078, 443, -2036, 142, 938, 1907, 112
0.269213, 443, -2036, 142, 938, 1907, 112
0.269347, 443, -2036, 142, 938, 1907, 112
0.269481, 443, -2036, 142, 938, 1907, 112
0.269615, 443, -2036, 142, 938, 1907, 112
0.269749, 443, -2036, 142, 938, 1907, 112
0.269883, 443, -2036, 142, 938, 1907, 112
0.270017, 443, -2036, 142, 938, 1907, 112
0.270151, 306, -2029, -152, 901, 2128, -11
0.270285, 306, -2029, -152, 901, 2128, -11
0.270419, 306, -2029, -152, 901, 2128, -11
0.270553, 306, -2029, -152, 901, 2128, -11
0.270687, 306, -2029, -152, 901, 2128, -11
0.270821, 306, -2029, -152, 901, 2128, -11
0.270955, 306, -2029, -152, 901, 2128, -11
0.271088, 141, -2025, -372, 696, 2357, -58
0.271223, 141, -2025, -372, 696, 2357, -58
0.271357, 141, -2025, -372, 696, 2357, -58
0.271491, 141, -2025, -372, 696, 2357, -58
0.271625, 141, -2025, -372, 696, 2357, -58
0.271758, 141, -2025, -372, 696, 2357, -58
0.271892, 141, -2025, -372, 696, 2357, -58
0.272027, 141, -2025, -372, 696, 2357, -58
0.272160, 45, -2004, -488, 403, 2430, -39
0.272295, 45, -2004, -488, 403, 2430, -39
0.272429, 45, -2004, -488, 403, 2430, -39
0.272559, 45, -2004, -488, 403, 2430, -39
0.272694, 45, -2004, -488, 403, 2430, -39
0.272829, 45, -2004, -488, 403, 2430, -39
0.272964, 45, -2004, -488, 403, 2430, -39
0.273097, 179, -2078, -504, 69, 2346, -57
0.273230, 179, -2078, -504, 69, 2346, -57
0.273365, 179, -2078, -504, 69, 2346, -57
0.273499, 179, -2078, -504, 69, 2346, -57
0.273633, 179, -2078, -504, 69, 2346, -57
0.273767, 179, -2078, -504, 69, 2346, -57
0.273900, 179, -2078, -504, 69, 2346, -57
0.274034, 179, -2078, -504, 69, 2346, -57
0.274168, -696, -2255, 324, -12, 2224, -28
0.274302, -696, -2255, 324, -12, 2224, -28
0.274436, -696, -2255, 324, -12, 2224, -28
0.274570, -696, -2255, 324, -12, 2224, -28
0.274704, -696, -2255, 324, -12, 2224, -28
0.274838, -696, -2255, 324, -12, 2224, -28
0.274972, -696, -2255, 324, -12, 2224, -28
0.275106, -696, -2255, 324, -12, 2224, -28
0.275240, -1946, -2219, 1182, 526, 2066, 718
0.275374, -1946, -2219, 1182, 526, 2066, 718
0.275508, -1946, -2219, 1182, 526, 2066, 718
0.275642, -1946, -2219, 1182, 526, 2066, 718
0.275776, -1946, -2219, 1182, 526, 2066, 718
0.275910, -1946, -2219, 1182, 526, 2066, 718
0.276044, -1946, -2219, 1182, 526, 2066, 718
0.276178, -1075, -2019, 494, 1080, 1812, 1850
0.276312, -1075, -2019, 494, 1080, 1812, 1850
0.276446, -1075, -2019, 494, 1080, 1812, 1850
0.276580, -1075, -2019, 494, 1080, 1812, 1850
0.276714, -1075, -2019, 494, 1080, 1812, 1850
0.276848, -1075, -2019, 494, 1080, 1812, 1850
0.276982, -1075, -2019, 494, 1080, 1812, 1850
0.277116, -1075, -2019, 494, 1080, 1812, 1850
0.277250, 866, -1974, -414, 1031, 1578, 1968
0.277384, 866, -1974, -414, 1031, 1578, 1968
0.277518, 866, -1974, -414, 1031, 1578, 1968
0.277652, 866, -1974, -414, 1031, 1578, 1968
0.277786, 866, -1974, -414, 1031, 1578, 1968
0.277920, 866, -1974, -414, 1031, 1578, 1968
0.278054, 866, -1974, -414, 1031, 1578, 1968
0.278188, 1368, -2005, -105, 924, 1470, 1048
0.278322, 1368, -2005, -105, 924, 1470, 1048
0.278452, 1368, -2005, -105, 924, 1470, 1048
0.278587, 1368, -2005, -105, 924, 1470, 1048
0.278721, 1368, -2005, -105, 924, 1470, 1048
0.278855, 1368, -2005, -105, 924, 1470, 1048
0.278989, 1368, -2005, -105, 924, 1470, 1048
0.279123, 1368, -2005, -105, 924, 1470, 1048
0.279257, 948, -1915, 72, 1016, 1494, 204
0.279391, 948, -1915, 72, 1016, 1494, 204
0.279541, 948, -1915, 72, 1016, 1494, 204
0.279677, 948, -1915, 72, 1016, 1494, 204
0.279812, 948, -1915, 72, 1016, 1494, 204
0.279946, 948, -1915, 72, 1016, 1494, 204
0.280079, 948, -1915, 72, 1016, 1494, 204
0.280213, 586, -1941, -232, 834, 1716, -220
0.280348, 586, -1941, -232, 834, 1716, -220
0.280482, 586, -1941, -232, 834, 1716, -220
0.280616, 586, -1941, -232, 834, 1716, -220
0.280750, 586, -1941, -232, 834, 1716, -220
0.280884, 586, -1941, -232, 834, 1716, -220
0.281018, 586, -1941, -232, 834, 1716, -220
0.281152, 586, -1941, -232, 834, 1716, -220
0.281286, -459, -2163, 256, 660, 2086, -244
0.281420, -459, -2163, 256, 660, 2086, -244
0.281554, -459, -2163, 256, 660, 2086, -244
0.281688, -459, -2163, 256, 660, 2086, -244
0.281822, -459, -2163, 256, 660, 2086, -244
0.281956, -459, -2163, 256, 660, 2086, -244
0.282090, -459, -2163, 256, 660, 2086, -244
0.282224, -1351, -2189, 631, 946, 2331, 428
0.282358, -1351, -2189, 631, 946, 2331, 428
0.282492, -1351, -2189, 631, 946, 2331, 428
0.282626, -1351, -2189, 631, 946, 2331, 428
0.282760, -1351, -2189, 631, 946, 2331, 428
0.282894, -1351, -2189, 631, 946, 2331, 428
0.283027, -1351, -2189, 631, 946, 2331, 428
0.283161, -1351, -2189, 631, 946, 2331, 428
0.283295, -263, -2057, -74, 1086, 2276, 1167
0.283430, -263, -2057, -74, 1086, 2276, 1167
0.283564, -263, -2057, -74, 1086, 2276, 1167
0.283698, -263, -2057, -74, 1086, 2276, 1167
0.283831, -263, -2057, -74, 1086, 2276, 1167
0.283966, -263, -2057, -74, 1086, 2276, 1167
0.284099, -263, -2057, -74, 1086, 2276, 1167
0.284233, -263, -2057, -74, 1086, 2276, 1167
0.284367, 987, -2072, -278, 885, 2023, 900
0.284501, 987, -2072, -278, 885, 2023, 900
0.284635, 987, -2072, -278, 885, 2023, 900
0.284769, 987, -2072, -278, 885, 2023, 900
0.284903, 987, -2072, -278, 885, 2023, 900
0.285037, 987, -2072, -278, 885, 2023, 900
0.285172, 987, -2072, -278, 885, 2023, 900
0.285306, 586, -2076, 283, 974, 1770, 157
0.285440, 586, -2076, 283, 974, 1770, 157
0.285574, 586, -2076, 283, 974, 1770, 157
0.285708, 586, -2076, 283, 974, 1770, 157
0.285841, 586, -2076, 283, 974, 1770, 157
0.285975, 586, -2076, 283, 974, 1770, 157
0.286109, 586, -2076, 283, 974, 1770, 157
0.286243, 586, -2076, 283, 974, 1770, 157
0.286377, -165, -2009, 285, 1200, 1711, -48
0.286511, -165, -2009, 285, 1200, 1711, -48
0.286645, -165, -2009, 285, 1200, 1711, -48
0.286779, -165, -2009, 285, 1200, 1711, -48
0.286913, -165, -2009, 285, 1200, 1711, -48
0.287047, -165, -2009, 285, 1200, 1711, -48
0.287181, -165, -2009, 285, 1200, 1711, -48
0.287315, -337, -2054, 34, 1153, 1855, 223
0.287449, -337, -2054, 34, 1153, 1855, 223
0.287583, -337, -2054, 34, 1153, 1855, 223
0.287717, -337, -2054, 34, 1153, 1855, 223
0.287851, -337, -2054, 34, 1153, 1855, 223
0.287985, -337, -2054, 34, 1153, 1855, 223
0.288119, -337, -2054, 34, 1153, 1855, 223
0.288253, -337, -2054, 34, 1153, 1855, 223
0.288387, -176, -2105, 77, 1113, 1938, 486
0.288521, -176, -2105, 77, 1113, 1938, 486
0.288655, -176, -2105, 77, 1113, 1938, 486
0.288789, -176, -2105, 77, 1113, 1938, 486
0.288923, -176, -2105, 77, 1113, 1938, 486
0.289057, -176, -2105, 77, 1113, 1938, 486
0.289191, -176, -2105, 77, 1113, 1938, 486
0.289325, -355, -2095, 165, 1201, 1864, 627
0.289459, -355, -2095, 165, 1201, 1864, 627
0.289594, -355, -2095, 165, 1201, 1864, 627
0.289728, -355, -2095, 165, 1201, 1864, 627
0.289862, -355, -2095, 165, 1201, 1864, 627
0.289996, -355, -2095, 165, 1201, 1864, 627
0.290130, -355, -2095, 165, 1201, 1864, 627
0.290264, -355, -2095, 165, 1201, 1864, 627
0.290399, -540, -2060, 276, 1326, 1761, 921
0.290533, -540, -2060, 276, 1326, 1761, 921
0.290667, -540, -2060, 276, 1326, 1761, 921
0.290801, -540, -2060, 276, 1326, 1761, 921
0.290935, -540, -2060, 276, 1326, 1761, 921
0.291069, -540, -2060, 276, 1326, 1761, 921
0.291203, -540, -2060, 276, 1326, 1761, 921
0.291337, -540, -2060, 276, 1326, 1761, 921
0.291472, 80, -2004, 158, 1440, 1650, 1168
0.291606, 80, -2004, 158, 1440, 1650, 1168
0.291740, 80, -2004, 158, 1440, 1650, 1168
0.291874, 80, -2004, 158, 1440, 1650, 1168
0.292008, 80, -2004, 158, 1440, 1650, 1168
0.292149, 80, -2004, 158, 1440, 1650, 1168
0.292283, 80, -2004, 158, 1440, 1650, 1168
0.292417, 260, -2073, -32, 1433, 1575, 1004
0.292551, 260, -2073, -32, 1433, 1575, 1004
0.292686, 260, -2073, -32, 1433, 1575, 1004
0.292820, 260, -2073, -32, 1433, 1575, 1004
0.292955, 260, -2073, -32, 1433, 1575, 1004
0.293089, 260, -2073, -32, 1433, 1575, 1004
0.293224, 260, -2073, -32, 1433, 1575, 1004
0.293359, 260, -2073, -32, 1433, 1575, 1004
0.293493, -675, -2174, 2, 1454, 1609, 1008
0.293627, -675, -2174, 2, 1454, 1609, 1008
0.293761, -675, -2174, 2, 1454, 1609, 1008
0.293895, -675, -2174, 2, 1454, 1609, 1008
0.294029, -675, -2174, 2, 1454, 1609, 1008
0.294163, -675, -2174, 2, 1454, 1609, 1008
0.294298, -675, -2174, 2, 1454, 1609, 1008
0.294432, -975, -2094, -113, 1544, 1662, 1623
0.294566, -975, -2094, -113, 1544, 1662, 1623
0.294700, -975, -2094, -113, 1544, 1662, 1623
0.294834, -975, -2094, -113, 1544, 1662, 1623
0.294968, -975, -2094, -113, 1544, 1662, 1623
0.295102, -975, -2094, -113, 1544, 1662, 1623
0.295237, -975, -2094, -113, 1544, 1662, 1623
0.295371, -975, -2094, -113, 1544, 1662, 1623
0.295505, 336, -1932, -488, 1414, 1585, 2045
0.295639, 336, -1932, -488, 1414, 1585, 2045
0.295773, 336, -1932, -488, 1414, 1585, 2045
0.295907, 336, -1932, -488, 1414, 1585, 2045
0.296041, 336, -1932, -488, 1414, 1585, 2045
0.296175, 336, -1932, -488, 1414, 1585, 2045
0.296309, 336, -1932, -488, 1414, 1585, 2045
0.296444, 1663, -1890, -862, 967, 1416, 1445
0.296578, 1663, -1890, -862, 967, 1416, 1445
0.296712, 1663, -1890, -862, 967, 1416, 1445
0.296846, 1663, -1890, -862, 967, 1416, 1445
0.296980, 1663, -1890, -862, 967, 1416, 1445
0.297118, 1663, -1890, -862, 967, 1416, 1445
0.297252, 1663, -1890, -862, 967, 1416, 1445
0.297386, 1663, -1890, -862, 967, 1416, 1445
0.297520, 1287, -2029, -686, 460, 1387, 349
0.297655, 1287, -2029, -686, 460, 1387, 349
0.297789, 1287, -2029, -686, 460, 1387, 349
0.297927, 1287, -2029, -686, 460, 1387, 349
0.298067, 1287, -2029, -686, 460, 1387, 349
0.298203, 1287, -2029, -686, 460, 1387, 349
0.298338, 1287, -2029, -686, 460, 1387, 349
0.298475, -83, -2081, -210, 189, 1598, -90
0.298610, -83, -2081, -210, 189, 1598, -90
0.298764, -83, -2081, -210, 189, 1598, -90
0.298898, -83, -2081, -210, 189, 1598, -90
0.299033, -83, -2081, -210, 189, 1598, -90
0.299167, -83, -2081, -210, 189, 1598, -90
0.299304, -83, -2081, -210, 189, 1598, -90
0.299447, -83, -2081, -210, 189, 1598, -90
0.299588, -600, -2020, -97, 28, 1869, 306
0.299730, -600, -2020, -97, 28, 1869, 306
0.299865, -600, -2020, -97, 28, 1869, 306
0.300000, -600, -2020, -97, 28, 1869, 306
0.300135, -600, -2020, -97, 28, 1869, 306
0.300275, -600, -2020, -97, 28, 1869, 306
0.300412, -600, -2020, -97, 28, 1869, 306
0.300559, -497, -2126, 225, -91, 1973, 760
0.300716, -497, -2126, 225, -91, 1973, 760
0.300867, -497, -2126, 225, -91, 1973, 760
0.301008, -497, -2126, 225, -91, 1973, 760
0.301147, -497, -2126, 225, -91, 1973, 760
0.301282, -497, -2126, 225, -91, 1973, 760
0.301421, -497, -2126, 225, -91, 1973, 760
0.301561, -968, -2210, 614, 171, 1832, 1127
0.301698, -968, -2210, 614, 171, 1832, 1127
0.301839, -968, -2210, 614, 171, 1832, 1127
0.301977, -968, -2210, 614, 171, 1832, 1127
0.302113, -968, -2210, 614, 171, 1832, 1127
0.302247, -968, -2210, 614, 171, 1832, 1127
0.302382, -968, -2210, 614, 171, 1832, 1127
0.302520, -585, -2068, 181, 539, 1537, 1659
0.302660, -585, -2068, 181, 539, 1537, 1659
0.302796, -585, -2068, 181, 539, 1537, 1659
0.302932, -585, -2068, 181, 539, 1537, 1659
0.303067, -585, -2068, 181, 539, 1537, 1659
0.303201, -585, -2068, 181, 539, 1537, 1659
0.303336, -585, -2068, 181, 539, 1537, 1659
0.303472, -585, -2068, 181, 539, 1537, 1659
0.303608, 787, -1992, -151, 555, 1185, 1629
0.303747, 787, -1992, -151, 555, 1185, 1629
0.303883, 787, -1992, -151, 555, 1185, 1629
0.304018, 787, -1992, -151, 555, 1185, 1629
0.304152, 787, -1992, -151, 555, 1185, 1629
0.304289, 787, -1992, -151, 555, 1185, 1629
0.304429, 787, -1992, -151, 555, 1185, 1629
0.304564, 467, -2104, 475, 705, 909, 980
0.304698, 467, -2104, 475, 705, 909, 980
0.304833, 467, -2104, 475, 705, 909, 980
0.304991, 467, -2104, 475, 705, 909, 980
0.305130, 467, -2104, 475, 705, 909, 980
0.305264, 467, -2104, 475, 705, 909, 980
0.305398, 467, -2104, 475, 705, 909, 980
0.305532, 467, -2104, 475, 705, 909, 980
0.305666, -707, -2122, 592, 1135, 860, 921
0.305800, -707, -2122, 592, 1135, 860, 921
0.305934, -707, -2122, 592, 1135, 860, 921
0.306068, -707, -2122, 592, 1135, 860, 921
0.306202, -707, -2122, 592, 1135, 860, 921
0.306336, -707, -2122, 592, 1135, 860, 921
0.306470, -707, -2122, 592, 1135, 860, 921
0.306604, -346, -2041, -87, 1226, 956, 1427
0.306738, -346, -2041, -87, 1226, 956, 1427
0.306872, -346, -2041, -87, 1226, 956, 1427
0.307006, -346, -2041, -87, 1226, 956, 1427
0.307140, -346, -2041, -87, 1226, 956, 1427
0.307274, -346, -2041, -87, 1226, 956, 1427
0.307408, -346, -2041, -87, 1226, 956, 1427
0.307542, -346, -2041, -87, 1226, 956, 1427
0.307676, 532, -2036, -147, 1112, 946, 1471
0.307810, 532, -2036, -147, 1112, 946, 1471
0.307944, 532, -2036, -147, 1112, 946, 1471
0.308078, 532, -2036, -147, 1112, 946, 1471
0.308212, 532, -2036, -147, 1112, 946, 1471
0.308346, 532, -2036, -147, 1112, 946, 1471
0.308480, 532, -2036, -147, 1112, 946, 1471
0.308614, 643, -2014, -75, 1131, 832, 1035
0.308748, 643, -2014, -75, 1131, 832, 1035
0.308882, 643, -2014, -75, 1131, 832, 1035
0.309016, 643, -2014, -75, 1131, 832, 1035
0.309150, 643, -2014, -75, 1131, 832, 1035
0.309284, 643, -2014, -75, 1131, 832, 1035
0.309418, 643, -2014, -75, 1131, 832, 1035
0.309552, 643, -2014, -75, 1131, 832, 1035
0.309686, 449, -1965, -375, 980, 838, 675
0.309820, 449, -1965, -375, 980, 838, 675
0.309954, 449, -1965, -375, 980, 838, 675
0.310088, 449, -1965, -375, 980, 838, 675
0.310222, 449, -1965, -375, 980, 838, 675
0.310356, 449, -1965, -375, 980, 838, 675
0.310490, 449, -1965, -375, 980, 838, 675
0.310624, 567, -1966, -450, 602, 934, 434
0.310758, 567, -1966, -450, 602, 934, 434
0.310892, 567, -1966, -450, 602, 934, 434
0.311026, 567, -1966, -450, 602, 934, 434
0.311160, 567, -1966, -450, 602, 934, 434
0.311294, 567, -1966, -450, 602, 934, 434
0.311428, 567, -1966, -450, 602, 934, 434
0.311562, 567, -1966, -450, 602, 934, 434
0.311696, 585, -2061, -87, 356, 997, 106
0.311830, 585, -2061, -87, 356, 997, 106
0.311964, 585, -2061, -87, 356, 997, 106
0.312098, 585, -2061, -87, 356, 997, 106
0.312232, 585, -2061, -87, 356, 997, 106
0.312366, 585, -2061, -87, 356, 997, 106
0.312500, 585, -2061, -87, 356, 997, 106
0.312634, 11, -2133, 160, 362, 1081, -94
0.312768, 11, -2133, 160, 362, 1081, -94
0.312902, 11, -2133, 160, 362, 1081, -94
0.313036, 11, -2133, 160, 362, 1081, -94
0.313171, 11, -2133, 160, 362, 1081, -94
0.313305, 11, -2133, 160, 362, 1081, -94
0.313439, 11, -2133, 160, 362, 1081, -94
0.313573, 11, -2133, 160, 362, 1081, -94
0.313706, -312, -2100, 54, 387, 1175, 82
0.313841, -312, -2100, 54, 387, 1175, 82
0.313975, -312, -2100, 54, 387, 1175, 82
0.314110, -312, -2100, 54, 387, 1175, 82
0.314245, -312, -2100, 54, 387, 1175, 82
0.314379, -312, -2100, 54, 387, 1175, 82
0.314513, -312, -2100, 54, 387, 1175, 82
0.314647, -312, -2100, 54, 387, 1175, 82
0.314780, -59, -2082, 208, 469, 1137, 309
0.314915, -59, -2082, 208, 469, 1137, 309
0.315049, -59, -2082, 208, 469, 1137, 309
0.315183, -59, -2082, 208, 469, 1137, 309
0.315317, -59, -2082, 208, 469, 1137, 309
0.315451, -59, -2082, 208, 469, 1137, 309
0.315585, -59, -2082, 208, 469, 1137, 309
0.315718, 163, -2025, 94, 650, 969, 298
0.315853, 163, -2025, 94, 650, 969, 298
0.315986, 163, -2025, 94, 650, 969, 298
0.316120, 163, -2025, 94, 650, 969, 298
0.316254, 163, -2025, 94, 650, 969, 298
0.316388, 163, -2025, 94, 650, 969, 298
0.316522, 163, -2025, 94, 650, 969, 298
0.316656, 163, -2025, 94, 650, 969, 298
0.316790, 178, -1990, -374, 545, 829, 169
0.316924, 178, -1990, -374, 545, 829, 169
0.317058, 178, -1990, -374, 545, 829, 169
0.317193, 178, -1990, -374, 545, 829, 169
0.317327, 178, -1990, -374, 545, 829, 169
0.317460, 178, -1990, -374, 545, 829, 169
0.317594, 178, -1990, -374, 545, 829, 169
0.317728, 82, -2034, -112, 341, 733, 91
0.317862, 82, -2034, -112, 341, 733, 91
0.317996, 82, -2034, -112, 341, 733, 91
0.318144, 82, -2034, -112, 341, 733, 91
0.318279, 82, -2034, -112, 341, 733, 91
0.318413, 82, -2034, -112, 341, 733, 91
0.318547, 82, -2034, -112, 341, 733, 91
0.318681, 82, -2034, -112, 341, 733, 91
0.318815, -54, -2044, 424, 475, 637, 106
0.318949, -54, -2044, 424, 475, 637, 106
0.319083, -54, -2044, 424, 475, 637, 106
0.319217, -54, -2044, 424, 475, 637, 106
0.319351, -54, -2044, 424, 475, 637, 106
0.319485, -54, -2044, 424, 475, 637, 106
0.319619, -54, -2044, 424, 475, 637, 106
0.319753, -277, -2109, 578, 734, 643, 217
0.319887, -277, -2109, 578, 734, 643, 217
0.320021, -277, -2109, 578, 734, 643, 217
0.320155, -277, -2109, 578, 734, 643, 217
0.320289, -277, -2109, 578, 734, 643, 217
0.320423, -277, -2109, 578, 734, 643, 217
0.320557, -277, -2109, 578, 734, 643, 217
0.320691, -277, -2109, 578, 734, 643, 217
0.320825, -351, -2213, 583, 1018, 715, 438
0.320959, -351, -2213, 583, 1018, 715, 438
0.321093, -351, -2213, 583, 1018, 715, 438
0.321227, -351, -2213, 583, 1018, 715, 438
0.321361, -351, -2213, 583, 1018, 715, 438
0.321495, -351, -2213, 583, 1018, 715, 438
0.321629, -351, -2213, 583, 1018, 715, 438
0.321763, -78, -2153, -42, 1246, 688, 603
0.321897, -78, -2153, -42, 1246, 688, 603
0.322031, -78, -2153, -42, 1246, 688, 603
0.322165, -78, -2153, -42, 1246, 688, 603
0.322299, -78, -2153, -42, 1246, 688, 603
0.322433, -78, -2153, -42, 1246, 688, 603
0.322567, -78, -2153, -42, 1246, 688, 603
0.322701, -78, -2153, -42, 1246, 688, 603
0.322835, 427, -1977, -867, 1005, 572, 514
0.322969, 427, -1977, -867, 1005, 572, 514
0.323103, 427, -1977, -867, 1005, 572, 514
0.323237, 427, -1977, -867, 1005, 572, 514
0.323371, 427, -1977, -867, 1005, 572, 514
0.323505, 427, -1977, -867, 1005, 572, 514
0.323639, 427, -1977, -867, 1005, 572, 514
0.323773, 427, -1977, -867, 1005, 572, 514
0.323907, 576, -1936, -682, 514, 448, 162
0.324041, 576, -1936, -682, 514, 448, 162
0.324175, 576, -1936, -682, 514, 448, 162
0.324309, 576, -1936, -682, 514, 448, 162
0.324443, 576, -1936, -682, 514, 448, 162
0.324577, 576, -1936, -682, 514, 448, 162
0.324711, 576, -1936, -682, 514, 448, 162
0.324845, -32, -2004, -52, 292, 415, -65
0.324979, -32, -2004, -52, 292, 415, -65
0.325114, -32, -2004, -52, 292, 415, -65
0.325248, -32, -2004, -52, 292, 415, -65
0.325382, -32, -2004, -52, 292, 415, -65
0.325516, -32, -2004, -52, 292, 415, -65
0.325650, -32, -2004, -52, 292, 415, -65
0.325784, -32, -2004, -52, 292, 415, -65
0.325918, -396, -2057, 190, 272, 521, 131
0.326052, -396, -2057, 190, 272, 521, 131
0.326186, -396, -2057, 190, 272, 521, 131
0.326320, -396, -2057, 190, 272, 521, 131
0.326454, -396, -2057, 190, 272, 521, 131
0.326588, -396, -2057, 190, 272, 521, 131
0.326722, -396, -2057, 190, 272, 521, 131
0.326856, -377, -2120, 173, 287, 639, 436
0.326990, -377, -2120, 173, 287, 639, 436
0.327124, -377, -2120, 173, 287, 639, 436
0.327258, -377, -2120, 173, 287, 639, 436
0.327392, -377, -2120, 173, 287, 639, 436
0.327526, -377, -2120, 173, 287, 639, 436
0.327660, -377, -2120, 173, 287, 639, 436
0.327794, -377, -2120, 173, 287, 639, 436
0.327927, -112, -2118, 56, 343, 652, 632
0.328062, -112, -2118, 56, 343, 652, 632
0.328196, -112, -2118, 56, 343, 652, 632
0.328330, -112, -2118, 56, 343, 652, 632
0.328464, -112, -2118, 56, 343, 652, 632
0.328598, -112, -2118, 56, 343, 652, 632
0.328732, -112, -2118, 56, 343, 652, 632
0.328866, 664, -2021, -120, 357, 550, 498
0.329000, 664, -2021, -120, 357, 550, 498
0.329134, 664, -2021, -120, 357, 550, 498
0.329268, 664, -2021, -120, 357, 550, 498
0.329402, 664, -2021, -120, 357, 550, 498
0.329536, 664, -2021, -120, 357, 550, 498
0.329670, 664, -2021, -120, 357, 550, 498
0.329804, 664, -2021, -120, 357, 550, 498
0.329938, 636, -2020, -3, 290, 439, -22
0.330072, 636, -2020, -3, 290, 439, -22
0.330206, 636, -2020, -3, 290, 439, -22
0.330340, 636, -2020, -3, 290, 439, -22
0.330474, 636, -2020, -3, 290, 439, -22
0.330608, 636, -2020, -3, 290, 439, -22
0.330742, 636, -2020, -3, 290, 439, -22
0.330876, 26, -2064, 397, 389, 436, -275
0.331010, 26, -2064, 397, 389, 436, -275
0.331144, 26, -2064, 397, 389, 436, -275
0.331283, 26, -2064, 397, 389, 436, -275
0.331417, 26, -2064, 397, 389, 436, -275
0.331551, 26, -2064, 397, 389, 436, -275
0.331685, 26, -2064, 397, 389, 436, -275
0.331819, 26, -2064, 397, 389, 436, -275
0.331953, 135, -1995, 213, 566, 523, -209
0.332087, 135, -1995, 213, 566, 523, -209
0.332221, 135, -1995, 213, 566, 523, -209
0.332355, 135, -1995, 213, 566, 523, -209
0.332489, 135, -1995, 213, 566, 523, -209
0.332623, 135, -1995, 213, 566, 523, -209
0.332757, 135, -1995, 213, 566, 523, -209
0.332891, 135, -1995, 213, 566, 523, -209
0.333025, 198, -2042, 50, 533, 639, -279
0.333159, 198, -2042, 50, 533, 639, -279
0.333294, 198, -2042, 50, 533, 639, -279
0.333427, 198, -2042, 50, 533, 639, -279
0.333561, 198, -2042, 50, 533, 639, -279
0.333695, 198, -2042, 50, 533, 639, -279
0.333829, 198, -2042, 50, 533, 639, -279
0.333963, 70, -2130, 453, 652, 713, -340
0.334097, 70, -2130, 453, 652, 713, -340
0.334231, 70, -2130, 453, 652, 713, -340
0.334365, 70, -2130, 453, 652, 713, -340
0.334499, 70, -2130, 453, 652, 713, -340
0.334633, 70, -2130, 453, 652, 713, -340
0.334767, 70, -2130, 453, 652, 713, -340
0.334901, 70, -2130, 453, 652, 713, -340
0.335035, 470, -2023, 138, 883, 748, -427
0.335169, 470, -2023, 138, 883, 748, -427
0.335303, 470, -2023, 138, 883, 748, -427
0.335437, 470, -2023, 138, 883, 748, -427
0.335571, 470, -2023, 138, 883, 748, -427
0.335705, 470, -2023, 138, 883, 748, -427
0.335839, 470, -2023, 138, 883, 748, -427
0.335973, 563, -1994, -525, 694, 808, -764
0.336107, 563, -1994, -525, 694, 808, -764
0.336241, 563, -1994, -525, 694, 808, -764
0.336375, 563, -1994, -525, 694, 808, -764
0.336509, 563, -1994, -525, 694, 808, -764
0.336643, 563, -1994, -525, 694, 808, -764
0.336777, 563, -1994, -525, 694, 808, -764
0.336911, 563, -1994, -525, 694, 808, -764
0.337045, -166, -2130, -335, 358, 844, -950
0.337179, -166, -2130, -335, 358, 844, -950
0.337313, -166, -2130, -335, 358, 844, -950
0.337446, -166, -2130, -335, 358, 844, -950
0.337580, -166, -2130, -335, 358, 844, -950
0.337713, -166, -2130, -335, 358, 844, -950
0.337847, -166, -2130, -335, 358, 844, -950
0.337980, -693, -2144, 166, 350, 835, -627
0.338114, -693, -2144, 166, 350, 835, -627
0.338247, -693, -2144, 166, 350, 835, -627
0.338382, -693, -2144, 166, 350, 835, -627
0.338515, -693, -2144, 166, 350, 835, -627
0.338650, -693, -2144, 166, 350, 835, -627
0.338784, -693, -2144, 166, 350, 835, -627
0.338919, -693, -2144, 166, 350, 835, -627
0.339053, -446, -2021, 7, 415, 807, -152
0.339188, -446, -2021, 7, 415, 807, -152
0.339321, -446, -2021, 7, 415, 807, -152
0.339455, -446, -2021, 7, 415, 807, -152
0.339588, -446, -2021, 7, 415, 807, -152
0.339722, -446, -2021, 7, 415, 807, -152
0.339855, -446, -2021, 7, 415, 807, -152
0.339988, -446, -2021, 7, 415, 807, -152
0.340122, 374, -1962, -435, 183, 709, -54
0.340255, 374, -1962, -435, 183, 709, -54
0.340389, 374, -1962, -435, 183, 709, -54
0.340522, 374, -1962, -435, 183, 709, -54
0.340656, 374, -1962, -435, 183, 709, -54
0.340789, 374, -1962, -435, 183, 709, -54
0.340923, 374, -1962, -435, 183, 709, -54
0.341056, 1031, -1958, -473, -140, 551, -521
0.341191, 1031, -1958, -473, -140, 551, -521
0.341326, 1031, -1958, -473, -140, 551, -521
0.341460, 1031, -1958, -473, -140, 551, -521
0.341594, 1031, -1958, -473, -140, 551, -521
0.341728, 1031, -1958, -473, -140, 551, -521
0.341862, 1031, -1958, -473, -140, 551, -521
0.341995, 1031, -1958, -473, -140, 551, -521
0.342129, 718, -2040, -404, -416, 503, -1172
0.342263, 718, -2040, -404, -416, 503, -1172
0.342397, 718, -2040, -404, -416, 503, -1172
0.342531, 718, -2040, -404, -416, 503, -1172
0.342665, 718, -2040, -404, -416, 503, -1172
0.342799, 718, -2040, -404, -416, 503, -1172
0.342933, 718, -2040, -404, -416, 503, -1172
0.343067, 100, -2170, -207, -683, 639, -1420
0.343201, 100, -2170, -207, -683, 639, -1420
0.343335, 100, -2170, -207, -683, 639, -1420
0.343469, 100, -2170, -207, -683, 639, -1420
0.343603, 100, -2170, -207, -683, 639, -1420
0.343737, 100, -2170, -207, -683, 639, -1420
0.343871, 100, -2170, -207, -683, 639, -1420
0.344005, 100, -2170, -207, -683, 639, -1420
0.344144, 43, -2139, 256, -704, 772, -1334
0.344280, 43, -2139, 256, -704, 772, -1334
0.344414, 43, -2139, 256, -704, 772, -1334
0.344548, 43, -2139, 256, -704, 772, -1334
0.344682, 43, -2139, 256, -704, 772, -1334
0.344816, 43, -2139, 256, -704, 772, -1334
0.344950, 43, -2139, 256, -704, 772, -1334
0.345084, -97, -2034, 332, -537, 840, -1271
0.345219, -97, -2034, 332, -537, 840, -1271
0.345353, -97, -2034, 332, -537, 840, -1271
0.345487, -97, -2034, 332, -537, 840, -1271
0.345621, -97, -2034, 332, -537, 840, -1271
0.345755, -97, -2034, 332, -537, 840, -1271
0.345889, -97, -2034, 332, -537, 840, -1271
0.346023, -97, -2034, 332, -537, 840, -1271
0.346157, -605, -2020, 146, -486, 917, -1084
0.346291, -605, -2020, 146, -486, 917, -1084
0.346425, -605, -2020, 146, -486, 917, -1084
0.346559, -605, -2020, 146, -486, 917, -1084
0.346693, -605, -2020, 146, -486, 917, -1084
0.346827, -605, -2020, 146, -486, 917, -1084
0.346961, -605, -2020, 146, -486, 917, -1084
0.347095, -600, -2027, 582, -332, 902, -669
0.347229, -600, -2027, 582, -332, 902, -669
0.347363, -600, -2027, 582, -332, 902, -669
0.347497, -600, -2027, 582, -332, 902, -669
0.347631, -600, -2027, 582, -332, 902, -669
0.347765, -600, -2027, 582, -332, 902, -669
0.347899, -600, -2027, 582, -332, 902, -669
0.348033, -600, -2027, 582, -332, 902, -669
0.348167, -299, -2027, 1139, 211, 775, -410
0.348301, -299, -2027, 1139, 211, 775, -410
0.348435, -299, -2027, 1139, 211, 775, -410
0.348569, -299, -2027, 1139, 211, 775, -410
0.348703, -299, -2027, 1139, 211, 775, -410
0.348837, -299, -2027, 1139, 211, 775, -410
0.348971, -299, -2027, 1139, 211, 775, -410
0.349104, -299, -2027, 1139, 211, 775, -410
0.349241, -352, -2088, 779, 761, 726, -331
0.349375, -352, -2088, 779, 761, 726, -331
0.349509, -352, -2088, 779, 761, 726, -331
0.349643, -352, -2088, 779, 761, 726, -331
0.349777, -352, -2088, 779, 761, 726, -331
0.349911, -352, -2088, 779, 761, 726, -331
0.350045, -352, -2088, 779, 761, 726, -331
0.350179, -384, -2155, 40, 939, 732, -184
0.350313, -384, -2155, 40, 939, 732, -184
0.350447, -384, -2155, 40, 939, 732, -184
0.350581, -384, -2155, 40, 939, 732, -184
0.350715, -384, -2155, 40, 939, 732, -184
0.350849, -384, -2155, 40, 939, 732, -184
0.350982, -384, -2155, 40, 939, 732, -184
0.351116, -384, -2155, 40, 939, 732, -184
0.351250, -224, -2153, -5, 1031, 629, -35
0.351384, -224, -2153, -5, 1031, 629, -35
0.351518, -224, -2153, -5, 1031, 629, -35
0.351652, -224, -2153, -5, 1031, 629, -35
0.351786, -224, -2153, -5, 1031, 629, -35
0.351920, -224, -2153, -5, 1031, 629, -35
0.352054, -224, -2153, -5, 1031, 629, -35
0.352188, 25, -2060, 161, 1253, 489, -14
0.352322, 25, -2060, 161, 1253, 489, -14
0.352456, 25, -2060, 161, 1253, 489, -14
0.352590, 25, -2060, 161, 1253, 489, -14
0.352724, 25, -2060, 161, 1253, 489, -14
0.352858, 25, -2060, 161, 1253, 489, -14
0.352992, 25, -2060, 161, 1253, 489, -14
0.353126, 25, -2060, 161, 1253, 489, -14
0.353260, 115, -1983, -203, 1241, 469, -125
0.353394, 115, -1983, -203, 1241, 469, -125
0.353528, 115, -1983, -203, 1241, 469, -125
0.353662, 115, -1983, -203, 1241, 469, -125
0.353796, 115, -1983, -203, 1241, 469, -125
0.353930, 115, -1983, -203, 1241, 469, -125
0.354064, 115, -1983, -203, 1241, 469, -125
0.354198, 199, -1998, -497, 903, 533, -247
0.354332, 199, -1998, -497, 903, 533, -247
0.354466, 199, -1998, -497, 903, 533, -247
0.354623, 199, -1998, -497, 903, 533, -247
0.354758, 199, -1998, -497, 903, 533, -247
0.354892, 199, -1998, -497, 903, 533, -247
0.355026, 199, -1998, -497, 903, 533, -247
0.355160, 199, -1998, -497, 903, 533, -247
0.355294, 270, -2007, -310, 624, 599, -424
0.355428, 270, -2007, -310, 624, 599, -424
0.355562, 270, -2007, -310, 624, 599, -424
0.355696, 270, -2007, -310, 624, 599, -424
0.355830, 270, -2007, -310, 624, 599, -424
0.355964, 270, -2007, -310, 624, 599, -424
0.356098, 270, -2007, -310, 624, 599, -424
0.356232, -176, -2012, -106, 469, 746, -530
0.356366, -176, -2012, -106, 469, 746, -530
0.356500, -176, -2012, -106, 469, 746, -530
0.356634, -176, -2012, -106, 469, 746, -530
0.356768, -176, -2012, -106, 469, 746, -530
0.356907, -176, -2012, -106, 469, 746, -530
0.357042, -176, -2012, -106, 469, 746, -530
0.357176, -176, -2012, -106, 469, 746, -530
0.357310, -112, -2034, -144, 283, 948, -370
0.357445, -112, -2034, -144, 283, 948, -370
0.357579, -112, -2034, -144, 283, 948, -370
0.357713, -112, -2034, -144, 283, 948, -370
0.357847, -112, -2034, -144, 283, 948, -370
0.357981, -112, -2034, -144, 283, 948, -370
0.358114, -112, -2034, -144, 283, 948, -370
0.358249, 849, -1979, -307, 84, 1020, -484
0.358383, 849, -1979, -307, 84, 1020, -484
0.358517, 849, -1979, -307, 84, 1020, -484
0.358651, 849, -1979, -307, 84, 1020, -484
0.358785, 849, -1979, -307, 84, 1020, -484
0.358919, 849, -1979, -307, 84, 1020, -484
0.359053, 849, -1979, -307, 84, 1020, -484
0.359187, 849, -1979, -307, 84, 1020, -484
0.359320, 632, -2013, -213, -95, 1030, -1076
0.359455, 632, -2013, -213, -95, 1030, -1076
0.359589, 632, -2013, -213, -95, 1030, -1076
0.359723, 632, -2013, -213, -95, 1030, -1076
0.359857, 632, -2013, -213, -95, 1030, -1076
0.359991, 632, -2013, -213, -95, 1030, -1076
0.360124, 632, -2013, -213, -95, 1030, -1076
0.360258, 632, -2013, -213, -95, 1030, -1076
0.360392, -1050, -2219, 369, -61, 1188, -1092
0.360527, -1050, -2219, 369, -61, 1188, -1092
0.360661, -1050, -2219, 369, -61, 1188, -1092
0.360795, -1050, -2219, 369, -61, 1188, -1092
0.360929, -1050, -2219, 369, -61, 1188, -1092
0.361063, -1050, -2219, 369, -61, 1188, -1092
0.361197, -1050, -2219, 369, -61, 1188, -1092
0.361331, -1529, -2195, 621, 257, 1358, -117
0.361466, -1529, -2195, 621, 257, 1358, -117
0.361599, -1529, -2195, 621, 257, 1358, -117
0.361733, -1529, -2195, 621, 257, 1358, -117
0.361866, -1529, -2195, 621, 257, 1358, -117
0.362000, -1529, -2195, 621, 257, 1358, -117
0.362133, -1529, -2195, 621, 257, 1358, -117
0.362267, -1529, -2195, 621, 257, 1358, -117
0.362400, -249, -2042, 398, 516, 1293, 646
0.362534, -249, -2042, 398, 516, 1293, 646
0.362667, -249, -2042, 398, 516, 1293, 646
0.362801, -249, -2042, 398, 516, 1293, 646
0.362934, -249, -2042, 398, 516, 1293, 646
0.363068, -249, -2042, 398, 516, 1293, 646
0.363201, -249, -2042, 398, 516, 1293, 646
0.363334, 818, -2022, 261, 675, 1070, 417
0.363468, 818, -2022, 261, 675, 1070, 417
0.363602, 818, -2022, 261, 675, 1070, 417
0.363735, 818, -2022, 261, 675, 1070, 417
0.363869, 818, -2022, 261, 675, 1070, 417
0.364002, 818, -2022, 261, 675, 1070, 417
0.364135, 818, -2022, 261, 675, 1070, 417
0.364269, 818, -2022, 261, 675, 1070, 417
0.364402, 853, -1987, -15, 764, 939, -278
0.364536, 853, -1987, -15, 764, 939, -278
0.364670, 853, -1987, -15, 764, 939, -278
0.364803, 853, -1987, -15, 764, 939, -278
0.364936, 853, -1987, -15, 764, 939, -278
0.365070, 853, -1987, -15, 764, 939, -278
0.365204, 853, -1987, -15, 764, 939, -278
0.365339, 24, -2015, -196, 677, 1023, -666
0.365473, 24, -2015, -196, 677, 1023, -666
0.365607, 24, -2015, -196, 677, 1023, -666
0.365741, 24, -2015, -196, 677, 1023, -666
0.365875, 24, -2015, -196, 677, 1023, -666
0.366009, 24, -2015, -196, 677, 1023, -666
0.366143, 24, -2015, -196, 677, 1023, -666
0.366277, 24, -2015, -196, 677, 1023, -666
0.366411, -526, -2057, -247, 530, 1205, -399
0.366545, -526, -2057, -247, 530, 1205, -399
0.366679, -526, -2057, -247, 530, 1205, -399
0.366813, -526, -2057, -247, 530, 1205, -399
0.366947, -526, -2057, -247, 530, 1205, -399
0.367081, -526, -2057, -247, 530, 1205, -399
0.367215, -526, -2057, -247, 530, 1205, -399
0.367348, -526, -2057, -247, 530, 1205, -399
0.367482, 213, -2027, -182, 372, 1320, -58
0.367616, 213, -2027, -182, 372, 1320, -58
0.367750, 213, -2027, -182, 372, 1320, -58
0.367884, 213, -2027, -182, 372, 1320, -58
0.368019, 213, -2027, -182, 372, 1320, -58
0.368153, 213, -2027, -182, 372, 1320, -58
0.368286, 213, -2027, -182, 372, 1320, -58
0.368420, 827, -2042, 188, 348, 1351, -344
0.368554, 827, -2042, 188, 348, 1351, -344
0.368689, 827, -2042, 188, 348, 1351, -344
0.368823, 827, -2042, 188, 348, 1351, -344
0.368957, 827, -2042, 188, 348, 1351, -344
0.369091, 827, -2042, 188, 348, 1351, -344
0.369225, 827, -2042, 188, 348, 1351, -344
0.369369, 827, -2042, 188, 348, 1351, -344
0.369503, 602, -2021, 94, 399, 1412, -855
0.369638, 602, -2021, 94, 399, 1412, -855
0.369772, 602, -2021, 94, 399, 1412, -855
0.369906, 602, -2021, 94, 399, 1412, -855
0.370040, 602, -2021, 94, 399, 1412, -855
0.370174, 602, -2021, 94, 399, 1412, -855
0.370307, 602, -2021, 94, 399, 1412, -855
0.370441, 196, -2029, -121, 271, 1559, -1092
0.370576, 196, -2029, -121, 271, 1559, -1092
0.370710, 196, -2029, -121, 271, 1559, -1092
0.370844, 196, -2029, -121, 271, 1559, -1092
0.370978, 196, -2029, -121, 271, 1559, -1092
0.371111, 196, -2029, -121, 271, 1559, -1092
0.371245, 196, -2029, -121, 271, 1559, -1092
0.371379, 196, -2029, -121, 271, 1559, -1092
0.371513, -169, -2089, 70, 226, 1693, -1018
0.371648, -169, -2089, 70, 226, 1693, -1018
0.371782, -169, -2089, 70, 226, 1693, -1018
0.371915, -169, -2089, 70, 226, 1693, -1018
0.372049, -169, -2089, 70, 226, 1693, -1018
0.372183, -169, -2089, 70, 226, 1693, -1018
0.372317, -169, -2089, 70, 226, 1693, -1018
0.372451, 54, -2091, 17, 291, 1747, -835
0.372585, 54, -2091, 17, 291, 1747, -835
0.372720, 54, -2091, 17, 291, 1747, -835
0.372854, 54, -2091, 17, 291, 1747, -835
