Time, ax, ay, az, gx, gy, gz
0.000018, -248, -2012, -908, -2882, 111, 170
0.000186, -248, -2012, -908, -2882, 111, 170
0.000326, -248, -2012, -908, -2882, 111, 170
0.000464, -248, -2012, -908, -2882, 111, 170
0.000602, -248, -2012, -908, -2882, 111, 170
0.000760, -193, -2033, -782, -3626, 126, 192
0.000898, -193, -2033, -782, -3626, 126, 192
0.001036, -193, -2033, -782, -3626, 126, 192
0.001175, -193, -2033, -782, -3626, 126, 192
0.001313, -193, -2033, -782, -3626, 126, 192
0.001452, -193, -2033, -782, -3626, 126, 192
0.001590, -193, -2033, -782, -3626, 126, 192
0.001722, -141, -2059, -191, -4035, 96, 237
0.001862, -141, -2059, -191, -4035, 96, 237
0.002001, -141, -2059, -191, -4035, 96, 237
0.002139, -141, -2059, -191, -4035, 96, 237
0.002277, -141, -2059, -191, -4035, 96, 237
0.002416, -141, -2059, -191, -4035, 96, 237
0.002554, -141, -2059, -191, -4035, 96, 237
0.002692, -141, -2059, -191, -4035, 96, 237
0.002830, -110, -2054, 108, -4116, 51, 298
0.002972, -110, -2054, 108, -4116, 51, 298
0.003110, -110, -2054, 108, -4116, 51, 298
0.003249, -110, -2054, 108, -4116, 51, 298
0.003387, -110, -2054, 108, -4116, 51, 298
0.003525, -110, -2054, 108, -4116, 51, 298
0.003664, -110, -2054, 108, -4116, 51, 298
0.003801, -100, -2062, 94, -4110, 12, 373
0.003943, -100, -2062, 94, -4110, 12, 373
0.004081, -100, -2062, 94, -4110, 12, 373
0.004219, -100, -2062, 94, -4110, 12, 373
0.004358, -100, -2062, 94, -4110, 12, 373
0.004496, -100, -2062, 94, -4110, 12, 373
0.004634, -100, -2062, 94, -4110, 12, 373
0.004773, -87, -2079, 132, -4043, -17, 457
0.004911, -87, -2079, 132, -4043, -17, 457
0.005050, -87, -2079, 132, -4043, -17, 457
0.005189, -87, -2079, 132, -4043, -17, 457
0.005328, -87, -2079, 132, -4043, -17, 457
0.005467, -87, -2079, 132, -4043, -17, 457
0.005605, -87, -2079, 132, -4043, -17, 457
0.005744, -87, -2079, 132, -4043, -17, 457
0.005881, -66, -2089, 346, -3876, 46, 525
0.006022, -66, -2089, 346, -3876, 46, 525
0.006160, -66, -2089, 346, -3876, 46, 525
0.006298, -66, -2089, 346, -3876, 46, 525
0.006437, -66, -2089, 346, -3876, 46, 525
0.006571, -66, -2089, 346, -3876, 46, 525
0.006709, -66, -2089, 346, -3876, 46, 525
0.006848, 22, -2137, 1138, -3496, 205, 538
0.006989, 22, -2137, 1138, -3496, 205, 538
0.007127, 22, -2137, 1138, -3496, 205, 538
0.007265, 22, -2137, 1138, -3496, 205, 538
0.007404, 22, -2137, 1138, -3496, 205, 538
0.007542, 22, -2137, 1138, -3496, 205, 538
0.007680, 22, -2137, 1138, -3496, 205, 538
0.007818, 265, -2197, 3289, -2292, 346, 407
0.007960, 265, -2197, 3289, -2292, 346, 407
0.008098, 265, -2197, 3289, -2292, 346, 407
0.008236, 265, -2197, 3289, -2292, 346, 407
0.008375, 265, -2197, 3289, -2292, 346, 407
0.008513, 265, -2197, 3289, -2292, 346, 407
0.008651, 265, -2197, 3289, -2292, 346, 407
0.008790, 265, -2197, 3289, -2292, 346, 407
0.008929, 466, -2170, 5056, 255, 450, 28
0.009070, 466, -2170, 5056, 255, 450, 28
0.009208, 466, -2170, 5056, 255, 450, 28
0.009345, 466, -2170, 5056, 255, 450, 28
0.009482, 466, -2170, 5056, 255, 450, 28
0.009619, 466, -2170, 5056, 255, 450, 28
0.009756, 466, -2170, 5056, 255, 450, 28
0.009894, 222, -2101, 3262, 2824, 704, -473
0.010035, 222, -2101, 3262, 2824, 704, -473
0.010173, 222, -2101, 3262, 2824, 704, -473
0.010310, 222, -2101, 3262, 2824, 704, -473
0.010448, 222, -2101, 3262, 2824, 704, -473
0.010585, 222, -2101, 3262, 2824, 704, -473
0.010722, 222, -2101, 3262, 2824, 704, -473
0.010859, -199, -2145, 792, 4002, 979, -740
0.011001, -199, -2145, 792, 4002, 979, -740
0.011138, -199, -2145, 792, 4002, 979, -740
0.011276, -199, -2145, 792, 4002, 979, -740
0.011414, -199, -2145, 792, 4002, 979, -740
0.011551, -199, -2145, 792, 4002, 979, -740
0.011688, -199, -2145, 792, 4002, 979, -740
0.011825, -199, -2145, 792, 4002, 979, -740
0.011963, -262, -2117, 1162, 4975, 769, -751
0.012104, -262, -2117, 1162, 4975, 769, -751
0.012242, -262, -2117, 1162, 4975, 769, -751
0.012380, -262, -2117, 1162, 4975, 769, -751
0.012517, -262, -2117, 1162, 4975, 769, -751
0.012655, -262, -2117, 1162, 4975, 769, -751
0.012793, -262, -2117, 1162, 4975, 769, -751
0.012931, -211, -1929, 666, 6064, 422, -779
0.013106, -211, -1929, 666, 6064, 422, -779
0.013249, -211, -1929, 666, 6064, 422, -779
0.013388, -211, -1929, 666, 6064, 422, -779
0.013526, -211, -1929, 666, 6064, 422, -779
0.013664, -211, -1929, 666, 6064, 422, -779
0.013803, -211, -1929, 666, 6064, 422, -779
0.013940, -418, -1961, -559, 6030, 523, -772
0.014082, -418, -1961, -559, 6030, 523, -772
0.014220, -418, -1961, -559, 6030, 523, -772
0.014358, -418, -1961, -559, 6030, 523, -772
0.014497, -418, -1961, -559, 6030, 523, -772
0.014635, -418, -1961, -559, 6030, 523, -772
0.014772, -418, -1961, -559, 6030, 523, -772
0.014910, -558, -2028, 341, 5986, 510, -575
0.015052, -558, -2028, 341, 5986, 510, -575
0.015190, -558, -2028, 341, 5986, 510, -575
0.015328, -558, -2028, 341, 5986, 510, -575
0.015466, -558, -2028, 341, 5986, 510, -575
0.015604, -558, -2028, 341, 5986, 510, -575
0.015743, -558, -2028, 341, 5986, 510, -575
0.015880, -558, -2028, 341, 5986, 510, -575
0.016018, -452, -2010, -1167, 6042, 336, -364
0.016160, -452, -2010, -1167, 6042, 336, -364
0.016298, -452, -2010, -1167, 6042, 336, -364
0.016437, -452, -2010, -1167, 6042, 336, -364
0.016575, -452, -2010, -1167, 6042, 336, -364
0.016712, -452, -2010, -1167, 6042, 336, -364
0.016852, -452, -2010, -1167, 6042, 336, -364
0.016990, -456, -2074, -4424, 4194, 538, -184
0.017132, -456, -2074, -4424, 4194, 538, -184
0.017270, -456, -2074, -4424, 4194, 538, -184
0.017457, -456, -2074, -4424, 4194, 538, -184
0.017598, -456, -2074, -4424, 4194, 538, -184
0.017735, -456, -2074, -4424, 4194, 538, -184
0.017873, -456, -2074, -4424, 4194, 538, -184
0.018012, -419, -1983, -4262, 1448, 466, 104
0.018155, -419, -1983, -4262, 1448, 466, 104
0.018293, -419, -1983, -4262, 1448, 466, 104
0.018431, -419, -1983, -4262, 1448, 466, 104
0.018569, -419, -1983, -4262, 1448, 466, 104
0.018708, -419, -1983, -4262, 1448, 466, 104
0.018843, -419, -1983, -4262, 1448, 466, 104
0.018981, -167, -1917, -3033, -677, 14, 323
0.019123, -167, -1917, -3033, -677, 14, 323
0.019261, -167, -1917, -3033, -677, 14, 323
0.019400, -167, -1917, -3033, -677, 14, 323
0.019538, -167, -1917, -3033, -677, 14, 323
0.019676, -167, -1917, -3033, -677, 14, 323
0.019815, -167, -1917, -3033, -677, 14, 323
0.019953, -167, -1917, -3033, -677, 14, 323
0.020091, -44, -2034, -2077, -2528, -124, 367
0.020233, -44, -2034, -2077, -2528, -124, 367
0.020371, -44, -2034, -2077, -2528, -124, 367
0.020509, -44, -2034, -2077, -2528, -124, 367
0.020647, -44, -2034, -2077, -2528, -124, 367
0.020787, -44, -2034, -2077, -2528, -124, 367
0.020925, -44, -2034, -2077, -2528, -124, 367
0.021064, -99, -2075, -448, -3696, -198, 398
0.021205, -99, -2075, -448, -3696, -198, 398
0.021343, -99, -2075, -448, -3696, -198, 398
0.021482, -99, -2075, -448, -3696, -198, 398
0.021620, -99, -2075, -448, -3696, -198, 398
0.021758, -99, -2075, -448, -3696, -198, 398
0.021896, -99, -2075, -448, -3696, -198, 398
0.022034, -121, -2030, 341, -3970, -320, 464
0.022176, -121, -2030, 341, -3970, -320, 464
0.022314, -121, -2030, 341, -3970, -320, 464
0.022453, -121, -2030, 341, -3970, -320, 464
0.022591, -121, -2030, 341, -3970, -320, 464
0.022729, -121, -2030, 341, -3970, -320, 464
0.022867, -121, -2030, 341, -3970, -320, 464
0.023005, -102, -2030, 140, -4081, -250, 533
0.023144, -102, -2030, 140, -4081, -250, 533
0.023282, -102, -2030, 140, -4081, -250, 533
0.023420, -102, -2030, 140, -4081, -250, 533
0.023559, -102, -2030, 140, -4081, -250, 533
0.023697, -102, -2030, 140, -4081, -250, 533
0.023834, -102, -2030, 140, -4081, -250, 533
0.023972, -102, -2030, 140, -4081, -250, 533
0.024110, -105, -2055, 12, -4206, -177, 605
0.024252, -105, -2055, 12, -4206, -177, 605
0.024390, -105, -2055, 12, -4206, -177, 605
0.024529, -105, -2055, 12, -4206, -177, 605
0.024667, -105, -2055, 12, -4206, -177, 605
0.024805, -105, -2055, 12, -4206, -177, 605
0.024943, -105, -2055, 12, -4206, -177, 605
0.025081, -111, -2058, 55, -4190, -213, 687
0.025222, -111, -2058, 55, -4190, -213, 687
0.025360, -111, -2058, 55, -4190, -213, 687
0.025498, -111, -2058, 55, -4190, -213, 687
0.025635, -111, -2058, 55, -4190, -213, 687
0.025791, -111, -2058, 55, -4190, -213, 687
0.025929, -111, -2058, 55, -4190, -213, 687
0.026067, -109, -2060, 64, -4122, -288, 768
0.026208, -109, -2060, 64, -4122, -288, 768
0.026347, -109, -2060, 64, -4122, -288, 768
0.026484, -109, -2060, 64, -4122, -288, 768
0.026621, -109, -2060, 64, -4122, -288, 768
0.026759, -109, -2060, 64, -4122, -288, 768
0.026896, -109, -2060, 64, -4122, -288, 768
0.027034, -109, -2060, 64, -4122, -288, 768
0.027172, -107, -2065, 81, -4068, -291, 832
0.027313, -107, -2065, 81, -4068, -291, 832
0.027451, -107, -2065, 81, -4068, -291, 832
0.027589, -107, -2065, 81, -4068, -291, 832
0.027726, -107, -2065, 81, -4068, -291, 832
0.027863, -107, -2065, 81, -4068, -291, 832
0.028000, -107, -2065, 81, -4068, -291, 832
0.028137, -114, -2059, 127, -4038, -140, 866
0.028279, -114, -2059, 127, -4038, -140, 866
0.028417, -114, -2059, 127, -4038, -140, 866
0.028554, -114, -2059, 127, -4038, -140, 866
0.028692, -114, -2059, 127, -4038, -140, 866
0.028830, -114, -2059, 127, -4038, -140, 866
0.028968, -114, -2059, 127, -4038, -140, 866
0.029105, -124, -2056, 201, -4024, 104, 851
0.029246, -124, -2056, 201, -4024, 104, 851
0.029383, -124, -2056, 201, -4024, 104, 851
0.029520, -124, -2056, 201, -4024, 104, 851
0.029657, -124, -2056, 201, -4024, 104, 851
0.029794, -124, -2056, 201, -4024, 104, 851
0.029931, -124, -2056, 201, -4024, 104, 851
0.030068, -124, -2056, 201, -4024, 104, 851
0.030205, -113, -2073, 426, -3943, 355, 785
0.030346, -113, -2073, 426, -3943, 355, 785
0.030483, -113, -2073, 426, -3943, 355, 785
0.030620, -113, -2073, 426, -3943, 355, 785
0.030757, -113, -2073, 426, -3943, 355, 785
0.030894, -113, -2073, 426, -3943, 355, 785
0.031031, -113, -2073, 426, -3943, 355, 785
0.031168, -28, -2117, 1169, -3567, 560, 654
0.031309, -28, -2117, 1169, -3567, 560, 654
0.031447, -28, -2117, 1169, -3567, 560, 654
0.031584, -28, -2117, 1169, -3567, 560, 654
0.031721, -28, -2117, 1169, -3567, 560, 654
0.031858, -28, -2117, 1169, -3567, 560, 654
0.031995, -28, -2117, 1169, -3567, 560, 654
0.032132, 84, -2179, 2441, -2564, 668, 416
0.032269, 84, -2179, 2441, -2564, 668, 416
0.032406, 84, -2179, 2441, -2564, 668, 416
0.032543, 84, -2179, 2441, -2564, 668, 416
0.032680, 84, -2179, 2441, -2564, 668, 416
0.032818, 84, -2179, 2441, -2564, 668, 416
0.032955, 84, -2179, 2441, -2564, 668, 416
0.033093, 84, -2179, 2441, -2564, 668, 416
0.033231, 178, -2218, 4103, -649, 710, 80
0.033372, 178, -2218, 4103, -649, 710, 80
0.033511, 178, -2218, 4103, -649, 710, 80
0.033649, 178, -2218, 4103, -649, 710, 80
0.033786, 178, -2218, 4103, -649, 710, 80
0.033924, 178, -2218, 4103, -649, 710, 80
0.034061, 178, -2218, 4103, -649, 710, 80
0.034199, 225, -2198, 5370, 2231, 731, -325
0.034340, 225, -2198, 5370, 2231, 731, -325
0.034478, 225, -2198, 5370, 2231, 731, -325
0.034615, 225, -2198, 5370, 2231, 731, -325
0.034754, 225, -2198, 5370, 2231, 731, -325
0.034891, 225, -2198, 5370, 2231, 731, -325
0.035029, 225, -2198, 5370, 2231, 731, -325
0.035166, 49, -2103, 4674, 5393, 798, -734
0.035304, 49, -2103, 4674, 5393, 798, -734
0.035442, 49, -2103, 4674, 5393, 798, -734
0.035579, 49, -2103, 4674, 5393, 798, -734
0.035716, 49, -2103, 4674, 5393, 798, -734
0.035854, 49, -2103, 4674, 5393, 798, -734
0.035991, 49, -2103, 4674, 5393, 798, -734
0.036129, 49, -2103, 4674, 5393, 798, -734
0.036266, -269, -2025, 2183, 7665, 908, -950
0.036408, -269, -2025, 2183, 7665, 908, -950
0.036546, -269, -2025, 2183, 7665, 908, -950
0.036684, -269, -2025, 2183, 7665, 908, -950
0.036822, -269, -2025, 2183, 7665, 908, -950
0.036960, -269, -2025, 2183, 7665, 908, -950
0.037099, -269, -2025, 2183, 7665, 908, -950
0.037237, -451, -2022, 233, 8709, 880, -897
0.037378, -451, -2022, 233, 8709, 880, -897
0.037516, -451, -2022, 233, 8709, 880, -897
0.037653, -451, -2022, 233, 8709, 880, -897
0.037791, -451, -2022, 233, 8709, 880, -897
0.037928, -451, -2022, 233, 8709, 880, -897
0.038066, -451, -2022, 233, 8709, 880, -897
0.038203, -451, -2022, 233, 8709, 880, -897
0.038341, -469, -2065, -1147, 8957, 670, -703
0.038483, -469, -2065, -1147, 8957, 670, -703
0.038621, -469, -2065, -1147, 8957, 670, -703
0.038763, -469, -2065, -1147, 8957, 670, -703
0.038902, -469, -2065, -1147, 8957, 670, -703
0.039040, -469, -2065, -1147, 8957, 670, -703
0.039178, -469, -2065, -1147, 8957, 670, -703
0.039315, -595, -2113, -3097, 7966, 513, -450
0.039456, -595, -2113, -3097, 7966, 513, -450
0.039594, -595, -2113, -3097, 7966, 513, -450
0.039732, -595, -2113, -3097, 7966, 513, -450
0.039869, -595, -2113, -3097, 7966, 513, -450
0.040007, -595, -2113, -3097, 7966, 513, -450
0.040144, -595, -2113, -3097, 7966, 513, -450
0.040281, -693, -2027, -2561, 6190, 369, -58
0.040422, -693, -2027, -2561, 6190, 369, -58
0.040560, -693, -2027, -2561, 6190, 369, -58
0.040697, -693, -2027, -2561, 6190, 369, -58
0.040835, -693, -2027, -2561, 6190, 369, -58
0.040973, -693, -2027, -2561, 6190, 369, -58
0.041110, -693, -2027, -2561, 6190, 369, -58
0.041247, -391, -1925, -1164, 5172, 116, 308
0.041384, -391, -1925, -1164, 5172, 116, 308
0.041522, -391, -1925, -1164, 5172, 116, 308
0.041659, -391, -1925, -1164, 5172, 116, 308
0.041797, -391, -1925, -1164, 5172, 116, 308
0.041934, -391, -1925, -1164, 5172, 116, 308
0.042071, -391, -1925, -1164, 5172, 116, 308
0.042208, -391, -1925, -1164, 5172, 116, 308
0.042345, -77, -1933, -3566, 3577, 231, 367
0.042486, -77, -1933, -3566, 3577, 231, 367
0.042624, -77, -1933, -3566, 3577, 231, 367
0.042761, -77, -1933, -3566, 3577, 231, 367
0.042898, -77, -1933, -3566, 3577, 231, 367
0.043035, -77, -1933, -3566, 3577, 231, 367
0.043172, -77, -1933, -3566, 3577, 231, 367
0.043309, -4, -1977, -5543, 271, 462, 306
0.043451, -4, -1977, -5543, 271, 462, 306
0.043589, -4, -1977, -5543, 271, 462, 306
0.043726, -4, -1977, -5543, 271, 462, 306
0.043863, -4, -1977, -5543, 271, 462, 306
0.044000, -4, -1977, -5543, 271, 462, 306
0.044137, -4, -1977, -5543, 271, 462, 306
0.044274, -4, -1977, -5543, 271, 462, 306
0.044411, 13, -2055, -3316, -2613, 67, 313
0.044553, 13, -2055, -3316, -2613, 67, 313
0.044691, 13, -2055, -3316, -2613, 67, 313
0.044828, 13, -2055, -3316, -2613, 67, 313
0.044966, 13, -2055, -3316, -2613, 67, 313
0.045103, 13, -2055, -3316, -2613, 67, 313
0.045240, 13, -2055, -3316, -2613, 67, 313
0.045377, -42, -2062, -278, -3740, -357, 332
0.045519, -42, -2062, -278, -3740, -357, 332
0.045657, -42, -2062, -278, -3740, -357, 332
0.045794, -42, -2062, -278, -3740, -357, 332
0.045931, -42, -2062, -278, -3740, -357, 332
0.046068, -42, -2062, -278, -3740, -357, 332
0.046205, -42, -2062, -278, -3740, -357, 332
0.046342, -115, -2009, 565, -4023, -262, 385
0.046484, -115, -2009, 565, -4023, -262, 385
0.046622, -115, -2009, 565, -4023, -262, 385
0.046759, -115, -2009, 565, -4023, -262, 385
0.046896, -115, -2009, 565, -4023, -262, 385
0.047033, -115, -2009, 565, -4023, -262, 385
0.047170, -115, -2009, 565, -4023, -262, 385
0.047307, -115, -2009, 565, -4023, -262, 385
0.047444, -123, -2032, 132, -4281, -165, 476
0.047586, -123, -2032, 132, -4281, -165, 476
0.047724, -123, -2032, 132, -4281, -165, 476
0.047861, -123, -2032, 132, -4281, -165, 476
0.047998, -123, -2032, 132, -4281, -165, 476
0.048135, -123, -2032, 132, -4281, -165, 476
0.048272, -123, -2032, 132, -4281, -165, 476
0.048409, -101, -2074, -50, -4390, -358, 579
0.048551, -101, -2074, -50, -4390, -358, 579
0.048689, -101, -2074, -50, -4390, -358, 579
0.048827, -101, -2074, -50, -4390, -358, 579
0.048965, -101, -2074, -50, -4390, -358, 579
0.049102, -101, -2074, -50, -4390, -358, 579
0.049239, -101, -2074, -50, -4390, -358, 579
0.049377, -78, -2065, 41, -4286, -489, 699
0.049518, -78, -2065, 41, -4286, -489, 699
0.049656, -78, -2065, 41, -4286, -489, 699
0.049793, -78, -2065, 41, -4286, -489, 699
0.049930, -78, -2065, 41, -4286, -489, 699
0.050067, -78, -2065, 41, -4286, -489, 699
0.050204, -78, -2065, 41, -4286, -489, 699
0.050341, -78, -2065, 41, -4286, -489, 699
0.050478, -82, -2053, 116, -4216, -336, 824
0.050619, -82, -2053, 116, -4216, -336, 824
0.050757, -82, -2053, 116, -4216, -336, 824
0.050894, -82, -2053, 116, -4216, -336, 824
0.051031, -82, -2053, 116, -4216, -336, 824
0.051168, -82, -2053, 116, -4216, -336, 824
0.051305, -82, -2053, 116, -4216, -336, 824
0.051446, -109, -2069, 159, -4214, -159, 921
0.051589, -109, -2069, 159, -4214, -159, 921
0.051727, -109, -2069, 159, -4214, -159, 921
0.051864, -109, -2069, 159, -4214, -159, 921
0.052001, -109, -2069, 159, -4214, -159, 921
0.052138, -109, -2069, 159, -4214, -159, 921
0.052275, -109, -2069, 159, -4214, -159, 921
0.052413, -111, -2094, 320, -4131, -108, 966
0.052551, -111, -2094, 320, -4131, -108, 966
0.052689, -111, -2094, 320, -4131, -108, 966
0.052826, -111, -2094, 320, -4131, -108, 966
0.052964, -111, -2094, 320, -4131, -108, 966
0.053101, -111, -2094, 320, -4131, -108, 966
0.053238, -111, -2094, 320, -4131, -108, 966
0.053375, -111, -2094, 320, -4131, -108, 966
0.053513, -40, -2127, 987, -3809, -8, 931
0.053654, -40, -2127, 987, -3809, -8, 931
0.053791, -40, -2127, 987, -3809, -8, 931
0.053925, -40, -2127, 987, -3809, -8, 931
0.054059, -40, -2127, 987, -3809, -8, 931
0.054193, -40, -2127, 987, -3809, -8, 931
0.054327, -40, -2127, 987, -3809, -8, 931
0.054461, 125, -2181, 2785, -2829, 226, 757
0.054596, 125, -2181, 2785, -2829, 226, 757
0.054730, 125, -2181, 2785, -2829, 226, 757
0.054864, 125, -2181, 2785, -2829, 226, 757
0.054998, 125, -2181, 2785, -2829, 226, 757
0.055132, 125, -2181, 2785, -2829, 226, 757
0.055266, 125, -2181, 2785, -2829, 226, 757
0.055400, 125, -2181, 2785, -2829, 226, 757
0.055534, 310, -2224, 5400, -502, 469, 378
0.055669, 310, -2224, 5400, -502, 469, 378
0.055803, 310, -2224, 5400, -502, 469, 378
0.055937, 310, -2224, 5400, -502, 469, 378
0.056071, 310, -2224, 5400, -502, 469, 378
0.056205, 310, -2224, 5400, -502, 469, 378
0.056339, 310, -2224, 5400, -502, 469, 378
0.056473, 407, -2156, 6282, 3029, 687, -200
0.056607, 407, -2156, 6282, 3029, 687, -200
0.056748, 407, -2156, 6282, 3029, 687, -200
0.056882, 407, -2156, 6282, 3029, 687, -200
0.057016, 407, -2156, 6282, 3029, 687, -200
0.057149, 407, -2156, 6282, 3029, 687, -200
0.057282, 407, -2156, 6282, 3029, 687, -200
0.057416, 407, -2156, 6282, 3029, 687, -200
0.057549, 271, -2049, 4052, 6212, 958, -833
0.057683, 271, -2049, 4052, 6212, 958, -833
0.057816, 271, -2049, 4052, 6212, 958, -833
0.057950, 271, -2049, 4052, 6212, 958, -833
0.058083, 271, -2049, 4052, 6212, 958, -833
0.058217, 271, -2049, 4052, 6212, 958, -833
0.058350, 271, -2049, 4052, 6212, 958, -833
0.058483, -49, -1985, 1330, 7996, 1132, -1256
0.058617, -49, -1985, 1330, 7996, 1132, -1256
0.058750, -49, -1985, 1330, 7996, 1132, -1256
0.058884, -49, -1985, 1330, 7996, 1132, -1256
0.059017, -49, -1985, 1330, 7996, 1132, -1256
0.059150, -49, -1985, 1330, 7996, 1132, -1256
0.059284, -49, -1985, 1330, 7996, 1132, -1256
0.059417, -49, -1985, 1330, 7996, 1132, -1256
0.059550, -300, -2031, -252, 8801, 1022, -1352
0.059684, -300, -2031, -252, 8801, 1022, -1352
0.059817, -300, -2031, -252, 8801, 1022, -1352
0.059951, -300, -2031, -252, 8801, 1022, -1352
0.060084, -300, -2031, -252, 8801, 1022, -1352
0.060218, -300, -2031, -252, 8801, 1022, -1352
0.060351, -300, -2031, -252, 8801, 1022, -1352
0.060485, -300, -2031, -252, 8801, 1022, -1352
0.060618, -569, -2118, -1469, 8787, 846, -1216
0.060761, -569, -2118, -1469, 8787, 846, -1216
0.060896, -569, -2118, -1469, 8787, 846, -1216
0.061031, -569, -2118, -1469, 8787, 846, -1216
0.061165, -569, -2118, -1469, 8787, 846, -1216
0.061299, -569, -2118, -1469, 8787, 846, -1216
0.061433, -569, -2118, -1469, 8787, 846, -1216
0.061567, -876, -2075, -2102, 7950, 754, -873
0.061701, -876, -2075, -2102, 7950, 754, -873
0.061835, -876, -2075, -2102, 7950, 754, -873
0.061969, -876, -2075, -2102, 7950, 754, -873
0.062103, -876, -2075, -2102, 7950, 754, -873
0.062237, -876, -2075, -2102, 7950, 754, -873
0.062371, -876, -2075, -2102, 7950, 754, -873
0.062505, -876, -2075, -2102, 7950, 754, -873
0.062639, -864, -1998, -2639, 6610, 582, -388
0.062773, -864, -1998, -2639, 6610, 582, -388
0.062907, -864, -1998, -2639, 6610, 582, -388
0.063041, -864, -1998, -2639, 6610, 582, -388
0.063175, -864, -1998, -2639, 6610, 582, -388
0.063309, -864, -1998, -2639, 6610, 582, -388
0.063443, -864, -1998, -2639, 6610, 582, -388
0.063577, -530, -1968, -3376, 4636, 409, -15
0.063724, -530, -1968, -3376, 4636, 409, -15
0.063859, -530, -1968, -3376, 4636, 409, -15
0.063993, -530, -1968, -3376, 4636, 409, -15
0.064127, -530, -1968, -3376, 4636, 409, -15
0.064261, -530, -1968, -3376, 4636, 409, -15
0.064390, -530, -1968, -3376, 4636, 409, -15
0.064525, -530, -1968, -3376, 4636, 409, -15
0.064660, -243, -1996, -3145, 2357, 328, 141
0.064794, -243, -1996, -3145, 2357, 328, 141
0.064929, -243, -1996, -3145, 2357, 328, 141
0.065063, -243, -1996, -3145, 2357, 328, 141
0.065197, -243, -1996, -3145, 2357, 328, 141
0.065331, -243, -1996, -3145, 2357, 328, 141
0.065466, -243, -1996, -3145, 2357, 328, 141
0.065600, -144, -1971, -2348, 409, 280, 194
0.065734, -144, -1971, -2348, 409, 280, 194
0.065869, -144, -1971, -2348, 409, 280, 194
0.066003, -144, -1971, -2348, 409, 280, 194
0.066137, -144, -1971, -2348, 409, 280, 194
0.066271, -144, -1971, -2348, 409, 280, 194
0.066405, -144, -1971, -2348, 409, 280, 194
0.066540, -144, -1971, -2348, 409, 280, 194
0.066674, -123, -1979, -1743, -1177, 219, 227
0.066808, -123, -1979, -1743, -1177, 219, 227
0.066942, -123, -1979, -1743, -1177, 219, 227
0.067076, -123, -1979, -1743, -1177, 219, 227
0.067210, -123, -1979, -1743, -1177, 219, 227
0.067344, -123, -1979, -1743, -1177, 219, 227
0.067479, -123, -1979, -1743, -1177, 219, 227
0.067613, -108, -2066, -1148, -2378, 20, 265
0.067747, -108, -2066, -1148, -2378, 20, 265
0.067881, -108, -2066, -1148, -2378, 20, 265
0.068015, -108, -2066, -1148, -2378, 20, 265
0.068149, -108, -2066, -1148, -2378, 20, 265
0.068283, -108, -2066, -1148, -2378, 20, 265
0.068418, -108, -2066, -1148, -2378, 20, 265
0.068552, -108, -2066, -1148, -2378, 20, 265
0.068686, -84, -2062, -536, -3055, -310, 323
0.068821, -84, -2062, -536, -3055, -310, 323
0.068955, -84, -2062, -536, -3055, -310, 323
0.069089, -84, -2062, -536, -3055, -310, 323
0.069223, -84, -2062, -536, -3055, -310, 323
0.069358, -84, -2062, -536, -3055, -310, 323
0.069492, -84, -2062, -536, -3055, -310, 323
0.069626, -84, -2062, -536, -3055, -310, 323
0.069760, -52, -2038, -45, -3320, -581, 406
0.069894, -52, -2038, -45, -3320, -581, 406
0.070028, -52, -2038, -45, -3320, -581, 406
0.070163, -52, -2038, -45, -3320, -581, 406
0.070297, -52, -2038, -45, -3320, -581, 406
0.070431, -52, -2038, -45, -3320, -581, 406
0.070565, -52, -2038, -45, -3320, -581, 406
0.070699, -3, -2074, 552, -3294, -680, 505
0.070834, -3, -2074, 552, -3294, -680, 505
0.070968, -3, -2074, 552, -3294, -680, 505
0.071102, -3, -2074, 552, -3294, -680, 505
0.071236, -3, -2074, 552, -3294, -680, 505
0.071370, -3, -2074, 552, -3294, -680, 505
0.071504, -3, -2074, 552, -3294, -680, 505
0.071639, -3, -2074, 552, -3294, -680, 505
0.071773, 116, -2123, 1629, -2750, -640, 567
0.071907, 116, -2123, 1629, -2750, -640, 567
0.072041, 116, -2123, 1629, -2750, -640, 567
0.072175, 116, -2123, 1629, -2750, -640, 567
0.072310, 116, -2123, 1629, -2750, -640, 567
0.072444, 116, -2123, 1629, -2750, -640, 567
0.072578, 116, -2123, 1629, -2750, -640, 567
0.072712, 275, -2122, 2585, -1524, -466, 506
0.072847, 275, -2122, 2585, -1524, -466, 506
0.072981, 275, -2122, 2585, -1524, -466, 506
0.073115, 275, -2122, 2585, -1524, -466, 506
0.073249, 275, -2122, 2585, -1524, -466, 506
0.073383, 275, -2122, 2585, -1524, -466, 506
0.073518, 275, -2122, 2585, -1524, -466, 506
0.073652, 275, -2122, 2585, -1524, -466, 506
0.073786, 328, -2103, 2478, -37, -127, 300
0.073920, 328, -2103, 2478, -37, -127, 300
0.074054, 328, -2103, 2478, -37, -127, 300
0.074188, 328, -2103, 2478, -37, -127, 300
0.074323, 328, -2103, 2478, -37, -127, 300
0.074457, 328, -2103, 2478, -37, -127, 300
0.074591, 328, -2103, 2478, -37, -127, 300
0.074725, 261, -2084, 1942, 1241, 240, 19
0.074859, 261, -2084, 1942, 1241, 240, 19
0.074993, 261, -2084, 1942, 1241, 240, 19
0.075128, 261, -2084, 1942, 1241, 240, 19
0.075262, 261, -2084, 1942, 1241, 240, 19
0.075396, 261, -2084, 1942, 1241, 240, 19
0.075531, 261, -2084, 1942, 1241, 240, 19
0.075666, 261, -2084, 1942, 1241, 240, 19
0.075800, 134, -2053, 1424, 2357, 438, -270
0.075934, 134, -2053, 1424, 2357, 438, -270
0.076069, 134, -2053, 1424, 2357, 438, -270
0.076213, 134, -2053, 1424, 2357, 438, -270
0.076347, 134, -2053, 1424, 2357, 438, -270
0.076482, 134, -2053, 1424, 2357, 438, -270
0.076616, 134, -2053, 1424, 2357, 438, -270
0.076750, -87, -2043, -136, 2935, 543, -507
0.076880, -87, -2043, -136, 2935, 543, -507
0.077014, -87, -2043, -136, 2935, 543, -507
0.077148, -87, -2043, -136, 2935, 543, -507
0.077283, -87, -2043, -136, 2935, 543, -507
0.077417, -87, -2043, -136, 2935, 543, -507
0.077551, -87, -2043, -136, 2935, 543, -507
0.077685, -87, -2043, -136, 2935, 543, -507
0.077815, -306, -2045, -1236, 2544, 614, -610
0.077949, -306, -2045, -1236, 2544, 614, -610
0.078083, -306, -2045, -1236, 2544, 614, -610
0.078217, -306, -2045, -1236, 2544, 614, -610
0.078351, -306, -2045, -1236, 2544, 614, -610
0.078486, -306, -2045, -1236, 2544, 614, -610
0.078620, -306, -2045, -1236, 2544, 614, -610
0.078754, -397, -2053, -460, 2075, 477, -595
0.078888, -397, -2053, -460, 2075, 477, -595
0.079022, -397, -2053, -460, 2075, 477, -595
0.079156, -397, -2053, -460, 2075, 477, -595
0.079291, -397, -2053, -460, 2075, 477, -595
0.079425, -397, -2053, -460, 2075, 477, -595
0.079559, -397, -2053, -460, 2075, 477, -595
0.079693, -397, -2053, -460, 2075, 477, -595
0.079827, -379, -2016, 168, 2015, 360, -568
0.079961, -379, -2016, 168, 2015, 360, -568
0.080095, -379, -2016, 168, 2015, 360, -568
0.080230, -379, -2016, 168, 2015, 360, -568
0.080364, -379, -2016, 168, 2015, 360, -568
0.080498, -379, -2016, 168, 2015, 360, -568
0.080632, -379, -2016, 168, 2015, 360, -568
0.080767, -379, -2016, 168, 2015, 360, -568
0.080901, -288, -1894, 273, 1957, 502, -580
0.081035, -288, -1894, 273, 1957, 502, -580
0.081170, -288, -1894, 273, 1957, 502, -580
0.081304, -288, -1894, 273, 1957, 502, -580
0.081438, -288, -1894, 273, 1957, 502, -580
0.081572, -288, -1894, 273, 1957, 502, -580
0.081706, -288, -1894, 273, 1957, 502, -580
0.081840, -364, -1965, -616, 1705, 635, -611
0.081974, -364, -1965, -616, 1705, 635, -611
0.082109, -364, -1965, -616, 1705, 635, -611
0.082243, -364, -1965, -616, 1705, 635, -611
0.082377, -364, -1965, -616, 1705, 635, -611
0.082511, -364, -1965, -616, 1705, 635, -611
0.082645, -364, -1965, -616, 1705, 635, -611
0.082779, -364, -1965, -616, 1705, 635, -611
0.082909, -573, -2174, -2152, 743, 666, -517
0.083044, -573, -2174, -2152, 743, 666, -517
0.083179, -573, -2174, -2152, 743, 666, -517
0.083314, -573, -2174, -2152, 743, 666, -517
0.083448, -573, -2174, -2152, 743, 666, -517
0.083583, -573, -2174, -2152, 743, 666, -517
0.083719, -573, -2174, -2152, 743, 666, -517
0.083859, -429, -2102, -1352, -359, 459, -259
0.084006, -429, -2102, -1352, -359, 459, -259
0.084147, -429, -2102, -1352, -359, 459, -259
0.084288, -429, -2102, -1352, -359, 459, -259
0.084425, -429, -2102, -1352, -359, 459, -259
0.084560, -429, -2102, -1352, -359, 459, -259
0.084695, -429, -2102, -1352, -359, 459, -259
0.084831, -429, -2102, -1352, -359, 459, -259
0.084966, -140, -1970, 215, -602, 90, -109
0.085100, -140, -1970, 215, -602, 90, -109
0.085234, -140, -1970, 215, -602, 90, -109
0.085368, -140, -1970, 215, -602, 90, -109
0.085502, -140, -1970, 215, -602, 90, -109
0.085637, -140, -1970, 215, -602, 90, -109
0.085771, -140, -1970, 215, -602, 90, -109
0.085905, -145, -2052, 492, -567, 45, -109
0.086040, -145, -2052, 492, -567, 45, -109
0.086174, -145, -2052, 492, -567, 45, -109
0.086308, -145, -2052, 492, -567, 45, -109
0.086442, -145, -2052, 492, -567, 45, -109
0.086576, -145, -2052, 492, -567, 45, -109
0.086710, -145, -2052, 492, -567, 45, -109
0.086844, -145, -2052, 492, -567, 45, -109
0.086978, -170, -2118, 884, -428, 76, -70
0.087113, -170, -2118, 884, -428, 76, -70
0.087247, -170, -2118, 884, -428, 76, -70
0.087381, -170, -2118, 884, -428, 76, -70
0.087515, -170, -2118, 884, -428, 76, -70
0.087649, -170, -2118, 884, -428, 76, -70
0.087783, -170, -2118, 884, -428, 76, -70
0.087917, -13, -2040, 766, 137, -25, -45
0.088052, -13, -2040, 766, 137, -25, -45
0.088186, -13, -2040, 766, 137, -25, -45
0.088320, -13, -2040, 766, 137, -25, -45
0.088454, -13, -2040, 766, 137, -25, -45
0.088589, -13, -2040, 766, 137, -25, -45
0.088739, -13, -2040, 766, 137, -25, -45
0.088884, -13, -2040, 766, 137, -25, -45
0.089018, -7, -2017, -1480, -23, 133, -97
0.089152, -7, -2017, -1480, -23, 133, -97
0.089286, -7, -2017, -1480, -23, 133, -97
0.089415, -7, -2017, -1480, -23, 133, -97
0.089547, -7, -2017, -1480, -23, 133, -97
0.089683, -7, -2017, -1480, -23, 133, -97
0.089819, -7, -2017, -1480, -23, 133, -97
0.089953, -225, -2098, -2834, -1512, 311, -46
0.090088, -225, -2098, -2834, -1512, 311, -46
0.090222, -225, -2098, -2834, -1512, 311, -46
0.090356, -225, -2098, -2834, -1512, 311, -46
0.090490, -225, -2098, -2834, -1512, 311, -46
0.090624, -225, -2098, -2834, -1512, 311, -46
0.090758, -225, -2098, -2834, -1512, 311, -46
0.090892, -225, -2098, -2834, -1512, 311, -46
0.091027, -202, -2094, -651, -2533, 21, 135
0.091161, -202, -2094, -651, -2533, 21, 135
0.091295, -202, -2094, -651, -2533, 21, 135
0.091429, -202, -2094, -651, -2533, 21, 135
0.091564, -202, -2094, -651, -2533, 21, 135
0.091698, -202, -2094, -651, -2533, 21, 135
0.091832, -202, -2094, -651, -2533, 21, 135
0.091966, 52, -2030, 1508, -2216, -248, 167
0.092100, 52, -2030, 1508, -2216, -248, 167
0.092235, 52, -2030, 1508, -2216, -248, 167
0.092369, 52, -2030, 1508, -2216, -248, 167
0.092503, 52, -2030, 1508, -2216, -248, 167
0.092637, 52, -2030, 1508, -2216, -248, 167
0.092772, 52, -2030, 1508, -2216, -248, 167
0.092906, 52, -2030, 1508, -2216, -248, 167
0.093040, 159, -2031, 2016, -1512, 11, -13
0.093175, 159, -2031, 2016, -1512, 11, -13
0.093309, 159, -2031, 2016, -1512, 11, -13
0.093443, 159, -2031, 2016, -1512, 11, -13
0.093577, 159, -2031, 2016, -1512, 11, -13
0.093711, 159, -2031, 2016, -1512, 11, -13
0.093845, 159, -2031, 2016, -1512, 11, -13
0.093980, 146, -2111, 2135, -586, 303, -258
0.094114, 146, -2111, 2135, -586, 303, -258
0.094248, 146, -2111, 2135, -586, 303, -258
0.094382, 146, -2111, 2135, -586, 303, -258
0.094516, 146, -2111, 2135, -586, 303, -258
0.094651, 146, -2111, 2135, -586, 303, -258
0.094785, 146, -2111, 2135, -586, 303, -258
0.094919, 146, -2111, 2135, -586, 303, -258
0.095053, 49, -2123, 1701, 576, 400, -494
0.095187, 49, -2123, 1701, 576, 400, -494
0.095321, 49, -2123, 1701, 576, 400, -494
0.095455, 49, -2123, 1701, 576, 400, -494
0.095590, 49, -2123, 1701, 576, 400, -494
0.095724, 49, -2123, 1701, 576, 400, -494
0.095858, 49, -2123, 1701, 576, 400, -494
0.095992, -113, -2027, 948, 1480, 518, -641
0.096126, -113, -2027, 948, 1480, 518, -641
0.096261, -113, -2027, 948, 1480, 518, -641
0.096395, -113, -2027, 948, 1480, 518, -641
0.096529, -113, -2027, 948, 1480, 518, -641
0.096663, -113, -2027, 948, 1480, 518, -641
0.096797, -113, -2027, 948, 1480, 518, -641
0.096927, -113, -2027, 948, 1480, 518, -641
0.097063, -234, -2017, 374, 1963, 544, -668
0.097197, -234, -2017, 374, 1963, 544, -668
0.097331, -234, -2017, 374, 1963, 544, -668
0.097465, -234, -2017, 374, 1963, 544, -668
0.097599, -234, -2017, 374, 1963, 544, -668
0.097734, -234, -2017, 374, 1963, 544, -668
0.097868, -234, -2017, 374, 1963, 544, -668
0.098002, -234, -2017, 374, 1963, 544, -668
0.098136, -257, -2043, 488, 2329, 360, -625
0.098270, -257, -2043, 488, 2329, 360, -625
0.098404, -257, -2043, 488, 2329, 360, -625
0.098539, -257, -2043, 488, 2329, 360, -625
0.098673, -257, -2043, 488, 2329, 360, -625
0.098807, -257, -2043, 488, 2329, 360, -625
0.098941, -257, -2043, 488, 2329, 360, -625
0.099075, -182, -2035, 464, 2844, 124, -595
0.099209, -182, -2035, 464, 2844, 124, -595
0.099344, -182, -2035, 464, 2844, 124, -595
0.099478, -182, -2035, 464, 2844, 124, -595
0.099612, -182, -2035, 464, 2844, 124, -595
0.099746, -182, -2035, 464, 2844, 124, -595
0.099880, -182, -2035, 464, 2844, 124, -595
0.100014, -182, -2035, 464, 2844, 124, -595
0.100148, -309, -2077, -1124, 2790, 167, -580
0.100283, -309, -2077, -1124, 2790, 167, -580
0.100417, -309, -2077, -1124, 2790, 167, -580
0.100551, -309, -2077, -1124, 2790, 167, -580
0.100685, -309, -2077, -1124, 2790, 167, -580
0.100820, -309, -2077, -1124, 2790, 167, -580
0.100954, -309, -2077, -1124, 2790, 167, -580
0.101088, -481, -2071, -2531, 1573, 364, -431
0.101232, -481, -2071, -2531, 1573, 364, -431
0.101367, -481, -2071, -2531, 1573, 364, -431
0.101501, -481, -2071, -2531, 1573, 364, -431
0.101635, -481, -2071, -2531, 1573, 364, -431
0.101769, -481, -2071, -2531, 1573, 364, -431
0.101904, -481, -2071, -2531, 1573, 364, -431
0.102038, -481, -2071, -2531, 1573, 364, -431
0.102172, -308, -2018, -1790, 205, 297, -213
0.102306, -308, -2018, -1790, 205, 297, -213
0.102441, -308, -2018, -1790, 205, 297, -213
0.102575, -308, -2018, -1790, 205, 297, -213
0.102709, -308, -2018, -1790, 205, 297, -213
0.102843, -308, -2018, -1790, 205, 297, -213
0.102977, -308, -2018, -1790, 205, 297, -213
0.103111, -206, -1999, -556, -514, 187, -137
0.103246, -206, -1999, -556, -514, 187, -137
0.103380, -206, -1999, -556, -514, 187, -137
0.103514, -206, -1999, -556, -514, 187, -137
0.103648, -206, -1999, -556, -514, 187, -137
0.103783, -206, -1999, -556, -514, 187, -137
0.103917, -206, -1999, -556, -514, 187, -137
0.104051, -206, -1999, -556, -514, 187, -137
0.104185, -328, -1979, -871, -1187, 280, -118
0.104319, -328, -1979, -871, -1187, 280, -118
0.104454, -328, -1979, -871, -1187, 280, -118
0.104588, -328, -1979, -871, -1187, 280, -118
0.104722, -328, -1979, -871, -1187, 280, -118
0.104857, -328, -1979, -871, -1187, 280, -118
0.104991, -328, -1979, -871, -1187, 280, -118
0.105125, -325, -2007, -1620, -2279, 234, -34
0.105259, -325, -2007, -1620, -2279, 234, -34
0.105394, -325, -2007, -1620, -2279, 234, -34
0.105528, -325, -2007, -1620, -2279, 234, -34
0.105662, -325, -2007, -1620, -2279, 234, -34
0.105796, -325, -2007, -1620, -2279, 234, -34
0.105930, -325, -2007, -1620, -2279, 234, -34
0.106065, -325, -2007, -1620, -2279, 234, -34
0.106199, -211, -2065, -1182, -3248, -84, 56
0.106333, -211, -2065, -1182, -3248, -84, 56
0.106467, -211, -2065, -1182, -3248, -84, 56
0.106601, -211, -2065, -1182, -3248, -84, 56
0.106736, -211, -2065, -1182, -3248, -84, 56
0.106870, -211, -2065, -1182, -3248, -84, 56
0.107004, -211, -2065, -1182, -3248, -84, 56
0.107138, -136, -2065, -260, -3672, -299, 120
0.107273, -136, -2065, -260, -3672, -299, 120
0.107407, -136, -2065, -260, -3672, -299, 120
0.107541, -136, -2065, -260, -3672, -299, 120
0.107675, -136, -2065, -260, -3672, -299, 120
0.107809, -136, -2065, -260, -3672, -299, 120
0.107943, -136, -2065, -260, -3672, -299, 120
0.108077, -136, -2065, -260, -3672, -299, 120
0.108211, -76, -2064, 480, -3751, -248, 174
0.108346, -76, -2064, 480, -3751, -248, 174
0.108480, -76, -2064, 480, -3751, -248, 174
0.108614, -76, -2064, 480, -3751, -248, 174
0.108748, -76, -2064, 480, -3751, -248, 174
0.108882, -76, -2064, 480, -3751, -248, 174
0.109017, -76, -2064, 480, -3751, -248, 174
0.109151, -76, -2064, 480, -3751, -248, 174
0.109285, 36, -2110, 1454, -3373, -225, 182
0.109419, 36, -2110, 1454, -3373, -225, 182
0.109554, 36, -2110, 1454, -3373, -225, 182
0.109688, 36, -2110, 1454, -3373, -225, 182
0.109822, 36, -2110, 1454, -3373, -225, 182
0.109956, 36, -2110, 1454, -3373, -225, 182
0.110090, 36, -2110, 1454, -3373, -225, 182
0.110224, 155, -2142, 2290, -2304, -234, 96
0.110359, 155, -2142, 2290, -2304, -234, 96
0.110493, 155, -2142, 2290, -2304, -234, 96
0.110627, 155, -2142, 2290, -2304, -234, 96
0.110761, 155, -2142, 2290, -2304, -234, 96
0.110895, 155, -2142, 2290, -2304, -234, 96
0.111030, 155, -2142, 2290, -2304, -234, 96
0.111164, 155, -2142, 2290, -2304, -234, 96
0.111298, 194, -2109, 2480, -876, 23, -66
0.111432, 194, -2109, 2480, -876, 23, -66
0.111566, 194, -2109, 2480, -876, 23, -66
0.111700, 194, -2109, 2480, -876, 23, -66
0.111835, 194, -2109, 2480, -876, 23, -66
0.111969, 194, -2109, 2480, -876, 23, -66
0.112103, 194, -2109, 2480, -876, 23, -66
0.112237, 148, -2051, 2146, 499, 416, -257
0.112371, 148, -2051, 2146, 499, 416, -257
0.112506, 148, -2051, 2146, 499, 416, -257
0.112640, 148, -2051, 2146, 499, 416, -257
0.112775, 148, -2051, 2146, 499, 416, -257
0.112909, 148, -2051, 2146, 499, 416, -257
0.113043, 148, -2051, 2146, 499, 416, -257
0.113177, 148, -2051, 2146, 499, 416, -257
0.113312, 51, -2063, 1628, 1702, 624, -445
0.113447, 51, -2063, 1628, 1702, 624, -445
0.113592, 51, -2063, 1628, 1702, 624, -445
0.113727, 51, -2063, 1628, 1702, 624, -445
0.113861, 51, -2063, 1628, 1702, 624, -445
0.113996, 51, -2063, 1628, 1702, 624, -445
0.114130, 51, -2063, 1628, 1702, 624, -445
0.114264, -133, -2126, 607, 2544, 644, -588
0.114398, -133, -2126, 607, 2544, 644, -588
0.114532, -133, -2126, 607, 2544, 644, -588
0.114666, -133, -2126, 607, 2544, 644, -588
0.114801, -133, -2126, 607, 2544, 644, -588
0.114935, -133, -2126, 607, 2544, 644, -588
0.115069, -133, -2126, 607, 2544, 644, -588
0.115203, -133, -2126, 607, 2544, 644, -588
0.115337, -359, -2075, -100, 2847, 596, -600
0.115471, -359, -2075, -100, 2847, 596, -600
0.115605, -359, -2075, -100, 2847, 596, -600
0.115740, -359, -2075, -100, 2847, 596, -600
0.115874, -359, -2075, -100, 2847, 596, -600
0.116008, -359, -2075, -100, 2847, 596, -600
0.116142, -359, -2075, -100, 2847, 596, -600
0.116276, -367, -1977, 444, 3087, 452, -505
0.116410, -367, -1977, 444, 3087, 452, -505
0.116544, -367, -1977, 444, 3087, 452, -505
0.116679, -367, -1977, 444, 3087, 452, -505
0.116813, -367, -1977, 444, 3087, 452, -505
0.116947, -367, -1977, 444, 3087, 452, -505
0.117081, -367, -1977, 444, 3087, 452, -505
0.117215, -367, -1977, 444, 3087, 452, -505
0.117350, -288, -1986, 104, 3300, 361, -484
0.117484, -288, -1986, 104, 3300, 361, -484
0.117618, -288, -1986, 104, 3300, 361, -484
0.117752, -288, -1986, 104, 3300, 361, -484
0.117886, -288, -1986, 104, 3300, 361, -484
0.118021, -288, -1986, 104, 3300, 361, -484
0.118155, -288, -1986, 104, 3300, 361, -484
0.118289, -422, -2004, -596, 2981, 476, -482
0.118423, -422, -2004, -596, 2981, 476, -482
0.118557, -422, -2004, -596, 2981, 476, -482
0.118691, -422, -2004, -596, 2981, 476, -482
0.118826, -422, -2004, -596, 2981, 476, -482
0.118960, -422, -2004, -596, 2981, 476, -482
0.119094, -422, -2004, -596, 2981, 476, -482
0.119228, -422, -2004, -596, 2981, 476, -482
0.119362, -450, -2011, -648, 2544, 493, -355
0.119496, -450, -2011, -648, 2544, 493, -355
0.119631, -450, -2011, -648, 2544, 493, -355
0.119765, -450, -2011, -648, 2544, 493, -355
0.119899, -450, -2011, -648, 2544, 493, -355
0.120033, -450, -2011, -648, 2544, 493, -355
0.120167, -450, -2011, -648, 2544, 493, -355
0.120301, -450, -2011, -648, 2544, 493, -355
0.120435, -262, -2048, -1287, 1981, 426, -245
0.120570, -262, -2048, -1287, 1981, 426, -245
0.120704, -262, -2048, -1287, 1981, 426, -245
0.120838, -262, -2048, -1287, 1981, 426, -245
0.120972, -262, -2048, -1287, 1981, 426, -245
0.121106, -262, -2048, -1287, 1981, 426, -245
0.121241, -262, -2048, -1287, 1981, 426, -245
0.121375, -257, -2037, -1598, 1046, 397, -195
0.121509, -257, -2037, -1598, 1046, 397, -195
0.121643, -257, -2037, -1598, 1046, 397, -195
0.121777, -257, -2037, -1598, 1046, 397, -195
0.121911, -257, -2037, -1598, 1046, 397, -195
0.122046, -257, -2037, -1598, 1046, 397, -195
0.122180, -257, -2037, -1598, 1046, 397, -195
0.122314, -257, -2037, -1598, 1046, 397, -195
0.122448, -303, -2005, -1594, 78, 223, -75
0.122582, -303, -2005, -1594, 78, 223, -75
0.122717, -303, -2005, -1594, 78, 223, -75
0.122851, -303, -2005, -1594, 78, 223, -75
0.122985, -303, -2005, -1594, 78, 223, -75
0.123119, -303, -2005, -1594, 78, 223, -75
0.123253, -303, -2005, -1594, 78, 223, -75
0.123387, -175, -2059, -1713, -1008, 31, 61
0.123522, -175, -2059, -1713, -1008, 31, 61
0.123656, -175, -2059, -1713, -1008, 31, 61
0.123790, -175, -2059, -1713, -1008, 31, 61
0.123924, -175, -2059, -1713, -1008, 31, 61
0.124058, -175, -2059, -1713, -1008, 31, 61
0.124192, -175, -2059, -1713, -1008, 31, 61
0.124326, -175, -2059, -1713, -1008, 31, 61
0.124461, -107, -2099, -1026, -1984, -95, 150
0.124595, -107, -2099, -1026, -1984, -95, 150
0.124729, -107, -2099, -1026, -1984, -95, 150
0.124863, -107, -2099, -1026, -1984, -95, 150
0.124998, -107, -2099, -1026, -1984, -95, 150
0.125132, -107, -2099, -1026, -1984, -95, 150
0.125266, -107, -2099, -1026, -1984, -95, 150
0.125400, -116, -2055, 1, -2406, -153, 242
0.125534, -116, -2055, 1, -2406, -153, 242
0.125669, -116, -2055, 1, -2406, -153, 242
0.125803, -116, -2055, 1, -2406, -153, 242
0.125942, -116, -2055, 1, -2406, -153, 242
0.126076, -116, -2055, 1, -2406, -153, 242
0.126210, -116, -2055, 1, -2406, -153, 242
0.126344, -116, -2055, 1, -2406, -153, 242
0.126478, -85, -2034, 668, -2420, -43, 322
0.126613, -85, -2034, 668, -2420, -43, 322
0.126747, -85, -2034, 668, -2420, -43, 322
0.126881, -85, -2034, 668, -2420, -43, 322
0.127015, -85, -2034, 668, -2420, -43, 322
0.127149, -85, -2034, 668, -2420, -43, 322
0.127283, -85, -2034, 668, -2420, -43, 322
0.127417, -56, -2044, 1075, -2112, 83, 346
0.127552, -56, -2044, 1075, -2112, 83, 346
0.127686, -56, -2044, 1075, -2112, 83, 346
0.127820, -56, -2044, 1075, -2112, 83, 346
0.127954, -56, -2044, 1075, -2112, 83, 346
0.128088, -56, -2044, 1075, -2112, 83, 346
0.128222, -56, -2044, 1075, -2112, 83, 346
0.128356, -56, -2044, 1075, -2112, 83, 346
0.128491, -59, -2068, 969, -1597, 123, 335
0.128624, -59, -2068, 969, -1597, 123, 335
0.128758, -59, -2068, 969, -1597, 123, 335
0.128892, -59, -2068, 969, -1597, 123, 335
0.129026, -59, -2068, 969, -1597, 123, 335
0.129161, -59, -2068, 969, -1597, 123, 335
0.129294, -59, -2068, 969, -1597, 123, 335
0.129427, -59, -2068, 969, -1597, 123, 335
0.129561, -59, -2090, 977, -1059, 139, 314
0.129695, -59, -2090, 977, -1059, 139, 314
0.129829, -59, -2090, 977, -1059, 139, 314
0.129963, -59, -2090, 977, -1059, 139, 314
0.130097, -59, -2090, 977, -1059, 139, 314
0.130231, -59, -2090, 977, -1059, 139, 314
0.130365, -59, -2090, 977, -1059, 139, 314
0.130499, -3, -2035, 1269, -333, 103, 262
0.130633, -3, -2035, 1269, -333, 103, 262
0.130767, -3, -2035, 1269, -333, 103, 262
0.130901, -3, -2035, 1269, -333, 103, 262
0.131035, -3, -2035, 1269, -333, 103, 262
0.131169, -3, -2035, 1269, -333, 103, 262
0.131303, -3, -2035, 1269, -333, 103, 262
0.131437, -3, -2035, 1269, -333, 103, 262
0.131571, 7, -2064, 884, 387, 112, 158
0.131705, 7, -2064, 884, 387, 112, 158
0.131839, 7, -2064, 884, 387, 112, 158
0.131973, 7, -2064, 884, 387, 112, 158
0.132107, 7, -2064, 884, 387, 112, 158
0.132241, 7, -2064, 884, 387, 112, 158
0.132375, 7, -2064, 884, 387, 112, 158
0.132509, -96, -2148, 742, 876, 207, 74
0.132643, -96, -2148, 742, 876, 207, 74
0.132777, -96, -2148, 742, 876, 207, 74
0.132912, -96, -2148, 742, 876, 207, 74
0.133046, -96, -2148, 742, 876, 207, 74
0.133180, -96, -2148, 742, 876, 207, 74
0.133314, -96, -2148, 742, 876, 207, 74
0.133448, -96, -2148, 742, 876, 207, 74
0.133582, -95, -1996, 1484, 1628, 235, 36
0.133716, -95, -1996, 1484, 1628, 235, 36
0.133851, -95, -1996, 1484, 1628, 235, 36
0.133985, -95, -1996, 1484, 1628, 235, 36
0.134119, -95, -1996, 1484, 1628, 235, 36
0.134254, -95, -1996, 1484, 1628, 235, 36
0.134388, -95, -1996, 1484, 1628, 235, 36
0.134522, -51, -1920, 1461, 2612, 338, -69
0.134657, -51, -1920, 1461, 2612, 338, -69
0.134791, -51, -1920, 1461, 2612, 338, -69
0.134925, -51, -1920, 1461, 2612, 338, -69
0.135059, -51, -1920, 1461, 2612, 338, -69
0.135193, -51, -1920, 1461, 2612, 338, -69
0.135327, -51, -1920, 1461, 2612, 338, -69
0.135461, -51, -1920, 1461, 2612, 338, -69
0.135595, -248, -2133, -266, 2918, 608, -199
0.135730, -248, -2133, -266, 2918, 608, -199
0.135864, -248, -2133, -266, 2918, 608, -199
0.135998, -248, -2133, -266, 2918, 608, -199
0.136132, -248, -2133, -266, 2918, 608, -199
0.136266, -248, -2133, -266, 2918, 608, -199
0.136400, -248, -2133, -266, 2918, 608, -199
0.136535, -421, -2169, -1661, 2280, 675, -167
0.136669, -421, -2169, -1661, 2280, 675, -167
0.136804, -421, -2169, -1661, 2280, 675, -167
0.136937, -421, -2169, -1661, 2280, 675, -167
0.137071, -421, -2169, -1661, 2280, 675, -167
0.137204, -421, -2169, -1661, 2280, 675, -167
0.137338, -421, -2169, -1661, 2280, 675, -167
0.137471, -421, -2169, -1661, 2280, 675, -167
0.137605, -305, -1977, -948, 1646, 407, -35
0.137738, -305, -1977, -948, 1646, 407, -35
0.137872, -305, -1977, -948, 1646, 407, -35
0.138005, -305, -1977, -948, 1646, 407, -35
0.138139, -305, -1977, -948, 1646, 407, -35
0.138272, -305, -1977, -948, 1646, 407, -35
0.138405, -305, -1977, -948, 1646, 407, -35
0.138539, -305, -1977, -948, 1646, 407, -35
0.138678, -212, -1959, -517, 1333, 238, 10
0.138814, -212, -1959, -517, 1333, 238, 10
0.138947, -212, -1959, -517, 1333, 238, 10
0.139081, -212, -1959, -517, 1333, 238, 10
0.139214, -212, -1959, -517, 1333, 238, 10
0.139348, -212, -1959, -517, 1333, 238, 10
0.139481, -212, -1959, -517, 1333, 238, 10
0.139614, -275, -2059, -978, 642, 309, 24
0.139748, -275, -2059, -978, 642, 309, 24
0.139881, -275, -2059, -978, 642, 309, 24
0.140015, -275, -2059, -978, 642, 309, 24
0.140148, -275, -2059, -978, 642, 309, 24
0.140282, -275, -2059, -978, 642, 309, 24
0.140415, -275, -2059, -978, 642, 309, 24
0.140548, -275, -2059, -978, 642, 309, 24
0.140682, -244, -2086, -419, 20, 160, 93
0.140816, -244, -2086, -419, 20, 160, 93
0.140950, -244, -2086, -419, 20, 160, 93
0.141084, -244, -2086, -419, 20, 160, 93
0.141219, -244, -2086, -419, 20, 160, 93
0.141353, -244, -2086, -419, 20, 160, 93
0.141487, -244, -2086, -419, 20, 160, 93
0.141621, -119, -2064, -45, -104, -55, 142
0.141755, -119, -2064, -45, -104, -55, 142
0.141889, -119, -2064, -45, -104, -55, 142
0.142023, -119, -2064, -45, -104, -55, 142
0.142158, -119, -2064, -45, -104, -55, 142
0.142292, -119, -2064, -45, -104, -55, 142
0.142426, -119, -2064, -45, -104, -55, 142
0.142560, -119, -2064, -45, -104, -55, 142
0.142694, -65, -2024, -161, -311, 117, 154
0.142828, -65, -2024, -161, -311, 117, 154
0.142963, -65, -2024, -161, -311, 117, 154
0.143097, -65, -2024, -161, -311, 117, 154
0.143231, -65, -2024, -161, -311, 117, 154
0.143365, -65, -2024, -161, -311, 117, 154
0.143499, -65, -2024, -161, -311, 117, 154
0.143633, -76, -2019, 393, -440, 269, 167
0.143768, -76, -2019, 393, -440, 269, 167
0.143902, -76, -2019, 393, -440, 269, 167
0.144036, -76, -2019, 393, -440, 269, 167
0.144170, -76, -2019, 393, -440, 269, 167
0.144304, -76, -2019, 393, -440, 269, 167
0.144438, -76, -2019, 393, -440, 269, 167
0.144572, -76, -2019, 393, -440, 269, 167
0.144706, -121, -2049, 964, -76, 139, 175
0.144841, -121, -2049, 964, -76, 139, 175
0.144975, -121, -2049, 964, -76, 139, 175
0.145109, -121, -2049, 964, -76, 139, 175
0.145243, -121, -2049, 964, -76, 139, 175
0.145377, -121, -2049, 964, -76, 139, 175
0.145512, -121, -2049, 964, -76, 139, 175
0.145646, -121, -2049, 964, -76, 139, 175
0.145780, -156, -2092, 694, 440, 54, 189
0.145914, -156, -2092, 694, 440, 54, 189
0.146048, -156, -2092, 694, 440, 54, 189
0.146182, -156, -2092, 694, 440, 54, 189
0.146316, -156, -2092, 694, 440, 54, 189
0.146451, -156, -2092, 694, 440, 54, 189
0.146585, -156, -2092, 694, 440, 54, 189
0.146719, -96, -2088, 298, 715, 73, 214
0.146853, -96, -2088, 298, 715, 73, 214
0.146987, -96, -2088, 298, 715, 73, 214
0.147121, -96, -2088, 298, 715, 73, 214
0.147255, -96, -2088, 298, 715, 73, 214
0.147389, -96, -2088, 298, 715, 73, 214
0.147523, -96, -2088, 298, 715, 73, 214
0.147658, -96, -2088, 298, 715, 73, 214
0.147792, -22, -2005, 602, 1022, 33, 195
0.147926, -22, -2005, 602, 1022, 33, 195
0.148060, -22, -2005, 602, 1022, 33, 195
0.148194, -22, -2005, 602, 1022, 33, 195
0.148328, -22, -2005, 602, 1022, 33, 195
0.148462, -22, -2005, 602, 1022, 33, 195
0.148597, -22, -2005, 602, 1022, 33, 195
0.148731, -109, -2025, 193, 1347, 42, 127
0.148865, -109, -2025, 193, 1347, 42, 127
0.148999, -109, -2025, 193, 1347, 42, 127
0.149133, -109, -2025, 193, 1347, 42, 127
0.149267, -109, -2025, 193, 1347, 42, 127
0.149401, -109, -2025, 193, 1347, 42, 127
0.149536, -109, -2025, 193, 1347, 42, 127
0.149670, -109, -2025, 193, 1347, 42, 127
0.149804, -265, -2149, -1173, 988, 210, 110
0.149938, -265, -2149, -1173, 988, 210, 110
0.150072, -265, -2149, -1173, 988, 210, 110
0.150206, -265, -2149, -1173, 988, 210, 110
0.150340, -265, -2149, -1173, 988, 210, 110
0.150474, -265, -2149, -1173, 988, 210, 110
0.150609, -265, -2149, -1173, 988, 210, 110
0.150743, -275, -2081, -1517, 137, 220, 183
0.150877, -275, -2081, -1517, 137, 220, 183
0.151011, -275, -2081, -1517, 137, 220, 183
0.151145, -275, -2081, -1517, 137, 220, 183
0.151279, -275, -2081, -1517, 137, 220, 183
0.151413, -275, -2081, -1517, 137, 220, 183
0.151547, -275, -2081, -1517, 137, 220, 183
0.151681, -275, -2081, -1517, 137, 220, 183
0.151821, -150, -1931, -702, -505, 49, 224
0.151960, -150, -1931, -702, -505, 49, 224
0.152094, -150, -1931, -702, -505, 49, 224
0.152228, -150, -1931, -702, -505, 49, 224
0.152362, -150, -1931, -702, -505, 49, 224
0.152496, -150, -1931, -702, -505, 49, 224
0.152630, -150, -1931, -702, -505, 49, 224
0.152765, -125, -1983, 667, -685, 71, 155
0.152899, -125, -1983, 667, -685, 71, 155
0.153033, -125, -1983, 667, -685, 71, 155
0.153167, -125, -1983, 667, -685, 71, 155
0.153302, -125, -1983, 667, -685, 71, 155
0.153436, -125, -1983, 667, -685, 71, 155
0.153570, -125, -1983, 667, -685, 71, 155
0.153704, -125, -1983, 667, -685, 71, 155
0.153838, -277, -2134, 1581, -206, 216, 78
0.153972, -277, -2134, 1581, -206, 216, 78
0.154106, -277, -2134, 1581, -206, 216, 78
0.154241, -277, -2134, 1581, -206, 216, 78
0.154375, -277, -2134, 1581, -206, 216, 78
0.154509, -277, -2134, 1581, -206, 216, 78
0.154643, -277, -2134, 1581, -206, 216, 78
0.154777, -343, -2163, 713, 371, 300, 77
0.154911, -343, -2163, 713, 371, 300, 77
0.155046, -343, -2163, 713, 371, 300, 77
0.155180, -343, -2163, 713, 371, 300, 77
0.155314, -343, -2163, 713, 371, 300, 77
0.155448, -343, -2163, 713, 371, 300, 77
0.155582, -343, -2163, 713, 371, 300, 77
0.155716, -343, -2163, 713, 371, 300, 77
0.155850, -218, -2050, -73, 453, 300, 100
0.155984, -218, -2050, -73, 453, 300, 100
0.156118, -218, -2050, -73, 453, 300, 100
0.156253, -218, -2050, -73, 453, 300, 100
0.156387, -218, -2050, -73, 453, 300, 100
0.156521, -218, -2050, -73, 453, 300, 100
0.156655, -218, -2050, -73, 453, 300, 100
0.156789, -218, -2050, -73, 453, 300, 100
0.156923, -116, -1973, 534, 660, 178, 75
0.157058, -116, -1973, 534, 660, 178, 75
0.157192, -116, -1973, 534, 660, 178, 75
0.157326, -116, -1973, 534, 660, 178, 75
0.157460, -116, -1973, 534, 660, 178, 75
0.157594, -116, -1973, 534, 660, 178, 75
0.157728, -116, -1973, 534, 660, 178, 75
0.157862, -125, -2016, 43, 972, 131, 23
0.157997, -125, -2016, 43, 972, 131, 23
0.158131, -125, -2016, 43, 972, 131, 23
0.158265, -125, -2016, 43, 972, 131, 23
0.158399, -125, -2016, 43, 972, 131, 23
0.158533, -125, -2016, 43, 972, 131, 23
0.158667, -125, -2016, 43, 972, 131, 23
0.158801, -125, -2016, 43, 972, 131, 23
0.158935, -164, -2122, -1305, 488, 171, 12
0.159070, -164, -2122, -1305, 488, 171, 12
0.159204, -164, -2122, -1305, 488, 171, 12
0.159338, -164, -2122, -1305, 488, 171, 12
0.159472, -164, -2122, -1305, 488, 171, 12
0.159606, -164, -2122, -1305, 488, 171, 12
0.159740, -164, -2122, -1305, 488, 171, 12
0.159874, -155, -2085, -368, -62, 17, 67
0.160009, -155, -2085, -368, -62, 17, 67
0.160143, -155, -2085, -368, -62, 17, 67
0.160277, -155, -2085, -368, -62, 17, 67
0.160411, -155, -2085, -368, -62, 17, 67
0.160545, -155, -2085, -368, -62, 17, 67
0.160679, -155, -2085, -368, -62, 17, 67
0.160814, -155, -2085, -368, -62, 17, 67
0.160948, -87, -1917, 1099, 325, -70, 117
0.161082, -87, -1917, 1099, 325, -70, 117
0.161216, -87, -1917, 1099, 325, -70, 117
0.161350, -87, -1917, 1099, 325, -70, 117
0.161484, -87, -1917, 1099, 325, -70, 117
0.161618, -87, -1917, 1099, 325, -70, 117
0.161752, -87, -1917, 1099, 325, -70, 117
0.161886, -91, -1990, 203, 544, 318, 83
0.162020, -91, -1990, 203, 544, 318, 83
0.162154, -91, -1990, 203, 544, 318, 83
0.162288, -91, -1990, 203, 544, 318, 83
0.162422, -91, -1990, 203, 544, 318, 83
0.162556, -91, -1990, 203, 544, 318, 83
0.162690, -91, -1990, 203, 544, 318, 83
0.162824, -91, -1990, 203, 544, 318, 83
0.162958, -138, -2155, -692, 44, 634, 24
0.163092, -138, -2155, -692, 44, 634, 24
0.163226, -138, -2155, -692, 44, 634, 24
0.163360, -138, -2155, -692, 44, 634, 24
0.163494, -138, -2155, -692, 44, 634, 24
0.163628, -138, -2155, -692, 44, 634, 24
0.163762, -138, -2155, -692, 44, 634, 24
0.163896, -114, -2064, -496, -249, 431, -19
0.164030, -114, -2064, -496, -249, 431, -19
0.164164, -114, -2064, -496, -249, 431, -19
0.164298, -114, -2064, -496, -249, 431, -19
0.164432, -114, -2064, -496, -249, 431, -19
0.164566, -114, -2064, -496, -249, 431, -19
0.164700, -114, -2064, -496, -249, 431, -19
0.164834, -114, -2064, -496, -249, 431, -19
0.164980, -175, -2029, -815, -557, 294, -53
0.165115, -175, -2029, -815, -557, 294, -53
0.165249, -175, -2029, -815, -557, 294, -53
0.165383, -175, -2029, -815, -557, 294, -53
0.165517, -175, -2029, -815, -557, 294, -53
0.165651, -175, -2029, -815, -557, 294, -53
0.165785, -175, -2029, -815, -557, 294, -53
0.165919, -175, -2029, -815, -557, 294, -53
0.166053, -281, -2117, -436, -1120, 335, -11
0.166187, -281, -2117, -436, -1120, 335, -11
0.166321, -281, -2117, -436, -1120, 335, -11
0.166455, -281, -2117, -436, -1120, 335, -11
0.166589, -281, -2117, -436, -1120, 335, -11
0.166723, -281, -2117, -436, -1120, 335, -11
0.166857, -281, -2117, -436, -1120, 335, -11
0.166991, -188, -2015, 494, -1138, 109, 50
0.167125, -188, -2015, 494, -1138, 109, 50
0.167259, -188, -2015, 494, -1138, 109, 50
0.167393, -188, -2015, 494, -1138, 109, 50
0.167527, -188, -2015, 494, -1138, 109, 50
0.167661, -188, -2015, 494, -1138, 109, 50
0.167795, -188, -2015, 494, -1138, 109, 50
0.167929, -188, -2015, 494, -1138, 109, 50
0.168063, -51, -1941, 202, -936, -42, 9
0.168197, -51, -1941, 202, -936, -42, 9
0.168331, -51, -1941, 202, -936, -42, 9
0.168465, -51, -1941, 202, -936, -42, 9
0.168599, -51, -1941, 202, -936, -42, 9
0.168733, -51, -1941, 202, -936, -42, 9
0.168868, -51, -1941, 202, -936, -42, 9
0.169002, -127, -2054, 13, -1048, 133, -58
0.169136, -127, -2054, 13, -1048, 133, -58
0.169270, -127, -2054, 13, -1048, 133, -58
0.169404, -127, -2054, 13, -1048, 133, -58
0.169539, -127, -2054, 13, -1048, 133, -58
0.169673, -127, -2054, 13, -1048, 133, -58
0.169807, -127, -2054, 13, -1048, 133, -58
0.169941, -127, -2054, 13, -1048, 133, -58
0.170075, -249, -2106, 782, -840, 236, -22
0.170209, -249, -2106, 782, -840, 236, -22
0.170344, -249, -2106, 782, -840, 236, -22
0.170478, -249, -2106, 782, -840, 236, -22
0.170612, -249, -2106, 782, -840, 236, -22
0.170746, -249, -2106, 782, -840, 236, -22
0.170880, -249, -2106, 782, -840, 236, -22
0.171014, -204, -2091, 1103, -221, 242, 48
0.171148, -204, -2091, 1103, -221, 242, 48
0.171283, -204, -2091, 1103, -221, 242, 48
0.171417, -204, -2091, 1103, -221, 242, 48
0.171551, -204, -2091, 1103, -221, 242, 48
0.171685, -204, -2091, 1103, -221, 242, 48
0.171819, -204, -2091, 1103, -221, 242, 48
0.171953, -204, -2091, 1103, -221, 242, 48
0.172087, -134, -2088, 939, 302, 307, 44
0.172222, -134, -2088, 939, 302, 307, 44
0.172356, -134, -2088, 939, 302, 307, 44
0.172490, -134, -2088, 939, 302, 307, 44
0.172624, -134, -2088, 939, 302, 307, 44
0.172759, -134, -2088, 939, 302, 307, 44
0.172893, -134, -2088, 939, 302, 307, 44
0.173027, -146, -2009, 1344, 942, 293, 4
0.173161, -146, -2009, 1344, 942, 293, 4
0.173296, -146, -2009, 1344, 942, 293, 4
0.173430, -146, -2009, 1344, 942, 293, 4
0.173564, -146, -2009, 1344, 942, 293, 4
0.173698, -146, -2009, 1344, 942, 293, 4
0.173832, -146, -2009, 1344, 942, 293, 4
0.173966, -146, -2009, 1344, 942, 293, 4
0.174100, -164, -1995, 1200, 1815, 246, -47
0.174235, -164, -1995, 1200, 1815, 246, -47
0.174369, -164, -1995, 1200, 1815, 246, -47
0.174503, -164, -1995, 1200, 1815, 246, -47
0.174637, -164, -1995, 1200, 1815, 246, -47
0.174771, -164, -1995, 1200, 1815, 246, -47
0.174905, -164, -1995, 1200, 1815, 246, -47
0.175039, -164, -1995, 1200, 1815, 246, -47
0.175174, -183, -2116, -146, 2170, 346, -108
0.175308, -183, -2116, -146, 2170, 346, -108
0.175442, -183, -2116, -146, 2170, 346, -108
0.175576, -183, -2116, -146, 2170, 346, -108
0.175710, -183, -2116, -146, 2170, 346, -108
0.175844, -183, -2116, -146, 2170, 346, -108
0.175978, -183, -2116, -146, 2170, 346, -108
0.176113, -125, -2072, -1054, 1843, 391, -132
0.176247, -125, -2072, -1054, 1843, 391, -132
0.176381, -125, -2072, -1054, 1843, 391, -132
0.176515, -125, -2072, -1054, 1843, 391, -132
0.176649, -125, -2072, -1054, 1843, 391, -132
0.176784, -125, -2072, -1054, 1843, 391, -132
0.176918, -125, -2072, -1054, 1843, 391, -132
0.177052, -125, -2072, -1054, 1843, 391, -132
0.177186, -130, -1966, -1147, 1357, 256, -157
0.177320, -130, -1966, -1147, 1357, 256, -157
0.177454, -130, -1966, -1147, 1357, 256, -157
0.177593, -130, -1966, -1147, 1357, 256, -157
0.177728, -130, -1966, -1147, 1357, 256, -157
0.177862, -130, -1966, -1147, 1357, 256, -157
0.177996, -130, -1966, -1147, 1357, 256, -157
0.178130, -263, -2044, -1493, 607, 213, -156
0.178264, -263, -2044, -1493, 607, 213, -156
0.178398, -263, -2044, -1493, 607, 213, -156
0.178533, -263, -2044, -1493, 607, 213, -156
0.178667, -263, -2044, -1493, 607, 213, -156
0.178801, -263, -2044, -1493, 607, 213, -156
0.178935, -263, -2044, -1493, 607, 213, -156
0.179069, -263, -2044, -1493, 607, 213, -156
0.179203, -148, -2092, -2080, -631, 249, -101
0.179338, -148, -2092, -2080, -631, 249, -101
0.179472, -148, -2092, -2080, -631, 249, -101
0.179606, -148, -2092, -2080, -631, 249, -101
0.179740, -148, -2092, -2080, -631, 249, -101
0.179874, -148, -2092, -2080, -631, 249, -101
0.180008, -148, -2092, -2080, -631, 249, -101
0.180143, 18, -2033, -1701, -1943, 144, -122
0.180277, 18, -2033, -1701, -1943, 144, -122
0.180411, 18, -2033, -1701, -1943, 144, -122
0.180545, 18, -2033, -1701, -1943, 144, -122
0.180679, 18, -2033, -1701, -1943, 144, -122
0.180814, 18, -2033, -1701, -1943, 144, -122
0.180948, 18, -2033, -1701, -1943, 144, -122
0.181082, 18, -2033, -1701, -1943, 144, -122
0.181216, -62, -2021, -578, -2773, 56, -189
0.181351, -62, -2021, -578, -2773, 56, -189
0.181485, -62, -2021, -578, -2773, 56, -189
0.181619, -62, -2021, -578, -2773, 56, -189
0.181753, -62, -2021, -578, -2773, 56, -189
0.181887, -62, -2021, -578, -2773, 56, -189
0.182021, -62, -2021, -578, -2773, 56, -189
0.182156, -136, -2049, 159, -3134, 189, -195
0.182290, -136, -2049, 159, -3134, 189, -195
0.182424, -136, -2049, 159, -3134, 189, -195
0.182558, -136, -2049, 159, -3134, 189, -195
0.182693, -136, -2049, 159, -3134, 189, -195
0.182827, -136, -2049, 159, -3134, 189, -195
0.182961, -136, -2049, 159, -3134, 189, -195
0.183095, -136, -2049, 159, -3134, 189, -195
0.183229, -163, -2069, 842, -3111, 319, -174
0.183364, -163, -2069, 842, -3111, 319, -174
0.183498, -163, -2069, 842, -3111, 319, -174
0.183632, -163, -2069, 842, -3111, 319, -174
0.183766, -163, -2069, 842, -3111, 319, -174
0.183900, -163, -2069, 842, -3111, 319, -174
0.184034, -163, -2069, 842, -3111, 319, -174
0.184168, -177, -2063, 1572, -2507, 242, -154
0.184303, -177, -2063, 1572, -2507, 242, -154
0.184437, -177, -2063, 1572, -2507, 242, -154
0.184571, -177, -2063, 1572, -2507, 242, -154
0.184705, -177, -2063, 1572, -2507, 242, -154
0.184840, -177, -2063, 1572, -2507, 242, -154
0.184974, -177, -2063, 1572, -2507, 242, -154
0.185108, -177, -2063, 1572, -2507, 242, -154
0.185242, -134, -2059, 1668, -1536, 155, -144
0.185376, -134, -2059, 1668, -1536, 155, -144
0.185511, -134, -2059, 1668, -1536, 155, -144
0.185645, -134, -2059, 1668, -1536, 155, -144
0.185779, -134, -2059, 1668, -1536, 155, -144
0.185913, -134, -2059, 1668, -1536, 155, -144
0.186047, -134, -2059, 1668, -1536, 155, -144
0.186181, -134, -2059, 1668, -1536, 155, -144
0.186316, -116, -2107, 1300, -644, 164, -154
0.186450, -116, -2107, 1300, -644, 164, -154
0.186584, -116, -2107, 1300, -644, 164, -154
0.186718, -116, -2107, 1300, -644, 164, -154
0.186852, -116, -2107, 1300, -644, 164, -154
0.186987, -116, -2107, 1300, -644, 164, -154
0.187121, -116, -2107, 1300, -644, 164, -154
0.187255, -107, -2105, 1386, 213, 114, -162
0.187389, -107, -2105, 1386, 213, 114, -162
0.187523, -107, -2105, 1386, 213, 114, -162
0.187657, -107, -2105, 1386, 213, 114, -162
0.187792, -107, -2105, 1386, 213, 114, -162
0.187926, -107, -2105, 1386, 213, 114, -162
0.188060, -107, -2105, 1386, 213, 114, -162
0.188194, -107, -2105, 1386, 213, 114, -162
0.188328, -6, -1988, 1976, 1395, 50, -186
0.188462, -6, -1988, 1976, 1395, 50, -186
0.188597, -6, -1988, 1976, 1395, 50, -186
0.188731, -6, -1988, 1976, 1395, 50, -186
0.188865, -6, -1988, 1976, 1395, 50, -186
0.188999, -6, -1988, 1976, 1395, 50, -186
0.189134, -6, -1988, 1976, 1395, 50, -186
0.189268, 44, -2027, 1715, 2621, 196, -300
0.189402, 44, -2027, 1715, 2621, 196, -300
0.189536, 44, -2027, 1715, 2621, 196, -300
0.189670, 44, -2027, 1715, 2621, 196, -300
0.189805, 44, -2027, 1715, 2621, 196, -300
0.189943, 44, -2027, 1715, 2621, 196, -300
0.190078, 44, -2027, 1715, 2621, 196, -300
0.190212, 44, -2027, 1715, 2621, 196, -300
0.190346, -60, -2155, 1017, 3435, 485, -443
0.190480, -60, -2155, 1017, 3435, 485, -443
0.190614, -60, -2155, 1017, 3435, 485, -443
0.190749, -60, -2155, 1017, 3435, 485, -443
0.190883, -60, -2155, 1017, 3435, 485, -443
0.191017, -60, -2155, 1017, 3435, 485, -443
0.191151, -60, -2155, 1017, 3435, 485, -443
0.191285, -86, -2039, 681, 4067, 613, -531
0.191419, -86, -2039, 681, 4067, 613, -531
0.191553, -86, -2039, 681, 4067, 613, -531
0.191688, -86, -2039, 681, 4067, 613, -531
0.191822, -86, -2039, 681, 4067, 613, -531
0.191956, -86, -2039, 681, 4067, 613, -531
0.192090, -86, -2039, 681, 4067, 613, -531
0.192224, -86, -2039, 681, 4067, 613, -531
0.192358, -117, -2007, -467, 4302, 678, -621
0.192492, -117, -2007, -467, 4302, 678, -621
0.192627, -117, -2007, -467, 4302, 678, -621
0.192761, -117, -2007, -467, 4302, 678, -621
0.192895, -117, -2007, -467, 4302, 678, -621
0.193030, -117, -2007, -467, 4302, 678, -621
0.193163, -117, -2007, -467, 4302, 678, -621
0.193297, -306, -2080, -1421, 3684, 800, -657
0.193430, -306, -2080, -1421, 3684, 800, -657
0.193564, -306, -2080, -1421, 3684, 800, -657
0.193697, -306, -2080, -1421, 3684, 800, -657
0.193830, -306, -2080, -1421, 3684, 800, -657
0.193964, -306, -2080, -1421, 3684, 800, -657
0.194097, -306, -2080, -1421, 3684, 800, -657
0.194231, -306, -2080, -1421, 3684, 800, -657
0.194364, -392, -2000, -810, 3002, 667, -580
0.194498, -392, -2000, -810, 3002, 667, -580
0.194631, -392, -2000, -810, 3002, 667, -580
0.194764, -392, -2000, -810, 3002, 667, -580
0.194898, -392, -2000, -810, 3002, 667, -580
0.195031, -392, -2000, -810, 3002, 667, -580
0.195164, -392, -2000, -810, 3002, 667, -580
0.195298, -392, -2000, -810, 3002, 667, -580
0.195431, -356, -2007, -873, 2589, 418, -503
0.195565, -356, -2007, -873, 2589, 418, -503
0.195698, -356, -2007, -873, 2589, 418, -503
0.195832, -356, -2007, -873, 2589, 418, -503
0.195965, -356, -2007, -873, 2589, 418, -503
0.196098, -356, -2007, -873, 2589, 418, -503
0.196232, -356, -2007, -873, 2589, 418, -503
0.196365, -327, -2056, -1503, 1677, 377, -436
0.196499, -327, -2056, -1503, 1677, 377, -436
0.196632, -327, -2056, -1503, 1677, 377, -436
0.196767, -327, -2056, -1503, 1677, 377, -436
0.196901, -327, -2056, -1503, 1677, 377, -436
0.197035, -327, -2056, -1503, 1677, 377, -436
0.197169, -327, -2056, -1503, 1677, 377, -436
0.197303, -327, -2056, -1503, 1677, 377, -436
0.197437, -160, -2014, -1145, 750, 255, -352
0.197572, -160, -2014, -1145, 750, 255, -352
0.197706, -160, -2014, -1145, 750, 255, -352
0.197840, -160, -2014, -1145, 750, 255, -352
0.197974, -160, -2014, -1145, 750, 255, -352
0.198108, -160, -2014, -1145, 750, 255, -352
0.198242, -160, -2014, -1145, 750, 255, -352
0.198376, 28, -2049, -1507, -55, 98, -355
0.198511, 28, -2049, -1507, -55, 98, -355
0.198645, 28, -2049, -1507, -55, 98, -355
0.198779, 28, -2049, -1507, -55, 98, -355
0.198913, 28, -2049, -1507, -55, 98, -355
0.199047, 28, -2049, -1507, -55, 98, -355
0.199181, 28, -2049, -1507, -55, 98, -355
0.199315, 28, -2049, -1507, -55, 98, -355
0.199449, -76, -2100, -1334, -1150, 141, -374
0.199584, -76, -2100, -1334, -1150, 141, -374
0.199718, -76, -2100, -1334, -1150, 141, -374
0.199852, -76, -2100, -1334, -1150, 141, -374
0.199986, -76, -2100, -1334, -1150, 141, -374
0.200120, -76, -2100, -1334, -1150, 141, -374
0.200254, -76, -2100, -1334, -1150, 141, -374
0.200388, -189, -2057, 372, -1550, 52, -254
0.200523, -189, -2057, 372, -1550, 52, -254
0.200657, -189, -2057, 372, -1550, 52, -254
0.200791, -189, -2057, 372, -1550, 52, -254
0.200926, -189, -2057, 372, -1550, 52, -254
0.201060, -189, -2057, 372, -1550, 52, -254
0.201194, -189, -2057, 372, -1550, 52, -254
0.201328, -189, -2057, 372, -1550, 52, -254
0.201462, -48, -2002, 532, -1314, -22, -131
0.201596, -48, -2002, 532, -1314, -22, -131
0.201730, -48, -2002, 532, -1314, -22, -131
0.201865, -48, -2002, 532, -1314, -22, -131
0.201999, -48, -2002, 532, -1314, -22, -131
0.202133, -48, -2002, 532, -1314, -22, -131
0.202272, -48, -2002, 532, -1314, -22, -131
0.202406, -48, -2002, 532, -1314, -22, -131
0.202541, 42, -2031, -721, -1622, 126, -127
0.202675, 42, -2031, -721, -1622, 126, -127
0.202809, 42, -2031, -721, -1622, 126, -127
0.202943, 42, -2031, -721, -1622, 126, -127
0.203077, 42, -2031, -721, -1622, 126, -127
0.203211, 42, -2031, -721, -1622, 126, -127
0.203346, 42, -2031, -721, -1622, 126, -127
0.203480, -52, -2116, -715, -2187, 101, -138
0.203614, -52, -2116, -715, -2187, 101, -138
0.203748, -52, -2116, -715, -2187, 101, -138
0.203882, -52, -2116, -715, -2187, 101, -138
0.204016, -52, -2116, -715, -2187, 101, -138
0.204151, -52, -2116, -715, -2187, 101, -138
0.204285, -52, -2116, -715, -2187, 101, -138
0.204419, -52, -2116, -715, -2187, 101, -138
0.204553, -130, -2130, 437, -2177, -45, -88
0.204687, -130, -2130, 437, -2177, -45, -88
0.204822, -130, -2130, 437, -2177, -45, -88
0.204956, -130, -2130, 437, -2177, -45, -88
0.205090, -130, -2130, 437, -2177, -45, -88
0.205224, -130, -2130, 437, -2177, -45, -88
0.205359, -130, -2130, 437, -2177, -45, -88
0.205493, -78, -2061, 1290, -1688, 22, -51
0.205627, -78, -2061, 1290, -1688, 22, -51
0.205761, -78, -2061, 1290, -1688, 22, -51
0.205895, -78, -2061, 1290, -1688, 22, -51
0.206030, -78, -2061, 1290, -1688, 22, -51
0.206164, -78, -2061, 1290, -1688, 22, -51
0.206298, -78, -2061, 1290, -1688, 22, -51
0.206432, -78, -2061, 1290, -1688, 22, -51
0.206566, -19, -2037, 1397, -1054, 183, -117
0.206700, -19, -2037, 1397, -1054, 183, -117
0.206834, -19, -2037, 1397, -1054, 183, -117
0.206969, -19, -2037, 1397, -1054, 183, -117
0.207103, -19, -2037, 1397, -1054, 183, -117
0.207237, -19, -2037, 1397, -1054, 183, -117
0.207371, -19, -2037, 1397, -1054, 183, -117
0.207505, -65, -2079, 951, -464, 261, -246
0.207639, -65, -2079, 951, -464, 261, -246
0.207774, -65, -2079, 951, -464, 261, -246
0.207908, -65, -2079, 951, -464, 261, -246
0.208042, -65, -2079, 951, -464, 261, -246
0.208176, -65, -2079, 951, -464, 261, -246
0.208310, -65, -2079, 951, -464, 261, -246
0.208444, -65, -2079, 951, -464, 261, -246
0.208578, -135, -2063, 1016, 122, 330, -343
0.208713, -135, -2063, 1016, 122, 330, -343
0.208847, -135, -2063, 1016, 122, 330, -343
0.208981, -135, -2063, 1016, 122, 330, -343
0.209115, -135, -2063, 1016, 122, 330, -343
0.209250, -135, -2063, 1016, 122, 330, -343
0.209384, -135, -2063, 1016, 122, 330, -343
0.209518, -176, -2000, 1372, 947, 421, -408
0.209652, -176, -2000, 1372, 947, 421, -408
0.209786, -176, -2000, 1372, 947, 421, -408
0.209921, -176, -2000, 1372, 947, 421, -408
0.210055, -176, -2000, 1372, 947, 421, -408
0.210189, -176, -2000, 1372, 947, 421, -408
0.210323, -176, -2000, 1372, 947, 421, -408
0.210458, -176, -2000, 1372, 947, 421, -408
0.210592, -256, -2050, 608, 1559, 517, -465
0.210727, -256, -2050, 608, 1559, 517, -465
0.210861, -256, -2050, 608, 1559, 517, -465
0.210996, -256, -2050, 608, 1559, 517, -465
0.211130, -256, -2050, 608, 1559, 517, -465
0.211264, -256, -2050, 608, 1559, 517, -465
0.211398, -256, -2050, 608, 1559, 517, -465
0.211532, -256, -2050, 608, 1559, 517, -465
0.211667, -268, -2090, 66, 1715, 514, -461
0.211801, -268, -2090, 66, 1715, 514, -461
0.211935, -268, -2090, 66, 1715, 514, -461
0.212069, -268, -2090, 66, 1715, 514, -461
0.212203, -268, -2090, 66, 1715, 514, -461
0.212338, -268, -2090, 66, 1715, 514, -461
0.212472, -268, -2090, 66, 1715, 514, -461
0.212606, -102, -2053, -174, 1871, 383, -452
0.212740, -102, -2053, -174, 1871, 383, -452
0.212879, -102, -2053, -174, 1871, 383, -452
0.213014, -102, -2053, -174, 1871, 383, -452
0.213148, -102, -2053, -174, 1871, 383, -452
0.213282, -102, -2053, -174, 1871, 383, -452
0.213416, -102, -2053, -174, 1871, 383, -452
0.213550, -102, -2053, -174, 1871, 383, -452
0.213684, -112, -2118, -644, 1694, 428, -502
0.213818, -112, -2118, -644, 1694, 428, -502
0.213952, -112, -2118, -644, 1694, 428, -502
0.214087, -112, -2118, -644, 1694, 428, -502
0.214221, -112, -2118, -644, 1694, 428, -502
0.214355, -112, -2118, -644, 1694, 428, -502
0.214489, -112, -2118, -644, 1694, 428, -502
0.214623, -240, -2082, 435, 1545, 517, -480
0.214768, -240, -2082, 435, 1545, 517, -480
0.214903, -240, -2082, 435, 1545, 517, -480
0.215037, -240, -2082, 435, 1545, 517, -480
0.215171, -240, -2082, 435, 1545, 517, -480
0.215305, -240, -2082, 435, 1545, 517, -480
0.215439, -240, -2082, 435, 1545, 517, -480
0.215573, -240, -2082, 435, 1545, 517, -480
0.215707, -136, -1978, 1098, 2029, 466, -446
0.215841, -136, -1978, 1098, 2029, 466, -446
0.215975, -136, -1978, 1098, 2029, 466, -446
0.216109, -136, -1978, 1098, 2029, 466, -446
0.216243, -136, -1978, 1098, 2029, 466, -446
0.216377, -136, -1978, 1098, 2029, 466, -446
0.216511, -136, -1978, 1098, 2029, 466, -446
0.216645, -168, -2031, 286, 2278, 605, -497
0.216780, -168, -2031, 286, 2278, 605, -497
0.216914, -168, -2031, 286, 2278, 605, -497
0.217048, -168, -2031, 286, 2278, 605, -497
0.217183, -168, -2031, 286, 2278, 605, -497
0.217317, -168, -2031, 286, 2278, 605, -497
0.217451, -168, -2031, 286, 2278, 605, -497
0.217585, -168, -2031, 286, 2278, 605, -497
0.217719, -319, -2040, 61, 2220, 700, -462
0.217853, -319, -2040, 61, 2220, 700, -462
0.217987, -319, -2040, 61, 2220, 700, -462
0.218121, -319, -2040, 61, 2220, 700, -462
0.218255, -319, -2040, 61, 2220, 700, -462
0.218389, -319, -2040, 61, 2220, 700, -462
0.218519, -319, -2040, 61, 2220, 700, -462
0.218654, -235, -1969, -135, 2268, 546, -358
0.218788, -235, -1969, -135, 2268, 546, -358
0.218923, -235, -1969, -135, 2268, 546, -358
0.219057, -235, -1969, -135, 2268, 546, -358
0.219191, -235, -1969, -135, 2268, 546, -358
0.219325, -235, -1969, -135, 2268, 546, -358
0.219459, -235, -1969, -135, 2268, 546, -358
0.219593, -235, -1969, -135, 2268, 546, -358
0.219727, -165, -2039, -715, 2023, 446, -309
0.219862, -165, -2039, -715, 2023, 446, -309
0.219996, -165, -2039, -715, 2023, 446, -309
0.220130, -165, -2039, -715, 2023, 446, -309
0.220264, -165, -2039, -715, 2023, 446, -309
0.220398, -165, -2039, -715, 2023, 446, -309
0.220532, -165, -2039, -715, 2023, 446, -309
0.220667, -217, -2114, -869, 1541, 317, -241
0.220801, -217, -2114, -869, 1541, 317, -241
0.220936, -217, -2114, -869, 1541, 317, -241
0.221070, -217, -2114, -869, 1541, 317, -241
0.221204, -217, -2114, -869, 1541, 317, -241
0.221338, -217, -2114, -869, 1541, 317, -241
0.221472, -217, -2114, -869, 1541, 317, -241
0.221606, -217, -2114, -869, 1541, 317, -241
0.221741, -140, -2062, -1580, 925, 125, -132
0.221875, -140, -2062, -1580, 925, 125, -132
0.222009, -140, -2062, -1580, 925, 125, -132
0.222143, -140, -2062, -1580, 925, 125, -132
0.222277, -140, -2062, -1580, 925, 125, -132
0.222412, -140, -2062, -1580, 925, 125, -132
0.222546, -140, -2062, -1580, 925, 125, -132
0.222680, -140, -2062, -1580, 925, 125, -132
0.222814, -25, -2061, -2709, -418, 103, -73
0.222948, -25, -2061, -2709, -418, 103, -73
0.223083, -25, -2061, -2709, -418, 103, -73
0.223217, -25, -2061, -2709, -418, 103, -73
0.223351, -25, -2061, -2709, -418, 103, -73
0.223485, -25, -2061, -2709, -418, 103, -73
0.223619, -25, -2061, -2709, -418, 103, -73
0.223754, -25, -2078, -2109, -2061, 107, -48
0.223888, -25, -2078, -2109, -2061, 107, -48
0.224022, -25, -2078, -2109, -2061, 107, -48
0.224156, -25, -2078, -2109, -2061, 107, -48
0.224290, -25, -2078, -2109, -2061, 107, -48
0.224424, -25, -2078, -2109, -2061, 107, -48
0.224559, -25, -2078, -2109, -2061, 107, -48
0.224693, -25, -2078, -2109, -2061, 107, -48
0.224827, -47, -2034, -620, -2990, 35, -20
0.224962, -47, -2034, -620, -2990, 35, -20
0.225096, -47, -2034, -620, -2990, 35, -20
0.225230, -47, -2034, -620, -2990, 35, -20
0.225364, -47, -2034, -620, -2990, 35, -20
0.225499, -47, -2034, -620, -2990, 35, -20
0.225633, -47, -2034, -620, -2990, 35, -20
0.225767, -75, -2018, 7, -3433, 128, -18
0.225901, -75, -2018, 7, -3433, 128, -18
0.226035, -75, -2018, 7, -3433, 128, -18
0.226169, -75, -2018, 7, -3433, 128, -18
0.226304, -75, -2018, 7, -3433, 128, -18
0.226438, -75, -2018, 7, -3433, 128, -18
0.226572, -75, -2018, 7, -3433, 128, -18
0.226706, -75, -2018, 7, -3433, 128, -18
0.226840, -121, -2052, 434, -3661, 248, -35
0.226974, -121, -2052, 434, -3661, 248, -35
0.227109, -121, -2052, 434, -3661, 248, -35
0.227250, -121, -2052, 434, -3661, 248, -35
0.227385, -121, -2052, 434, -3661, 248, -35
0.227519, -121, -2052, 434, -3661, 248, -35
0.227653, -121, -2052, 434, -3661, 248, -35
0.227787, -113, -2062, 1062, -3375, 193, -51
0.227922, -113, -2062, 1062, -3375, 193, -51
0.228056, -113, -2062, 1062, -3375, 193, -51
0.228190, -113, -2062, 1062, -3375, 193, -51
0.228324, -113, -2062, 1062, -3375, 193, -51
0.228458, -113, -2062, 1062, -3375, 193, -51
0.228593, -113, -2062, 1062, -3375, 193, -51
0.228727, -113, -2062, 1062, -3375, 193, -51
0.228862, -83, -2054, 1380, -2677, 157, -83
0.228996, -83, -2054, 1380, -2677, 157, -83
0.229130, -83, -2054, 1380, -2677, 157, -83
0.229264, -83, -2054, 1380, -2677, 157, -83
0.229398, -83, -2054, 1380, -2677, 157, -83
0.229533, -83, -2054, 1380, -2677, 157, -83
0.229667, -83, -2054, 1380, -2677, 157, -83
0.229801, -69, -2101, 1370, -1897, 176, -122
0.229935, -69, -2101, 1370, -1897, 176, -122
0.230069, -69, -2101, 1370, -1897, 176, -122
0.230203, -69, -2101, 1370, -1897, 176, -122
0.230337, -69, -2101, 1370, -1897, 176, -122
0.230471, -69, -2101, 1370, -1897, 176, -122
0.230606, -69, -2101, 1370, -1897, 176, -122
0.230740, -69, -2101, 1370, -1897, 176, -122
0.230874, -9, -2125, 1718, -974, 122, -159
0.231008, -9, -2125, 1718, -974, 122, -159
0.231142, -9, -2125, 1718, -974, 122, -159
0.231276, -9, -2125, 1718, -974, 122, -159
0.231410, -9, -2125, 1718, -974, 122, -159
0.231545, -9, -2125, 1718, -974, 122, -159
0.231679, -9, -2125, 1718, -974, 122, -159
0.231813, 88, -1972, 2706, 466, 94, -242
0.231947, 88, -1972, 2706, 466, 94, -242
0.232082, 88, -1972, 2706, 466, 94, -242
0.232216, 88, -1972, 2706, 466, 94, -242
0.232350, 88, -1972, 2706, 466, 94, -242
0.232484, 88, -1972, 2706, 466, 94, -242
0.232618, 88, -1972, 2706, 466, 94, -242
0.232752, 88, -1972, 2706, 466, 94, -242
0.232887, 91, -1932, 2614, 2215, 310, -405
0.233021, 91, -1932, 2614, 2215, 310, -405
0.233155, 91, -1932, 2614, 2215, 310, -405
0.233289, 91, -1932, 2614, 2215, 310, -405
0.233423, 91, -1932, 2614, 2215, 310, -405
0.233557, 91, -1932, 2614, 2215, 310, -405
0.233692, 91, -1932, 2614, 2215, 310, -405
0.233826, 91, -1932, 2614, 2215, 310, -405
0.233964, -75, -2156, 918, 3238, 718, -568
0.234101, -75, -2156, 918, 3238, 718, -568
0.234236, -75, -2156, 918, 3238, 718, -568
0.234370, -75, -2156, 918, 3238, 718, -568
0.234505, -75, -2156, 918, 3238, 718, -568
0.234639, -75, -2156, 918, 3238, 718, -568
0.234775, -75, -2156, 918, 3238, 718, -568
0.234916, -219, -2142, 540, 3740, 887, -612
0.235060, -219, -2142, 540, 3740, 887, -612
0.235199, -219, -2142, 540, 3740, 887, -612
0.235336, -219, -2142, 540, 3740, 887, -612
0.235471, -219, -2142, 540, 3740, 887, -612
0.235606, -219, -2142, 540, 3740, 887, -612
0.235741, -219, -2142, 540, 3740, 887, -612
0.235875, -260, -2047, 722, 4538, 813, -585
0.236010, -260, -2047, 722, 4538, 813, -585
0.236145, -260, -2047, 722, 4538, 813, -585
0.236280, -260, -2047, 722, 4538, 813, -585
0.236415, -260, -2047, 722, 4538, 813, -585
0.236555, -260, -2047, 722, 4538, 813, -585
0.236690, -260, -2047, 722, 4538, 813, -585
0.236825, -260, -2047, 722, 4538, 813, -585
0.236960, -339, -2130, -669, 4657, 931, -561
0.237095, -339, -2130, -669, 4657, 931, -561
0.237229, -339, -2130, -669, 4657, 931, -561
0.237363, -339, -2130, -669, 4657, 931, -561
0.237497, -339, -2130, -669, 4657, 931, -561
0.237631, -339, -2130, -669, 4657, 931, -561
0.237765, -339, -2130, -669, 4657, 931, -561
0.237899, -340, -2040, -1171, 3900, 904, -506
0.238033, -340, -2040, -1171, 3900, 904, -506
0.238168, -340, -2040, -1171, 3900, 904, -506
0.238302, -340, -2040, -1171, 3900, 904, -506
0.238437, -340, -2040, -1171, 3900, 904, -506
0.238571, -340, -2040, -1171, 3900, 904, -506
0.238705, -340, -2040, -1171, 3900, 904, -506
0.238839, -340, -2040, -1171, 3900, 904, -506
0.238973, -219, -1881, -382, 3495, 538, -475
0.239107, -219, -1881, -382, 3495, 538, -475
0.239241, -219, -1881, -382, 3495, 538, -475
0.239375, -219, -1881, -382, 3495, 538, -475
0.239510, -219, -1881, -382, 3495, 538, -475
0.239644, -219, -1881, -382, 3495, 538, -475
0.239801, -219, -1881, -382, 3495, 538, -475
0.239938, -283, -1993, -717, 3219, 485, -475
0.240073, -283, -1993, -717, 3219, 485, -475
0.240208, -283, -1993, -717, 3219, 485, -475
0.240342, -283, -1993, -717, 3219, 485, -475
0.240476, -283, -1993, -717, 3219, 485, -475
0.240610, -283, -1993, -717, 3219, 485, -475
0.240754, -283, -1993, -717, 3219, 485, -475
0.240889, -283, -1993, -717, 3219, 485, -475
0.241023, -384, -2180, -1968, 2212, 624, -371
0.241160, -384, -2180, -1968, 2212, 624, -371
0.241297, -384, -2180, -1968, 2212, 624, -371
0.241432, -384, -2180, -1968, 2212, 624, -371
0.241567, -384, -2180, -1968, 2212, 624, -371
0.241701, -384, -2180, -1968, 2212, 624, -371
0.241836, -384, -2180, -1968, 2212, 624, -371
0.241970, -173, -2100, -2471, 800, 349, -221
0.242105, -173, -2100, -2471, 800, 349, -221
0.242239, -173, -2100, -2471, 800, 349, -221
0.242374, -173, -2100, -2471, 800, 349, -221
0.242508, -173, -2100, -2471, 800, 349, -221
0.242644, -173, -2100, -2471, 800, 349, -221
0.242779, -173, -2100, -2471, 800, 349, -221
0.242916, -173, -2100, -2471, 800, 349, -221
0.243051, 5, -2007, -2193, -564, -43, -170
0.243185, 5, -2007, -2193, -564, -43, -170
0.243319, 5, -2007, -2193, -564, -43, -170
0.243453, 5, -2007, -2193, -564, -43, -170
0.243587, 5, -2007, -2193, -564, -43, -170
0.243721, 5, -2007, -2193, -564, -43, -170
0.243855, 5, -2007, -2193, -564, -43, -170
0.243989, -50, -2044, -1424, -1822, -131, -134
0.244123, -50, -2044, -1424, -1822, -131, -134
0.244258, -50, -2044, -1424, -1822, -131, -134
0.244392, -50, -2044, -1424, -1822, -131, -134
0.244526, -50, -2044, -1424, -1822, -131, -134
0.244654, -50, -2044, -1424, -1822, -131, -134
0.244786, -50, -2044, -1424, -1822, -131, -134
0.244916, -50, -2044, -1424, -1822, -131, -134
0.245052, -87, -2047, -505, -2693, -168, -48
0.245186, -87, -2047, -505, -2693, -168, -48
0.245320, -87, -2047, -505, -2693, -168, -48
0.245454, -87, -2047, -505, -2693, -168, -48
0.245588, -87, -2047, -505, -2693, -168, -48
0.245722, -87, -2047, -505, -2693, -168, -48
0.245856, -87, -2047, -505, -2693, -168, -48
0.245990, -87, -2047, -505, -2693, -168, -48
0.246124, -67, -2044, 231, -3033, -252, 25
0.246258, -67, -2044, 231, -3033, -252, 25
0.246392, -67, -2044, 231, -3033, -252, 25
0.246526, -67, -2044, 231, -3033, -252, 25
0.246660, -67, -2044, 231, -3033, -252, 25
0.246794, -67, -2044, 231, -3033, -252, 25
0.246928, -67, -2044, 231, -3033, -252, 25
0.247062, -49, -2040, 980, -2880, -174, 72
0.247196, -49, -2040, 980, -2880, -174, 72
0.247330, -49, -2040, 980, -2880, -174, 72
0.247464, -49, -2040, 980, -2880, -174, 72
0.247598, -49, -2040, 980, -2880, -174, 72
0.247732, -49, -2040, 980, -2880, -174, 72
0.247866, -49, -2040, 980, -2880, -174, 72
0.248000, -49, -2040, 980, -2880, -174, 72
0.248134, -21, -2023, 1598, -2282, 30, 87
0.248268, -21, -2023, 1598, -2282, 30, 87
0.248402, -21, -2023, 1598, -2282, 30, 87
0.248536, -21, -2023, 1598, -2282, 30, 87
0.248670, -21, -2023, 1598, -2282, 30, 87
0.248804, -21, -2023, 1598, -2282, 30, 87
0.248938, -21, -2023, 1598, -2282, 30, 87
0.249072, -10, -2029, 1721, -1382, 167, 41
0.249206, -10, -2029, 1721, -1382, 167, 41
0.249340, -10, -2029, 1721, -1382, 167, 41
0.249474, -10, -2029, 1721, -1382, 167, 41
0.249608, -10, -2029, 1721, -1382, 167, 41
0.249742, -10, -2029, 1721, -1382, 167, 41
0.249876, -10, -2029, 1721, -1382, 167, 41
0.250010, -10, -2029, 1721, -1382, 167, 41
0.250144, -48, -2098, 1093, -562, 188, -35
0.250278, -48, -2098, 1093, -562, 188, -35
0.250412, -48, -2098, 1093, -562, 188, -35
0.250546, -48, -2098, 1093, -562, 188, -35
0.250680, -48, -2098, 1093, -562, 188, -35
0.250809, -48, -2098, 1093, -562, 188, -35
0.250944, -48, -2098, 1093, -562, 188, -35
0.251080, -21, -2124, 972, 78, 173, -83
0.251215, -21, -2124, 972, 78, 173, -83
0.251349, -21, -2124, 972, 78, 173, -83
0.251483, -21, -2124, 972, 78, 173, -83
0.251617, -21, -2124, 972, 78, 173, -83
0.251751, -21, -2124, 972, 78, 173, -83
0.251885, -21, -2124, 972, 78, 173, -83
0.252019, -21, -2124, 972, 78, 173, -83
0.252153, 67, -2003, 1911, 1111, 191, -160
0.252312, 67, -2003, 1911, 1111, 191, -160
0.252447, 67, -2003, 1911, 1111, 191, -160
0.252581, 67, -2003, 1911, 1111, 191, -160
0.252715, 67, -2003, 1911, 1111, 191, -160
0.252850, 67, -2003, 1911, 1111, 191, -160
0.252984, 67, -2003, 1911, 1111, 191, -160
0.253118, -62, -2033, 1267, 2250, 414, -298
0.253252, -62, -2033, 1267, 2250, 414, -298
0.253386, -62, -2033, 1267, 2250, 414, -298
0.253520, -62, -2033, 1267, 2250, 414, -298
0.253654, -62, -2033, 1267, 2250, 414, -298
0.253787, -62, -2033, 1267, 2250, 414, -298
0.253921, -62, -2033, 1267, 2250, 414, -298
0.254055, -62, -2033, 1267, 2250, 414, -298
0.254189, -293, -2190, -790, 2354, 745, -343
0.254323, -293, -2190, -790, 2354, 745, -343
0.254457, -293, -2190, -790, 2354, 745, -343
0.254591, -293, -2190, -790, 2354, 745, -343
0.254725, -293, -2190, -790, 2354, 745, -343
0.254859, -293, -2190, -790, 2354, 745, -343
0.254993, -293, -2190, -790, 2354, 745, -343
0.255127, -234, -2080, -1095, 1802, 748, -279
0.255261, -234, -2080, -1095, 1802, 748, -279
0.255395, -234, -2080, -1095, 1802, 748, -279
0.255529, -234, -2080, -1095, 1802, 748, -279
0.255663, -234, -2080, -1095, 1802, 748, -279
0.255797, -234, -2080, -1095, 1802, 748, -279
0.255931, -234, -2080, -1095, 1802, 748, -279
0.256065, -234, -2080, -1095, 1802, 748, -279
0.256199, -104, -1956, -667, 1466, 627, -296
0.256333, -104, -1956, -667, 1466, 627, -296
0.256467, -104, -1956, -667, 1466, 627, -296
0.256601, -104, -1956, -667, 1466, 627, -296
0.256735, -104, -1956, -667, 1466, 627, -296
0.256869, -104, -1956, -667, 1466, 627, -296
0.257003, -104, -1956, -667, 1466, 627, -296
0.257137, -104, -1956, -667, 1466, 627, -296
0.257271, -239, -2019, -809, 887, 750, -365
0.257405, -239, -2019, -809, 887, 750, -365
0.257539, -239, -2019, -809, 887, 750, -365
0.257673, -239, -2019, -809, 887, 750, -365
0.257807, -239, -2019, -809, 887, 750, -365
0.257941, -239, -2019, -809, 887, 750, -365
0.258075, -239, -2019, -809, 887, 750, -365
0.258209, -348, -1996, -90, 323, 692, -334
0.258339, -348, -1996, -90, 323, 692, -334
0.258475, -348, -1996, -90, 323, 692, -334
0.258609, -348, -1996, -90, 323, 692, -334
0.258743, -348, -1996, -90, 323, 692, -334
0.258877, -348, -1996, -90, 323, 692, -334
0.259011, -348, -1996, -90, 323, 692, -334
0.259145, -348, -1996, -90, 323, 692, -334
0.259279, -263, -1961, 646, 443, 427, -273
0.259413, -263, -1961, 646, 443, 427, -273
0.259547, -263, -1961, 646, 443, 427, -273
0.259677, -263, -1961, 646, 443, 427, -273
0.259815, -263, -1961, 646, 443, 427, -273
0.259949, -263, -1961, 646, 443, 427, -273
0.260083, -263, -1961, 646, 443, 427, -273
0.260217, -194, -2074, 156, 586, 453, -254
0.260350, -194, -2074, 156, 586, 453, -254
0.260484, -194, -2074, 156, 586, 453, -254
0.260617, -194, -2074, 156, 586, 453, -254
0.260757, -194, -2074, 156, 586, 453, -254
0.260892, -194, -2074, 156, 586, 453, -254
0.261026, -194, -2074, 156, 586, 453, -254
0.261160, -194, -2074, 156, 586, 453, -254
0.261294, -145, -2134, -31, 476, 510, -216
0.261428, -145, -2134, -31, 476, 510, -216
0.261562, -145, -2134, -31, 476, 510, -216
0.261696, -145, -2134, -31, 476, 510, -216
0.261830, -145, -2134, -31, 476, 510, -216
0.261964, -145, -2134, -31, 476, 510, -216
0.262098, -145, -2134, -31, 476, 510, -216
0.262232, -83, -2064, 359, 698, 290, -166
0.262366, -83, -2064, 359, 698, 290, -166
0.262500, -83, -2064, 359, 698, 290, -166
0.262634, -83, -2064, 359, 698, 290, -166
0.262767, -83, -2064, 359, 698, 290, -166
0.262901, -83, -2064, 359, 698, 290, -166
0.263035, -83, -2064, 359, 698, 290, -166
0.263169, -83, -2064, 359, 698, 290, -166
0.263303, -88, -2064, -566, 765, 153, -134
0.263437, -88, -2064, -566, 765, 153, -134
0.263571, -88, -2064, -566, 765, 153, -134
0.263705, -88, -2064, -566, 765, 153, -134
0.263839, -88, -2064, -566, 765, 153, -134
0.263973, -88, -2064, -566, 765, 153, -134
0.264107, -88, -2064, -566, 765, 153, -134
0.264241, -88, -2064, -566, 765, 153, -134
0.264374, -143, -2140, -1264, 82, 138, -59
0.264509, -143, -2140, -1264, 82, 138, -59
0.264643, -143, -2140, -1264, 82, 138, -59
0.264777, -143, -2140, -1264, 82, 138, -59
0.264928, -143, -2140, -1264, 82, 138, -59
0.265063, -143, -2140, -1264, 82, 138, -59
0.265197, -143, -2140, -1264, 82, 138, -59
0.265331, -91, -2112, 23, -274, -41, 57
0.265466, -91, -2112, 23, -274, -41, 57
0.265600, -91, -2112, 23, -274, -41, 57
0.265734, -91, -2112, 23, -274, -41, 57
0.265868, -91, -2112, 23, -274, -41, 57
0.266002, -91, -2112, 23, -274, -41, 57
0.266136, -91, -2112, 23, -274, -41, 57
0.266271, 10, -2015, 340, -79, -38, 95
0.266405, 10, -2015, 340, -79, -38, 95
0.266539, 10, -2015, 340, -79, -38, 95
0.266673, 10, -2015, 340, -79, -38, 95
0.266807, 10, -2015, 340, -79, -38, 95
0.266941, 10, -2015, 340, -79, -38, 95
0.267076, 10, -2015, 340, -79, -38, 95
0.267210, 10, -2015, 340, -79, -38, 95
0.267344, -63, -2022, -505, -413, 283, 73
0.267478, -63, -2022, -505, -413, 283, 73
0.267612, -63, -2022, -505, -413, 283, 73
0.267747, -63, -2022, -505, -413, 283, 73
0.267881, -63, -2022, -505, -413, 283, 73
0.268015, -63, -2022, -505, -413, 283, 73
0.268149, -63, -2022, -505, -413, 283, 73
0.268283, -63, -2022, -505, -413, 283, 73
0.268417, -138, -2061, -19, -787, 343, 87
0.268551, -138, -2061, -19, -787, 343, 87
0.268685, -138, -2061, -19, -787, 343, 87
0.268820, -138, -2061, -19, -787, 343, 87
0.268954, -138, -2061, -19, -787, 343, 87
0.269088, -138, -2061, -19, -787, 343, 87
0.269222, -138, -2061, -19, -787, 343, 87
0.269357, -59, -1999, 770, -517, 221, 68
0.269491, -59, -1999, 770, -517, 221, 68
0.269625, -59, -1999, 770, -517, 221, 68
0.269759, -59, -1999, 770, -517, 221, 68
0.269893, -59, -1999, 770, -517, 221, 68
0.270027, -59, -1999, 770, -517, 221, 68
0.270161, -59, -1999, 770, -517, 221, 68
0.270295, -59, -1999, 770, -517, 221, 68
0.270429, -40, -1972, 857, -117, 304, -31
0.270564, -40, -1972, 857, -117, 304, -31
0.270698, -40, -1972, 857, -117, 304, -31
0.270832, -40, -1972, 857, -117, 304, -31
0.270966, -40, -1972, 857, -117, 304, -31
0.271100, -40, -1972, 857, -117, 304, -31
0.271234, -40, -1972, 857, -117, 304, -31
0.271368, -95, -2067, 337, 106, 311, -124
0.271503, -95, -2067, 337, 106, 311, -124
0.271637, -95, -2067, 337, 106, 311, -124
0.271771, -95, -2067, 337, 106, 311, -124
0.271905, -95, -2067, 337, 106, 311, -124
0.272039, -95, -2067, 337, 106, 311, -124
0.272174, -95, -2067, 337, 106, 311, -124
0.272308, -95, -2067, 337, 106, 311, -124
0.272442, -79, -2111, -212, 121, 142, -168
0.272576, -79, -2111, -212, 121, 142, -168
0.272710, -79, -2111, -212, 121, 142, -168
0.272845, -79, -2111, -212, 121, 142, -168
0.272979, -79, -2111, -212, 121, 142, -168
0.273113, -79, -2111, -212, 121, 142, -168
0.273247, -79, -2111, -212, 121, 142, -168
0.273381, -64, -2047, 637, 330, 50, -186
0.273516, -64, -2047, 637, 330, 50, -186
0.273650, -64, -2047, 637, 330, 50, -186
0.273784, -64, -2047, 637, 330, 50, -186
0.273918, -64, -2047, 637, 330, 50, -186
0.274052, -64, -2047, 637, 330, 50, -186
0.274186, -64, -2047, 637, 330, 50, -186
0.274321, -64, -2047, 637, 330, 50, -186
0.274455, -132, -2042, 1347, 1023, 166, -198
0.274589, -132, -2042, 1347, 1023, 166, -198
0.274723, -132, -2042, 1347, 1023, 166, -198
0.274857, -132, -2042, 1347, 1023, 166, -198
0.274991, -132, -2042, 1347, 1023, 166, -198
0.275120, -132, -2042, 1347, 1023, 166, -198
0.275256, -132, -2042, 1347, 1023, 166, -198
0.275391, -132, -2042, 1347, 1023, 166, -198
0.275527, -161, -2142, 589, 1514, 385, -202
0.275662, -161, -2142, 589, 1514, 385, -202
0.275796, -161, -2142, 589, 1514, 385, -202
0.275930, -161, -2142, 589, 1514, 385, -202
0.276064, -161, -2142, 589, 1514, 385, -202
0.276198, -161, -2142, 589, 1514, 385, -202
0.276332, -161, -2142, 589, 1514, 385, -202
0.276466, -125, -2145, 172, 1698, 399, -213
0.276601, -125, -2145, 172, 1698, 399, -213
0.276730, -125, -2145, 172, 1698, 399, -213
0.276865, -125, -2145, 172, 1698, 399, -213
0.276999, -125, -2145, 172, 1698, 399, -213
0.277133, -125, -2145, 172, 1698, 399, -213
0.277267, -125, -2145, 172, 1698, 399, -213
0.277401, -125, -2145, 172, 1698, 399, -213
0.277535, -125, -2004, 136, 1952, 317, -237
0.277670, -125, -2004, 136, 1952, 317, -237
0.277804, -125, -2004, 136, 1952, 317, -237
0.277947, -125, -2004, 136, 1952, 317, -237
0.278082, -125, -2004, 136, 1952, 317, -237
0.278216, -125, -2004, 136, 1952, 317, -237
0.278350, -125, -2004, 136, 1952, 317, -237
0.278484, -133, -1978, -441, 1846, 423, -254
0.278619, -133, -1978, -441, 1846, 423, -254
0.278753, -133, -1978, -441, 1846, 423, -254
0.278887, -133, -1978, -441, 1846, 423, -254
0.279021, -133, -1978, -441, 1846, 423, -254
0.279155, -133, -1978, -441, 1846, 423, -254
0.279289, -133, -1978, -441, 1846, 423, -254
0.279424, -133, -1978, -441, 1846, 423, -254
0.279558, -171, -2095, -745, 1309, 444, -258
0.279692, -171, -2095, -745, 1309, 444, -258
0.279826, -171, -2095, -745, 1309, 444, -258
0.279960, -171, -2095, -745, 1309, 444, -258
0.280095, -171, -2095, -745, 1309, 444, -258
0.280229, -171, -2095, -745, 1309, 444, -258
0.280363, -171, -2095, -745, 1309, 444, -258
0.280497, -193, -2071, -105, 1007, 231, -221
0.280631, -193, -2071, -105, 1007, 231, -221
0.280766, -193, -2071, -105, 1007, 231, -221
0.280900, -193, -2071, -105, 1007, 231, -221
0.281034, -193, -2071, -105, 1007, 231, -221
0.281168, -193, -2071, -105, 1007, 231, -221
0.281302, -193, -2071, -105, 1007, 231, -221
0.281437, -193, -2071, -105, 1007, 231, -221
0.281571, -99, -1890, 1180, 1319, 131, -180
0.281705, -99, -1890, 1180, 1319, 131, -180
0.281839, -99, -1890, 1180, 1319, 131, -180
0.281973, -99, -1890, 1180, 1319, 131, -180
0.282107, -99, -1890, 1180, 1319, 131, -180
0.282242, -99, -1890, 1180, 1319, 131, -180
0.282376, -99, -1890, 1180, 1319, 131, -180
0.282510, -60, -1935, 1073, 1937, 302, -209
0.282644, -60, -1935, 1073, 1937, 302, -209
0.282778, -60, -1935, 1073, 1937, 302, -209
0.282913, -60, -1935, 1073, 1937, 302, -209
0.283047, -60, -1935, 1073, 1937, 302, -209
0.283181, -60, -1935, 1073, 1937, 302, -209
0.283315, -60, -1935, 1073, 1937, 302, -209
0.283449, -60, -1935, 1073, 1937, 302, -209
0.283583, -213, -2224, -1487, 1703, 492, -230
0.283718, -213, -2224, -1487, 1703, 492, -230
0.283852, -213, -2224, -1487, 1703, 492, -230
0.283986, -213, -2224, -1487, 1703, 492, -230
0.284120, -213, -2224, -1487, 1703, 492, -230
0.284254, -213, -2224, -1487, 1703, 492, -230
0.284388, -213, -2224, -1487, 1703, 492, -230
0.284523, -335, -2243, -2932, 338, 317, -80
0.284657, -335, -2243, -2932, 338, 317, -80
0.284792, -335, -2243, -2932, 338, 317, -80
0.284926, -335, -2243, -2932, 338, 317, -80
0.285060, -335, -2243, -2932, 338, 317, -80
0.285194, -335, -2243, -2932, 338, 317, -80
0.285328, -335, -2243, -2932, 338, 317, -80
0.285462, -335, -2243, -2932, 338, 317, -80
0.285597, -185, -1996, -1578, -806, -126, 155
0.285731, -185, -1996, -1578, -806, -126, 155
0.285865, -185, -1996, -1578, -806, -126, 155
0.285999, -185, -1996, -1578, -806, -126, 155
0.286134, -185, -1996, -1578, -806, -126, 155
0.286268, -185, -1996, -1578, -806, -126, 155
0.286402, -185, -1996, -1578, -806, -126, 155
0.286536, -185, -1996, -1578, -806, -126, 155
0.286670, -27, -1943, -186, -1362, -248, 238
0.286805, -27, -1943, -186, -1362, -248, 238
0.286939, -27, -1943, -186, -1362, -248, 238
0.287073, -27, -1943, -186, -1362, -248, 238
0.287207, -27, -1943, -186, -1362, -248, 238
0.287341, -27, -1943, -186, -1362, -248, 238
0.287475, -27, -1943, -186, -1362, -248, 238
0.287610, -52, -2036, 783, -1630, -126, 201
0.287744, -52, -2036, 783, -1630, -126, 201
0.287878, -52, -2036, 783, -1630, -126, 201
0.288012, -52, -2036, 783, -1630, -126, 201
0.288147, -52, -2036, 783, -1630, -126, 201
0.288281, -52, -2036, 783, -1630, -126, 201
0.288415, -52, -2036, 783, -1630, -126, 201
0.288549, -52, -2036, 783, -1630, -126, 201
0.288683, 2, -2011, 1990, -1063, -133, 150
0.288818, 2, -2011, 1990, -1063, -133, 150
0.288952, 2, -2011, 1990, -1063, -133, 150
0.289086, 2, -2011, 1990, -1063, -133, 150
0.289220, 2, -2011, 1990, -1063, -133, 150
0.289355, 2, -2011, 1990, -1063, -133, 150
0.289489, 2, -2011, 1990, -1063, -133, 150
0.289623, 40, -2001, 1870, 76, 74, 38
0.289757, 40, -2001, 1870, 76, 74, 38
0.289892, 40, -2001, 1870, 76, 74, 38
0.290026, 40, -2001, 1870, 76, 74, 38
0.290160, 40, -2001, 1870, 76, 74, 38
0.290294, 40, -2001, 1870, 76, 74, 38
0.290433, 40, -2001, 1870, 76, 74, 38
0.290567, 40, -2001, 1870, 76, 74, 38
0.290701, -157, -2127, 249, 589, 495, -47
0.290836, -157, -2127, 249, 589, 495, -47
0.290970, -157, -2127, 249, 589, 495, -47
0.291104, -157, -2127, 249, 589, 495, -47
0.291238, -157, -2127, 249, 589, 495, -47
0.291372, -157, -2127, 249, 589, 495, -47
0.291507, -157, -2127, 249, 589, 495, -47
0.291641, -242, -2163, -241, 544, 449, 11
0.291775, -242, -2163, -241, 544, 449, 11
0.291909, -242, -2163, -241, 544, 449, 11
0.292043, -242, -2163, -241, 544, 449, 11
0.292178, -242, -2163, -241, 544, 449, 11
0.292312, -242, -2163, -241, 544, 449, 11
0.292446, -242, -2163, -241, 544, 449, 11
0.292580, -242, -2163, -241, 544, 449, 11
0.292714, -52, -1977, 1046, 1063, -2, 66
0.292849, -52, -1977, 1046, 1063, -2, 66
0.292983, -52, -1977, 1046, 1063, -2, 66
0.293118, -52, -1977, 1046, 1063, -2, 66
0.293252, -52, -1977, 1046, 1063, -2, 66
0.293386, -52, -1977, 1046, 1063, -2, 66
0.293520, -52, -1977, 1046, 1063, -2, 66
0.293654, -24, -1922, 1041, 1876, -87, -9
0.293789, -24, -1922, 1041, 1876, -87, -9
0.293923, -24, -1922, 1041, 1876, -87, -9
0.294057, -24, -1922, 1041, 1876, -87, -9
0.294191, -24, -1922, 1041, 1876, -87, -9
0.294325, -24, -1922, 1041, 1876, -87, -9
0.294459, -24, -1922, 1041, 1876, -87, -9
0.294594, -24, -1922, 1041, 1876, -87, -9
0.294728, -189, -2101, -365, 1882, 203, -61
0.294862, -189, -2101, -365, 1882, 203, -61
0.294997, -189, -2101, -365, 1882, 203, -61
0.295131, -189, -2101, -365, 1882, 203, -61
0.295265, -189, -2101, -365, 1882, 203, -61
0.295399, -189, -2101, -365, 1882, 203, -61
0.295533, -189, -2101, -365, 1882, 203, -61
0.295667, -169, -2148, -849, 1467, 277, -14
0.295802, -169, -2148, -849, 1467, 277, -14
0.295936, -169, -2148, -849, 1467, 277, -14
0.296070, -169, -2148, -849, 1467, 277, -14
0.296204, -169, -2148, -849, 1467, 277, -14
0.296338, -169, -2148, -849, 1467, 277, -14
0.296472, -169, -2148, -849, 1467, 277, -14
0.296607, -169, -2148, -849, 1467, 277, -14
0.296741, -87, -2080, -890, 1107, 315, 5
0.296882, -87, -2080, -890, 1107, 315, 5
0.297016, -87, -2080, -890, 1107, 315, 5
0.297150, -87, -2080, -890, 1107, 315, 5
0.297284, -87, -2080, -890, 1107, 315, 5
0.297418, -87, -2080, -890, 1107, 315, 5
0.297552, -87, -2080, -890, 1107, 315, 5
0.297686, -87, -2080, -890, 1107, 315, 5
0.297820, -147, -2018, -183, 645, 558, -6
0.297955, -147, -2018, -183, 645, 558, -6
0.298089, -147, -2018, -183, 645, 558, -6
0.298223, -147, -2018, -183, 645, 558, -6
0.298357, -147, -2018, -183, 645, 558, -6
0.298491, -147, -2018, -183, 645, 558, -6
0.298625, -147, -2018, -183, 645, 558, -6
0.298760, -182, -1913, 1225, 779, 558, -20
0.298894, -182, -1913, 1225, 779, 558, -20
0.299028, -182, -1913, 1225, 779, 558, -20
0.299162, -182, -1913, 1225, 779, 558, -20
0.299296, -182, -1913, 1225, 779, 558, -20
0.299430, -182, -1913, 1225, 779, 558, -20
0.299564, -182, -1913, 1225, 779, 558, -20
0.299698, -182, -1913, 1225, 779, 558, -20
0.299833, -233, -1969, 206, 1158, 425, -75
0.299967, -233, -1969, 206, 1158, 425, -75
0.300101, -233, -1969, 206, 1158, 425, -75
0.300235, -233, -1969, 206, 1158, 425, -75
0.300369, -233, -1969, 206, 1158, 425, -75
0.300503, -233, -1969, 206, 1158, 425, -75
0.300638, -233, -1969, 206, 1158, 425, -75
0.300772, -347, -2180, -2191, 369, 413, -56
0.300906, -347, -2180, -2191, 369, 413, -56
0.301039, -347, -2180, -2191, 369, 413, -56
0.301173, -347, -2180, -2191, 369, 413, -56
0.301306, -347, -2180, -2191, 369, 413, -56
0.301440, -347, -2180, -2191, 369, 413, -56
0.301573, -347, -2180, -2191, 369, 413, -56
0.301707, -347, -2180, -2191, 369, 413, -56
0.301840, -266, -2168, -1882, -844, 129, 105
0.301974, -266, -2168, -1882, -844, 129, 105
0.302107, -266, -2168, -1882, -844, 129, 105
0.302240, -266, -2168, -1882, -844, 129, 105
0.302374, -266, -2168, -1882, -844, 129, 105
0.302507, -266, -2168, -1882, -844, 129, 105
0.302641, -266, -2168, -1882, -844, 129, 105
0.302774, -83, -2012, -575, -1345, -219, 241
0.302908, -83, -2012, -575, -1345, -219, 241
0.303042, -83, -2012, -575, -1345, -219, 241
0.303175, -83, -2012, -575, -1345, -219, 241
0.303313, -83, -2012, -575, -1345, -219, 241
0.303447, -83, -2012, -575, -1345, -219, 241
0.303581, -83, -2012, -575, -1345, -219, 241
0.303714, -83, -2012, -575, -1345, -219, 241
0.303848, -91, -2023, -595, -1863, -160, 294
0.303981, -91, -2023, -595, -1863, -160, 294
0.304115, -91, -2023, -595, -1863, -160, 294
0.304248, -91, -2023, -595, -1863, -160, 294
0.304382, -91, -2023, -595, -1863, -160, 294
0.304515, -91, -2023, -595, -1863, -160, 294
0.304649, -91, -2023, -595, -1863, -160, 294
0.304778, -91, -2023, -595, -1863, -160, 294
0.304913, -128, -2085, -462, -2530, -121, 353
0.305048, -128, -2085, -462, -2530, -121, 353
0.305182, -128, -2085, -462, -2530, -121, 353
0.305317, -128, -2085, -462, -2530, -121, 353
0.305451, -128, -2085, -462, -2530, -121, 353
0.305585, -128, -2085, -462, -2530, -121, 353
0.305719, -128, -2085, -462, -2530, -121, 353
0.305853, -58, -2055, 86, -2711, -202, 406
0.305988, -58, -2055, 86, -2711, -202, 406
0.306122, -58, -2055, 86, -2711, -202, 406
0.306256, -58, -2055, 86, -2711, -202, 406
0.306390, -58, -2055, 86, -2711, -202, 406
0.306525, -58, -2055, 86, -2711, -202, 406
0.306659, -58, -2055, 86, -2711, -202, 406
0.306793, -58, -2055, 86, -2711, -202, 406
0.306927, -29, -2027, 446, -2628, 54, 424
0.307061, -29, -2027, 446, -2628, 54, 424
0.307196, -29, -2027, 446, -2628, 54, 424
0.307330, -29, -2027, 446, -2628, 54, 424
0.307464, -29, -2027, 446, -2628, 54, 424
0.307598, -29, -2027, 446, -2628, 54, 424
0.307732, -29, -2027, 446, -2628, 54, 424
0.307867, -31, -2054, 1017, -2392, 380, 418
0.308001, -31, -2054, 1017, -2392, 380, 418
0.308135, -31, -2054, 1017, -2392, 380, 418
0.308269, -31, -2054, 1017, -2392, 380, 418
0.308404, -31, -2054, 1017, -2392, 380, 418
0.308538, -31, -2054, 1017, -2392, 380, 418
0.308672, -31, -2054, 1017, -2392, 380, 418
0.308806, -31, -2054, 1017, -2392, 380, 418
0.308941, -5, -2067, 1564, -1689, 391, 362
0.309075, -5, -2067, 1564, -1689, 391, 362
0.309209, -5, -2067, 1564, -1689, 391, 362
0.309343, -5, -2067, 1564, -1689, 391, 362
0.309477, -5, -2067, 1564, -1689, 391, 362
0.309612, -5, -2067, 1564, -1689, 391, 362
0.309746, -5, -2067, 1564, -1689, 391, 362
0.309880, 6, -2074, 1374, -781, 321, 250
0.310014, 6, -2074, 1374, -781, 321, 250
0.310149, 6, -2074, 1374, -781, 321, 250
0.310283, 6, -2074, 1374, -781, 321, 250
0.310417, 6, -2074, 1374, -781, 321, 250
0.310551, 6, -2074, 1374, -781, 321, 250
0.310685, 6, -2074, 1374, -781, 321, 250
0.310819, 6, -2074, 1374, -781, 321, 250
0.310954, 21, -2067, 1061, -64, 333, 126
0.311088, 21, -2067, 1061, -64, 333, 126
0.311222, 21, -2067, 1061, -64, 333, 126
0.311356, 21, -2067, 1061, -64, 333, 126
0.311491, 21, -2067, 1061, -64, 333, 126
0.311625, 21, -2067, 1061, -64, 333, 126
0.311759, 21, -2067, 1061, -64, 333, 126
0.311893, -5, -2019, 1171, 650, 335, 5
0.312028, -5, -2019, 1171, 650, 335, 5
0.312162, -5, -2019, 1171, 650, 335, 5
0.312296, -5, -2019, 1171, 650, 335, 5
0.312430, -5, -2019, 1171, 650, 335, 5
0.312565, -5, -2019, 1171, 650, 335, 5
0.312699, -5, -2019, 1171, 650, 335, 5
0.312833, -5, -2019, 1171, 650, 335, 5
0.312967, -99, -2056, 1471, 1498, 375, -91
0.313101, -99, -2056, 1471, 1498, 375, -91
0.313234, -99, -2056, 1471, 1498, 375, -91
0.313368, -99, -2056, 1471, 1498, 375, -91
0.313501, -99, -2056, 1471, 1498, 375, -91
0.313635, -99, -2056, 1471, 1498, 375, -91
0.313768, -99, -2056, 1471, 1498, 375, -91
0.313901, -99, -2056, 1471, 1498, 375, -91
0.314035, -63, -2097, 1882, 2564, 483, -154
0.314168, -63, -2097, 1882, 2564, 483, -154
0.314302, -63, -2097, 1882, 2564, 483, -154
0.314435, -63, -2097, 1882, 2564, 483, -154
0.314569, -63, -2097, 1882, 2564, 483, -154
0.314702, -63, -2097, 1882, 2564, 483, -154
0.314836, -63, -2097, 1882, 2564, 483, -154
0.314969, -68, -2093, 1261, 3628, 592, -260
0.315103, -68, -2093, 1261, 3628, 592, -260
0.315236, -68, -2093, 1261, 3628, 592, -260
0.315370, -68, -2093, 1261, 3628, 592, -260
0.315503, -68, -2093, 1261, 3628, 592, -260
0.315636, -68, -2093, 1261, 3628, 592, -260
0.315770, -68, -2093, 1261, 3628, 592, -260
0.315903, -68, -2093, 1261, 3628, 592, -260
0.316052, -352, -2124, -363, 3931, 698, -313
0.316186, -352, -2124, -363, 3931, 698, -313
0.316320, -352, -2124, -363, 3931, 698, -313
0.316453, -352, -2124, -363, 3931, 698, -313
0.316587, -352, -2124, -363, 3931, 698, -313
0.316720, -352, -2124, -363, 3931, 698, -313
0.316855, -352, -2124, -363, 3931, 698, -313
0.316989, -450, -2035, -1071, 3500, 653, -175
0.317124, -450, -2035, -1071, 3500, 653, -175
0.317258, -450, -2035, -1071, 3500, 653, -175
0.317392, -450, -2035, -1071, 3500, 653, -175
0.317526, -450, -2035, -1071, 3500, 653, -175
0.317660, -450, -2035, -1071, 3500, 653, -175
0.317794, -450, -2035, -1071, 3500, 653, -175
0.317929, -450, -2035, -1071, 3500, 653, -175
0.318063, -187, -1891, -321, 3162, 453, -39
0.318197, -187, -1891, -321, 3162, 453, -39
0.318331, -187, -1891, -321, 3162, 453, -39
0.318465, -187, -1891, -321, 3162, 453, -39
0.318599, -187, -1891, -321, 3162, 453, -39
0.318734, -187, -1891, -321, 3162, 453, -39
0.318868, -187, -1891, -321, 3162, 453, -39
0.319002, -164, -1986, 120, 3122, 383, -58
0.319136, -164, -1986, 120, 3122, 383, -58
0.319270, -164, -1986, 120, 3122, 383, -58
0.319404, -164, -1986, 120, 3122, 383, -58
0.319539, -164, -1986, 120, 3122, 383, -58
0.319673, -164, -1986, 120, 3122, 383, -58
0.319807, -164, -1986, 120, 3122, 383, -58
0.319941, -164, -1986, 120, 3122, 383, -58
0.320075, -459, -2172, -641, 2795, 431, -18
0.320210, -459, -2172, -641, 2795, 431, -18
0.320344, -459, -2172, -641, 2795, 431, -18
0.320478, -459, -2172, -641, 2795, 431, -18
0.320612, -459, -2172, -641, 2795, 431, -18
0.320747, -459, -2172, -641, 2795, 431, -18
0.320881, -459, -2172, -641, 2795, 431, -18
0.321015, -392, -2092, -941, 2226, 306, 193
0.321149, -392, -2092, -941, 2226, 306, 193
0.321284, -392, -2092, -941, 2226, 306, 193
0.321418, -392, -2092, -941, 2226, 306, 193
0.321552, -392, -2092, -941, 2226, 306, 193
0.321686, -392, -2092, -941, 2226, 306, 193
0.321820, -392, -2092, -941, 2226, 306, 193
0.321954, -392, -2092, -941, 2226, 306, 193
0.322088, -79, -1954, -1138, 1682, 144, 312
0.322222, -79, -1954, -1138, 1682, 144, 312
0.322357, -79, -1954, -1138, 1682, 144, 312
0.322491, -79, -1954, -1138, 1682, 144, 312
0.322625, -79, -1954, -1138, 1682, 144, 312
0.322759, -79, -1954, -1138, 1682, 144, 312
0.322893, -79, -1954, -1138, 1682, 144, 312
0.323027, -79, -1954, -1138, 1682, 144, 312
0.323161, -78, -2017, -1637, 721, 158, 285
0.323295, -78, -2017, -1637, 721, 158, 285
0.323429, -78, -2017, -1637, 721, 158, 285
0.323563, -78, -2017, -1637, 721, 158, 285
0.323692, -78, -2017, -1637, 721, 158, 285
0.323827, -78, -2017, -1637, 721, 158, 285
0.323961, -78, -2017, -1637, 721, 158, 285
0.324095, -171, -2125, -1515, -406, 12, 319
0.324229, -171, -2125, -1515, -406, 12, 319
0.324363, -171, -2125, -1515, -406, 12, 319
0.324498, -171, -2125, -1515, -406, 12, 319
0.324632, -171, -2125, -1515, -406, 12, 319
0.324766, -171, -2125, -1515, -406, 12, 319
0.324900, -171, -2125, -1515, -406, 12, 319
0.325033, -171, -2125, -1515, -406, 12, 319
0.325167, -135, -2117, -1423, -1332, -265, 416
0.325300, -135, -2117, -1423, -1332, -265, 416
0.325434, -135, -2117, -1423, -1332, -265, 416
0.325567, -135, -2117, -1423, -1332, -265, 416
0.325701, -135, -2117, -1423, -1332, -265, 416
0.325834, -135, -2117, -1423, -1332, -265, 416
0.325968, -135, -2117, -1423, -1332, -265, 416
0.326101, -85, -2055, -1106, -2250, -313, 501
0.326235, -85, -2055, -1106, -2250, -313, 501
0.326368, -85, -2055, -1106, -2250, -313, 501
0.326502, -85, -2055, -1106, -2250, -313, 501
0.326635, -85, -2055, -1106, -2250, -313, 501
0.326769, -85, -2055, -1106, -2250, -313, 501
0.326902, -85, -2055, -1106, -2250, -313, 501
0.327035, -85, -2055, -1106, -2250, -313, 501
0.327169, -63, -2040, -228, -2881, -240, 554
0.327302, -63, -2040, -228, -2881, -240, 554
0.327436, -63, -2040, -228, -2881, -240, 554
0.327569, -63, -2040, -228, -2881, -240, 554
0.327703, -63, -2040, -228, -2881, -240, 554
0.327836, -63, -2040, -228, -2881, -240, 554
0.327969, -63, -2040, -228, -2881, -240, 554
0.328103, -50, -2050, 466, -3020, -146, 566
0.328237, -50, -2050, 466, -3020, -146, 566
0.328376, -50, -2050, 466, -3020, -146, 566
0.328510, -50, -2050, 466, -3020, -146, 566
0.328643, -50, -2050, 466, -3020, -146, 566
0.328778, -50, -2050, 466, -3020, -146, 566
0.328912, -50, -2050, 466, -3020, -146, 566
0.329046, -50, -2050, 466, -3020, -146, 566
0.329181, -1, -2056, 1136, -2774, -22, 537
0.329315, -1, -2056, 1136, -2774, -22, 537
0.329449, -1, -2056, 1136, -2774, -22, 537
0.329583, -1, -2056, 1136, -2774, -22, 537
0.329718, -1, -2056, 1136, -2774, -22, 537
0.329852, -1, -2056, 1136, -2774, -22, 537
0.329986, -1, -2056, 1136, -2774, -22, 537
0.330120, -1, -2056, 1136, -2774, -22, 537
0.330254, 89, -2028, 2185, -1947, 55, 444
0.330389, 89, -2028, 2185, -1947, 55, 444
0.330523, 89, -2028, 2185, -1947, 55, 444
0.330657, 89, -2028, 2185, -1947, 55, 444
0.330791, 89, -2028, 2185, -1947, 55, 444
0.330925, 89, -2028, 2185, -1947, 55, 444
0.331060, 89, -2028, 2185, -1947, 55, 444
0.331194, 124, -2018, 2770, -489, 139, 282
0.331328, 124, -2018, 2770, -489, 139, 282
0.331462, 124, -2018, 2770, -489, 139, 282
0.331596, 124, -2018, 2770, -489, 139, 282
0.331731, 124, -2018, 2770, -489, 139, 282
0.331865, 124, -2018, 2770, -489, 139, 282
0.331999, 124, -2018, 2770, -489, 139, 282
0.332133, 124, -2018, 2770, -489, 139, 282
0.332267, 83, -2117, 1892, 931, 290, 101
0.332402, 83, -2117, 1892, 931, 290, 101
0.332536, 83, -2117, 1892, 931, 290, 101
0.332670, 83, -2117, 1892, 931, 290, 101
0.332805, 83, -2117, 1892, 931, 290, 101
0.332939, 83, -2117, 1892, 931, 290, 101
0.333073, 83, -2117, 1892, 931, 290, 101
0.333207, 50, -2159, 902, 1823, 359, -41
0.333341, 50, -2159, 902, 1823, 359, -41
0.333476, 50, -2159, 902, 1823, 359, -41
0.333610, 50, -2159, 902, 1823, 359, -41
0.333744, 50, -2159, 902, 1823, 359, -41
0.333878, 50, -2159, 902, 1823, 359, -41
0.334012, 50, -2159, 902, 1823, 359, -41
0.334146, 50, -2159, 902, 1823, 359, -41
0.334281, 45, -2027, 995, 2645, 298, -145
0.334415, 45, -2027, 995, 2645, 298, -145
0.334549, 45, -2027, 995, 2645, 298, -145
0.334683, 45, -2027, 995, 2645, 298, -145
0.334817, 45, -2027, 995, 2645, 298, -145
0.334951, 45, -2027, 995, 2645, 298, -145
0.335086, 45, -2027, 995, 2645, 298, -145
0.335220, -15, -2006, 581, 3321, 403, -243
0.335354, -15, -2006, 581, 3321, 403, -243
0.335488, -15, -2006, 581, 3321, 403, -243
0.335622, -15, -2006, 581, 3321, 403, -243
0.335756, -15, -2006, 581, 3321, 403, -243
0.335891, -15, -2006, 581, 3321, 403, -243
0.336025, -15, -2006, 581, 3321, 403, -243
0.336159, -15, -2006, 581, 3321, 403, -243
0.336293, -162, -2067, 188, 3460, 644, -295
0.336427, -162, -2067, 188, 3460, 644, -295
0.336561, -162, -2067, 188, 3460, 644, -295
0.336696, -162, -2067, 188, 3460, 644, -295
0.336830, -162, -2067, 188, 3460, 644, -295
0.336964, -162, -2067, 188, 3460, 644, -295
0.337098, -162, -2067, 188, 3460, 644, -295
0.337232, -209, -2004, 844, 3785, 679, -286
0.337367, -209, -2004, 844, 3785, 679, -286
0.337501, -209, -2004, 844, 3785, 679, -286
0.337635, -209, -2004, 844, 3785, 679, -286
0.337769, -209, -2004, 844, 3785, 679, -286
0.337903, -209, -2004, 844, 3785, 679, -286
0.338038, -209, -2004, 844, 3785, 679, -286
0.338172, -209, -2004, 844, 3785, 679, -286
0.338306, -186, -1928, 459, 4296, 757, -299
0.338440, -186, -1928, 459, 4296, 757, -299
0.338575, -186, -1928, 459, 4296, 757, -299
0.338709, -186, -1928, 459, 4296, 757, -299
0.338843, -186, -1928, 459, 4296, 757, -299
0.338977, -186, -1928, 459, 4296, 757, -299
0.339111, -186, -1928, 459, 4296, 757, -299
0.339245, -186, -1928, 459, 4296, 757, -299
0.339379, -388, -2052, -1491, 3887, 965, -296
0.339514, -388, -2052, -1491, 3887, 965, -296
0.339648, -388, -2052, -1491, 3887, 965, -296
0.339782, -388, -2052, -1491, 3887, 965, -296
0.339916, -388, -2052, -1491, 3887, 965, -296
0.340050, -388, -2052, -1491, 3887, 965, -296
0.340184, -388, -2052, -1491, 3887, 965, -296
0.340319, -596, -2240, -2708, 2500, 797, -117
0.340453, -596, -2240, -2708, 2500, 797, -117
0.340587, -596, -2240, -2708, 2500, 797, -117
0.340721, -596, -2240, -2708, 2500, 797, -117
0.340856, -596, -2240, -2708, 2500, 797, -117
0.340990, -596, -2240, -2708, 2500, 797, -117
0.341128, -596, -2240, -2708, 2500, 797, -117
0.341263, -596, -2240, -2708, 2500, 797, -117
0.341397, -370, -1998, -1339, 1347, 255, 155
0.341532, -370, -1998, -1339, 1347, 255, 155
0.341666, -370, -1998, -1339, 1347, 255, 155
0.341800, -370, -1998, -1339, 1347, 255, 155
0.341934, -370, -1998, -1339, 1347, 255, 155
0.342068, -370, -1998, -1339, 1347, 255, 155
0.342202, -370, -1998, -1339, 1347, 255, 155
0.342337, -84, -1784, 309, 1137, -87, 244
0.342471, -84, -1784, 309, 1137, -87, 244
0.342605, -84, -1784, 309, 1137, -87, 244
0.342739, -84, -1784, 309, 1137, -87, 244
0.342874, -84, -1784, 309, 1137, -87, 244
0.343008, -84, -1784, 309, 1137, -87, 244
0.343142, -84, -1784, 309, 1137, -87, 244
0.343276, -84, -1784, 309, 1137, -87, 244
0.343410, -229, -2090, -1277, 590, -2, 214
0.343545, -229, -2090, -1277, 590, -2, 214
0.343679, -229, -2090, -1277, 590, -2, 214
0.343813, -229, -2090, -1277, 590, -2, 214
0.343947, -229, -2090, -1277, 590, -2, 214
0.344082, -229, -2090, -1277, 590, -2, 214
0.344216, -229, -2090, -1277, 590, -2, 214
0.344350, -379, -2276, -3282, -1182, -70, 357
0.344484, -379, -2276, -3282, -1182, -70, 357
0.344619, -379, -2276, -3282, -1182, -70, 357
0.344753, -379, -2276, -3282, -1182, -70, 357
0.344887, -379, -2276, -3282, -1182, -70, 357
0.345022, -379, -2276, -3282, -1182, -70, 357
0.345156, -379, -2276, -3282, -1182, -70, 357
0.345290, -379, -2276, -3282, -1182, -70, 357
0.345424, -187, -2104, -2035, -2686, -526, 605
0.345559, -187, -2104, -2035, -2686, -526, 605
0.345693, -187, -2104, -2035, -2686, -526, 605
0.345827, -187, -2104, -2035, -2686, -526, 605
0.345961, -187, -2104, -2035, -2686, -526, 605
0.346096, -187, -2104, -2035, -2686, -526, 605
0.346230, -187, -2104, -2035, -2686, -526, 605
0.346364, -61, -2005, -225, -3222, -626, 732
0.346498, -61, -2005, -225, -3222, -626, 732
0.346633, -61, -2005, -225, -3222, -626, 732
0.346767, -61, -2005, -225, -3222, -626, 732
0.346901, -61, -2005, -225, -3222, -626, 732
0.347035, -61, -2005, -225, -3222, -626, 732
0.347170, -61, -2005, -225, -3222, -626, 732
0.347304, -61, -2005, -225, -3222, -626, 732
0.347438, -122, -2042, 161, -3656, -338, 778
0.347572, -122, -2042, 161, -3656, -338, 778
0.347706, -122, -2042, 161, -3656, -338, 778
0.347841, -122, -2042, 161, -3656, -338, 778
0.347975, -122, -2042, 161, -3656, -338, 778
0.348109, -122, -2042, 161, -3656, -338, 778
0.348243, -122, -2042, 161, -3656, -338, 778
0.348378, -115, -2066, 262, -3960, -381, 823
0.348512, -115, -2066, 262, -3960, -381, 823
0.348646, -115, -2066, 262, -3960, -381, 823
0.348781, -115, -2066, 262, -3960, -381, 823
0.348915, -115, -2066, 262, -3960, -381, 823
0.349049, -115, -2066, 262, -3960, -381, 823
0.349183, -115, -2066, 262, -3960, -381, 823
0.349318, -115, -2066, 262, -3960, -381, 823
0.349452, -37, -2065, 432, -3850, -494, 830
0.349586, -37, -2065, 432, -3850, -494, 830
0.349720, -37, -2065, 432, -3850, -494, 830
0.349854, -37, -2065, 432, -3850, -494, 830
0.349989, -37, -2065, 432, -3850, -494, 830
0.350123, -37, -2065, 432, -3850, -494, 830
0.350257, -37, -2065, 432, -3850, -494, 830
0.350391, -37, -2065, 432, -3850, -494, 830
0.350525, 45, -2070, 849, -3558, -218, 787
0.350660, 45, -2070, 849, -3558, -218, 787
0.350794, 45, -2070, 849, -3558, -218, 787
0.350928, 45, -2070, 849, -3558, -218, 787
0.351062, 45, -2070, 849, -3558, -218, 787
0.351197, 45, -2070, 849, -3558, -218, 787
0.351331, 45, -2070, 849, -3558, -218, 787
0.351465, 201, -2099, 1853, -2906, 27, 657
0.351599, 201, -2099, 1853, -2906, 27, 657
0.351734, 201, -2099, 1853, -2906, 27, 657
0.351868, 201, -2099, 1853, -2906, 27, 657
0.352002, 201, -2099, 1853, -2906, 27, 657
0.352136, 201, -2099, 1853, -2906, 27, 657
0.352271, 201, -2099, 1853, -2906, 27, 657
0.352405, 201, -2099, 1853, -2906, 27, 657
0.352539, 463, -2063, 3303, -1425, 21, 362
0.352673, 463, -2063, 3303, -1425, 21, 362
0.352808, 463, -2063, 3303, -1425, 21, 362
0.352942, 463, -2063, 3303, -1425, 21, 362
0.353076, 463, -2063, 3303, -1425, 21, 362
0.353210, 463, -2063, 3303, -1425, 21, 362
0.353344, 463, -2063, 3303, -1425, 21, 362
0.353483, 561, -2023, 4056, 851, 159, -114
0.353620, 561, -2023, 4056, 851, 159, -114
0.353754, 561, -2023, 4056, 851, 159, -114
0.353888, 561, -2023, 4056, 851, 159, -114
0.354022, 561, -2023, 4056, 851, 159, -114
0.354156, 561, -2023, 4056, 851, 159, -114
0.354290, 561, -2023, 4056, 851, 159, -114
0.354425, 561, -2023, 4056, 851, 159, -114
0.354559, 217, -2119, 2712, 2925, 616, -572
0.354693, 217, -2119, 2712, 2925, 616, -572
0.354827, 217, -2119, 2712, 2925, 616, -572
0.354961, 217, -2119, 2712, 2925, 616, -572
0.355096, 217, -2119, 2712, 2925, 616, -572
0.355230, 217, -2119, 2712, 2925, 616, -572
0.355364, 217, -2119, 2712, 2925, 616, -572
0.355498, -188, -2002, 1303, 4154, 975, -752
0.355632, -188, -2002, 1303, 4154, 975, -752
0.355767, -188, -2002, 1303, 4154, 975, -752
0.355901, -188, -2002, 1303, 4154, 975, -752
0.356035, -188, -2002, 1303, 4154, 975, -752
0.356169, -188, -2002, 1303, 4154, 975, -752
0.356303, -188, -2002, 1303, 4154, 975, -752
0.356437, -188, -2002, 1303, 4154, 975, -752
0.356571, -300, -1910, 1223, 5191, 994, -733
0.356706, -300, -1910, 1223, 5191, 994, -733
0.356840, -300, -1910, 1223, 5191, 994, -733
0.356974, -300, -1910, 1223, 5191, 994, -733
0.357109, -300, -1910, 1223, 5191, 994, -733
0.357243, -300, -1910, 1223, 5191, 994, -733
0.357377, -300, -1910, 1223, 5191, 994, -733
0.357511, -350, -2089, 565, 5977, 1065, -703
0.357645, -350, -2089, 565, 5977, 1065, -703
0.357780, -350, -2089, 565, 5977, 1065, -703
0.357914, -350, -2089, 565, 5977, 1065, -703
0.358048, -350, -2089, 565, 5977, 1065, -703
0.358182, -350, -2089, 565, 5977, 1065, -703
0.358316, -350, -2089, 565, 5977, 1065, -703
0.358450, -350, -2089, 565, 5977, 1065, -703
0.358585, -436, -2128, -920, 5922, 1126, -635
0.358719, -436, -2128, -920, 5922, 1126, -635
0.358853, -436, -2128, -920, 5922, 1126, -635
0.358987, -436, -2128, -920, 5922, 1126, -635
0.359121, -436, -2128, -920, 5922, 1126, -635
0.359256, -436, -2128, -920, 5922, 1126, -635
0.359390, -436, -2128, -920, 5922, 1126, -635
0.359524, -505, -2164, -2706, 4873, 903, -486
0.359658, -505, -2164, -2706, 4873, 903, -486
0.359793, -505, -2164, -2706, 4873, 903, -486
0.359927, -505, -2164, -2706, 4873, 903, -486
0.360061, -505, -2164, -2706, 4873, 903, -486
0.360195, -505, -2164, -2706, 4873, 903, -486
0.360329, -505, -2164, -2706, 4873, 903, -486
0.360464, -505, -2164, -2706, 4873, 903, -486
0.360598, -443, -1990, -3168, 3025, 688, -268
0.360732, -443, -1990, -3168, 3025, 688, -268
0.360867, -443, -1990, -3168, 3025, 688, -268
0.361001, -443, -1990, -3168, 3025, 688, -268
0.361135, -443, -1990, -3168, 3025, 688, -268
0.361269, -443, -1990, -3168, 3025, 688, -268
0.361403, -443, -1990, -3168, 3025, 688, -268
0.361537, -443, -1990, -3168, 3025, 688, -268
0.361671, -378, -1804, -2632, 1092, 615, -77
0.361806, -378, -1804, -2632, 1092, 615, -77
0.361940, -378, -1804, -2632, 1092, 615, -77
0.362074, -378, -1804, -2632, 1092, 615, -77
0.362208, -378, -1804, -2632, 1092, 615, -77
0.362342, -378, -1804, -2632, 1092, 615, -77
0.362477, -378, -1804, -2632, 1092, 615, -77
0.362611, -519, -2025, -2555, -807, 622, 101
0.362745, -519, -2025, -2555, -807, 622, 101
0.362879, -519, -2025, -2555, -807, 622, 101
0.363014, -519, -2025, -2555, -807, 622, 101
0.363148, -519, -2025, -2555, -807, 622, 101
0.363282, -519, -2025, -2555, -807, 622, 101
0.363416, -519, -2025, -2555, -807, 622, 101
0.363550, -519, -2025, -2555, -807, 622, 101
0.363684, -466, -2144, -1688, -2297, 414, 346
0.363819, -466, -2144, -1688, -2297, 414, 346
0.363953, -466, -2144, -1688, -2297, 414, 346
0.364087, -466, -2144, -1688, -2297, 414, 346
0.364221, -466, -2144, -1688, -2297, 414, 346
0.364355, -466, -2144, -1688, -2297, 414, 346
0.364489, -466, -2144, -1688, -2297, 414, 346
0.364624, -184, -2050, -453, -2864, 4, 494
0.364758, -184, -2050, -453, -2864, 4, 494
0.364892, -184, -2050, -453, -2864, 4, 494
0.365027, -184, -2050, -453, -2864, 4, 494
0.365161, -184, -2050, -453, -2864, 4, 494
0.365295, -184, -2050, -453, -2864, 4, 494
0.365429, -184, -2050, -453, -2864, 4, 494
0.365563, -184, -2050, -453, -2864, 4, 494
0.365709, -75, -2040, 233, -3034, -135, 504
0.365844, -75, -2040, 233, -3034, -135, 504
0.365978, -75, -2040, 233, -3034, -135, 504
0.366112, -75, -2040, 233, -3034, -135, 504
0.366247, -75, -2040, 233, -3034, -135, 504
0.366381, -75, -2040, 233, -3034, -135, 504
0.366515, -75, -2040, 233, -3034, -135, 504
0.366649, -47, -2118, 908, -2947, -206, 523
0.366783, -47, -2118, 908, -2947, -206, 523
0.366918, -47, -2118, 908, -2947, -206, 523
0.367052, -47, -2118, 908, -2947, -206, 523
0.367186, -47, -2118, 908, -2947, -206, 523
0.367320, -47, -2118, 908, -2947, -206, 523
0.367454, -47, -2118, 908, -2947, -206, 523
0.367588, -47, -2118, 908, -2947, -206, 523
0.367723, 65, -2145, 1430, -2340, -436, 546
0.367857, 65, -2145, 1430, -2340, -436, 546
0.367991, 65, -2145, 1430, -2340, -436, 546
0.368125, 65, -2145, 1430, -2340, -436, 546
0.368259, 65, -2145, 1430, -2340, -436, 546
0.368394, 65, -2145, 1430, -2340, -436, 546
0.368528, 65, -2145, 1430, -2340, -436, 546
0.368662, 181, -2125, 1459, -1508, -518, 515
0.368797, 181, -2125, 1459, -1508, -518, 515
0.368931, 181, -2125, 1459, -1508, -518, 515
0.369065, 181, -2125, 1459, -1508, -518, 515
0.369199, 181, -2125, 1459, -1508, -518, 515
