Time, ax, ay, az, gx, gy, gz
0.000019, -1137, -2056, -1218, -1031, -736, 909
0.000185, -1137, -2056, -1218, -1031, -736, 909
0.000328, -1137, -2056, -1218, -1031, -736, 909
0.000466, -1146, -2045, -24, -1206, -1266, 1542
0.000604, -1146, -2045, -24, -1206, -1266, 1542
0.000740, -1146, -2045, -24, -1206, -1266, 1542
0.000877, -1146, -2045, -24, -1206, -1266, 1542
0.001017, -1146, -2045, -24, -1206, -1266, 1542
0.001156, -1146, -2045, -24, -1206, -1266, 1542
0.001294, -1146, -2045, -24, -1206, -1266, 1542
0.001431, -560, -2028, 134, -1110, -1334, 2034
0.001572, -560, -2028, 134, -1110, -1334, 2034
0.001710, -560, -2028, 134, -1110, -1334, 2034
0.001848, -560, -2028, 134, -1110, -1334, 2034
0.001986, -560, -2028, 134, -1110, -1334, 2034
0.002123, -560, -2028, 134, -1110, -1334, 2034
0.002260, -560, -2028, 134, -1110, -1334, 2034
0.002397, -560, -2028, 134, -1110, -1334, 2034
0.002535, 351, -2024, 9, -1109, -1162, 2085
0.002676, 351, -2024, 9, -1109, -1162, 2085
0.002813, 351, -2024, 9, -1109, -1162, 2085
0.002950, 351, -2024, 9, -1109, -1162, 2085
0.003088, 351, -2024, 9, -1109, -1162, 2085
0.003225, 351, -2024, 9, -1109, -1162, 2085
0.003362, 351, -2024, 9, -1109, -1162, 2085
0.003500, 843, -2029, -55, -1114, -1033, 1673
0.003640, 843, -2029, -55, -1114, -1033, 1673
0.003778, 843, -2029, -55, -1114, -1033, 1673
0.003916, 843, -2029, -55, -1114, -1033, 1673
0.004053, 843, -2029, -55, -1114, -1033, 1673
0.004190, 843, -2029, -55, -1114, -1033, 1673
0.004328, 843, -2029, -55, -1114, -1033, 1673
0.004465, 843, -2029, -55, -1114, -1033, 1673
0.004602, 556, -2076, -38, -1057, -899, 1173
0.004743, 556, -2076, -38, -1057, -899, 1173
0.004880, 556, -2076, -38, -1057, -899, 1173
0.005018, 556, -2076, -38, -1057, -899, 1173
0.005156, 556, -2076, -38, -1057, -899, 1173
0.005296, 556, -2076, -38, -1057, -899, 1173
0.005433, 556, -2076, -38, -1057, -899, 1173
0.005571, -137, -2156, 106, -932, -741, 1058
0.005713, -137, -2156, 106, -932, -741, 1058
0.005852, -137, -2156, 106, -932, -741, 1058
0.005989, -137, -2156, 106, -932, -741, 1058
0.006126, -137, -2156, 106, -932, -741, 1058
0.006265, -137, -2156, 106, -932, -741, 1058
0.006406, -137, -2156, 106, -932, -741, 1058
0.006544, -70, -2187, 350, -704, -665, 1275
0.006686, -70, -2187, 350, -704, -665, 1275
0.006825, -70, -2187, 350, -704, -665, 1275
0.006962, -70, -2187, 350, -704, -665, 1275
0.007100, -70, -2187, 350, -704, -665, 1275
0.007237, -70, -2187, 350, -704, -665, 1275
0.007376, -70, -2187, 350, -704, -665, 1275
0.007513, 783, -2143, 364, -404, -599, 1176
0.007651, 783, -2143, 364, -404, -599, 1176
0.007789, 783, -2143, 364, -404, -599, 1176
0.007927, 783, -2143, 364, -404, -599, 1176
0.008064, 783, -2143, 364, -404, -599, 1176
0.008201, 783, -2143, 364, -404, -599, 1176
0.008338, 783, -2143, 364, -404, -599, 1176
0.008476, 783, -2143, 364, -404, -599, 1176
0.008613, 1028, -2063, 99, -238, -393, 579
0.008755, 1028, -2063, 99, -238, -393, 579
0.008893, 1028, -2063, 99, -238, -393, 579
0.009032, 1028, -2063, 99, -238, -393, 579
0.009169, 1028, -2063, 99, -238, -393, 579
0.009307, 1028, -2063, 99, -238, -393, 579
0.009445, 1028, -2063, 99, -238, -393, 579
0.009584, 565, -2063, 241, -147, -130, 52
0.009726, 565, -2063, 241, -147, -130, 52
0.009864, 565, -2063, 241, -147, -130, 52
0.010001, 565, -2063, 241, -147, -130, 52
0.010139, 565, -2063, 241, -147, -130, 52
0.010276, 565, -2063, 241, -147, -130, 52
0.010413, 565, -2063, 241, -147, -130, 52
0.010550, 290, -2084, 775, 186, 72, -155
0.010688, 290, -2084, 775, 186, 72, -155
0.010825, 290, -2084, 775, 186, 72, -155
0.010963, 290, -2084, 775, 186, 72, -155
0.011100, 290, -2084, 775, 186, 72, -155
0.011237, 290, -2084, 775, 186, 72, -155
0.011374, 290, -2084, 775, 186, 72, -155
0.011512, 290, -2084, 775, 186, 72, -155
0.011649, 233, -1972, 1410, 801, 248, -254
0.011791, 233, -1972, 1410, 801, 248, -254
0.011928, 233, -1972, 1410, 801, 248, -254
0.012065, 233, -1972, 1410, 801, 248, -254
0.012202, 233, -1972, 1410, 801, 248, -254
0.012340, 233, -1972, 1410, 801, 248, -254
0.012477, 233, -1972, 1410, 801, 248, -254
0.012614, 446, -1805, 2303, 1779, 415, -400
0.012788, 446, -1805, 2303, 1779, 415, -400
0.012932, 446, -1805, 2303, 1779, 415, -400
0.013071, 446, -1805, 2303, 1779, 415, -400
0.013208, 446, -1805, 2303, 1779, 415, -400
0.013346, 446, -1805, 2303, 1779, 415, -400
0.013483, 446, -1805, 2303, 1779, 415, -400
0.013621, 436, -2007, 1444, 2890, 673, -709
0.013763, 436, -2007, 1444, 2890, 673, -709
0.013901, 436, -2007, 1444, 2890, 673, -709
0.014038, 436, -2007, 1444, 2890, 673, -709
0.014175, 436, -2007, 1444, 2890, 673, -709
0.014313, 436, -2007, 1444, 2890, 673, -709
0.014450, 436, -2007, 1444, 2890, 673, -709
0.014587, 436, -2007, 1444, 2890, 673, -709
0.014724, -610, -2358, -2181, 2703, 992, -785
0.014866, -610, -2358, -2181, 2703, 992, -785
0.015003, -610, -2358, -2181, 2703, 992, -785
0.015141, -610, -2358, -2181, 2703, 992, -785
0.015278, -610, -2358, -2181, 2703, 992, -785
0.015415, -610, -2358, -2181, 2703, 992, -785
0.015552, -610, -2358, -2181, 2703, 992, -785
0.015690, -1076, -2116, -3458, 1030, 764, -163
0.015831, -1076, -2116, -3458, 1030, 764, -163
0.015969, -1076, -2116, -3458, 1030, 764, -163
0.016106, -1076, -2116, -3458, 1030, 764, -163
0.016243, -1076, -2116, -3458, 1030, 764, -163
0.016380, -1076, -2116, -3458, 1030, 764, -163
0.016518, -1076, -2116, -3458, 1030, 764, -163
0.016655, 27, -1834, -535, 69, -102, 335
0.016797, 27, -1834, -535, 69, -102, 335
0.016935, 27, -1834, -535, 69, -102, 335
0.017072, 27, -1834, -535, 69, -102, 335
0.017210, 27, -1834, -535, 69, -102, 335
0.017347, 27, -1834, -535, 69, -102, 335
0.017484, 27, -1834, -535, 69, -102, 335
0.017622, 27, -1834, -535, 69, -102, 335
0.017759, 519, -2022, 1114, 453, -552, 32
0.017900, 519, -2022, 1114, 453, -552, 32
0.018038, 519, -2022, 1114, 453, -552, 32
0.018175, 519, -2022, 1114, 453, -552, 32
0.018313, 519, -2022, 1114, 453, -552, 32
0.018450, 519, -2022, 1114, 453, -552, 32
0.018587, 519, -2022, 1114, 453, -552, 32
0.018724, -315, -2170, -22, 777, -324, -227
0.018866, -315, -2170, -22, 777, -324, -227
0.019004, -315, -2170, -22, 777, -324, -227
0.019142, -315, -2170, -22, 777, -324, -227
0.019279, -315, -2170, -22, 777, -324, -227
0.019416, -315, -2170, -22, 777, -324, -227
0.019554, -315, -2170, -22, 777, -324, -227
0.019691, -763, -2112, -814, 561, -130, 142
0.019832, -763, -2112, -814, 561, -130, 142
0.019970, -763, -2112, -814, 561, -130, 142
0.020107, -763, -2112, -814, 561, -130, 142
0.020244, -763, -2112, -814, 561, -130, 142
0.020382, -763, -2112, -814, 561, -130, 142
0.020519, -763, -2112, -814, 561, -130, 142
0.020656, -763, -2112, -814, 561, -130, 142
0.020793, -477, -2039, -534, 232, -111, 633
0.020935, -477, -2039, -534, 232, -111, 633
0.021073, -477, -2039, -534, 232, -111, 633
0.021211, -477, -2039, -534, 232, -111, 633
0.021348, -477, -2039, -534, 232, -111, 633
0.021485, -477, -2039, -534, 232, -111, 633
0.021623, -477, -2039, -534, 232, -111, 633
0.021760, -220, -2030, -293, -25, -174, 833
0.021902, -220, -2030, -293, -25, -174, 833
0.022040, -220, -2030, -293, -25, -174, 833
0.022177, -220, -2030, -293, -25, -174, 833
0.022315, -220, -2030, -293, -25, -174, 833
0.022452, -220, -2030, -293, -25, -174, 833
0.022589, -220, -2030, -293, -25, -174, 833
0.022727, -102, -2025, 151, -79, -321, 830
0.022864, -102, -2025, 151, -79, -321, 830
0.023003, -102, -2025, 151, -79, -321, 830
0.023140, -102, -2025, 151, -79, -321, 830
0.023277, -102, -2025, 151, -79, -321, 830
0.023414, -102, -2025, 151, -79, -321, 830
0.023552, -102, -2025, 151, -79, -321, 830
0.023689, -102, -2025, 151, -79, -321, 830
0.023826, 50, -2006, 826, 246, -387, 768
0.023968, 50, -2006, 826, 246, -387, 768
0.024106, 50, -2006, 826, 246, -387, 768
0.024243, 50, -2006, 826, 246, -387, 768
0.024380, 50, -2006, 826, 246, -387, 768
0.024519, 50, -2006, 826, 246, -387, 768
0.024657, 50, -2006, 826, 246, -387, 768
0.024795, -57, -2042, 630, 676, -327, 701
0.024937, -57, -2042, 630, 676, -327, 701
0.025075, -57, -2042, 630, 676, -327, 701
0.025213, -57, -2042, 630, 676, -327, 701
0.025351, -57, -2042, 630, 676, -327, 701
0.025488, -57, -2042, 630, 676, -327, 701
0.025626, -57, -2042, 630, 676, -327, 701
0.025771, -309, -2090, -227, 737, -349, 767
0.025912, -309, -2090, -227, 737, -349, 767
0.026051, -309, -2090, -227, 737, -349, 767
0.026189, -309, -2090, -227, 737, -349, 767
0.026328, -309, -2090, -227, 737, -349, 767
0.026465, -309, -2090, -227, 737, -349, 767
0.026602, -309, -2090, -227, 737, -349, 767
0.026740, -309, -2090, -227, 737, -349, 767
0.026878, 203, -2032, -246, 588, -548, 843
0.027020, 203, -2032, -246, 588, -548, 843
0.027158, 203, -2032, -246, 588, -548, 843
0.027296, 203, -2032, -246, 588, -548, 843
0.027434, 203, -2032, -246, 588, -548, 843
0.027571, 203, -2032, -246, 588, -548, 843
0.027708, 203, -2032, -246, 588, -548, 843
0.027846, 880, -1994, 453, 744, -658, 484
0.027987, 880, -1994, 453, 744, -658, 484
0.028126, 880, -1994, 453, 744, -658, 484
0.028263, 880, -1994, 453, 744, -658, 484
0.028400, 880, -1994, 453, 744, -658, 484
0.028538, 880, -1994, 453, 744, -658, 484
0.028675, 880, -1994, 453, 744, -658, 484
0.028812, 434, -2080, 531, 1078, -500, -87
0.028954, 434, -2080, 531, 1078, -500, -87
0.029092, 434, -2080, 531, 1078, -500, -87
0.029230, 434, -2080, 531, 1078, -500, -87
0.029368, 434, -2080, 531, 1078, -500, -87
0.029514, 434, -2080, 531, 1078, -500, -87
0.029651, 434, -2080, 531, 1078, -500, -87
0.029789, 434, -2080, 531, 1078, -500, -87
0.029927, -576, -2131, -235, 1158, -324, -156
0.030068, -576, -2131, -235, 1158, -324, -156
0.030207, -576, -2131, -235, 1158, -324, -156
0.030344, -576, -2131, -235, 1158, -324, -156
0.030481, -576, -2131, -235, 1158, -324, -156
0.030619, -576, -2131, -235, 1158, -324, -156
0.030756, -576, -2131, -235, 1158, -324, -156
0.030893, -982, -2093, -978, 848, -344, 350
0.031035, -982, -2093, -978, 848, -344, 350
0.031173, -982, -2093, -978, 848, -344, 350
0.031311, -982, -2093, -978, 848, -344, 350
0.031448, -982, -2093, -978, 848, -344, 350
0.031585, -982, -2093, -978, 848, -344, 350
0.031723, -982, -2093, -978, 848, -344, 350
0.031860, -480, -2037, -686, 402, -496, 867
0.032002, -480, -2037, -686, 402, -496, 867
0.032140, -480, -2037, -686, 402, -496, 867
0.032277, -480, -2037, -686, 402, -496, 867
0.032415, -480, -2037, -686, 402, -496, 867
0.032552, -480, -2037, -686, 402, -496, 867
0.032690, -480, -2037, -686, 402, -496, 867
0.032828, -480, -2037, -686, 402, -496, 867
0.032965, 372, -2021, 151, 261, -606, 861
0.033106, 372, -2021, 151, 261, -606, 861
0.033245, 372, -2021, 151, 261, -606, 861
0.033382, 372, -2021, 151, 261, -606, 861
0.033520, 372, -2021, 151, 261, -606, 861
0.033658, 372, -2021, 151, 261, -606, 861
0.033795, 372, -2021, 151, 261, -606, 861
0.033933, 659, -2037, 309, 360, -488, 378
0.034073, 659, -2037, 309, 360, -488, 378
0.034211, 659, -2037, 309, 360, -488, 378
0.034348, 659, -2037, 309, 360, -488, 378
0.034485, 659, -2037, 309, 360, -488, 378
0.034623, 659, -2037, 309, 360, -488, 378
0.034762, 659, -2037, 309, 360, -488, 378
0.034899, 298, -2034, -250, 280, -219, -39
0.035041, 298, -2034, -250, 280, -219, -39
0.035180, 298, -2034, -250, 280, -219, -39
0.035317, 298, -2034, -250, 280, -219, -39
0.035455, 298, -2034, -250, 280, -219, -39
0.035592, 298, -2034, -250, 280, -219, -39
0.035729, 298, -2034, -250, 280, -219, -39
0.035866, 298, -2034, -250, 280, -219, -39
0.036004, 126, -2044, -429, 12, -38, -141
0.036144, 126, -2044, -429, 12, -38, -141
0.036283, 126, -2044, -429, 12, -38, -141
0.036420, 126, -2044, -429, 12, -38, -141
0.036557, 126, -2044, -429, 12, -38, -141
0.036694, 126, -2044, -429, 12, -38, -141
0.036832, 126, -2044, -429, 12, -38, -141
0.036969, 426, -2077, 160, -27, 21, -248
0.037111, 426, -2077, 160, -27, 21, -248
0.037249, 426, -2077, 160, -27, 21, -248
0.037386, 426, -2077, 160, -27, 21, -248
0.037524, 426, -2077, 160, -27, 21, -248
0.037660, 426, -2077, 160, -27, 21, -248
0.037796, 426, -2077, 160, -27, 21, -248
0.037931, 508, -2102, 502, 233, 96, -574
0.038067, 508, -2102, 502, 233, 96, -574
0.038203, 508, -2102, 502, 233, 96, -574
0.038339, 508, -2102, 502, 233, 96, -574
0.038474, 508, -2102, 502, 233, 96, -574
0.038610, 508, -2102, 502, 233, 96, -574
0.038746, 508, -2102, 502, 233, 96, -574
0.038881, 508, -2102, 502, 233, 96, -574
0.039028, 63, -2067, 380, 498, 201, -830
0.039165, 63, -2067, 380, 498, 201, -830
0.039303, 63, -2067, 380, 498, 201, -830
0.039440, 63, -2067, 380, 498, 201, -830
0.039577, 63, -2067, 380, 498, 201, -830
0.039715, 63, -2067, 380, 498, 201, -830
0.039852, 63, -2067, 380, 498, 201, -830
0.039989, -497, -1999, 140, 663, 245, -731
0.040130, -497, -1999, 140, 663, 245, -731
0.040268, -497, -1999, 140, 663, 245, -731
0.040405, -497, -1999, 140, 663, 245, -731
0.040542, -497, -1999, 140, 663, 245, -731
0.040679, -497, -1999, 140, 663, 245, -731
0.040816, -497, -1999, 140, 663, 245, -731
0.040953, -497, -1999, 140, 663, 245, -731
0.041090, -603, -2013, -175, 623, 254, -379
0.041231, -603, -2013, -175, 623, 254, -379
0.041368, -603, -2013, -175, 623, 254, -379
0.041510, -603, -2013, -175, 623, 254, -379
0.041642, -603, -2013, -175, 623, 254, -379
0.041781, -603, -2013, -175, 623, 254, -379
0.041919, -603, -2013, -175, 623, 254, -379
0.042056, -242, -2085, -367, 417, 208, -142
0.042198, -242, -2085, -367, 417, 208, -142
0.042336, -242, -2085, -367, 417, 208, -142
0.042473, -242, -2085, -367, 417, 208, -142
0.042611, -242, -2085, -367, 417, 208, -142
0.042750, -242, -2085, -367, 417, 208, -142
0.042887, -242, -2085, -367, 417, 208, -142
0.043025, 5, -2085, -498, 221, 53, -168
0.043166, 5, -2085, -498, 221, 53, -168
0.043305, 5, -2085, -498, 221, 53, -168
0.043442, 5, -2085, -498, 221, 53, -168
0.043579, 5, -2085, -498, 221, 53, -168
0.043717, 5, -2085, -498, 221, 53, -168
0.043854, 5, -2085, -498, 221, 53, -168
0.043991, 5, -2085, -498, 221, 53, -168
0.044128, 232, -2013, -255, 78, -105, -313
0.044270, 232, -2013, -255, 78, -105, -313
0.044407, 232, -2013, -255, 78, -105, -313
0.044545, 232, -2013, -255, 78, -105, -313
0.044682, 232, -2013, -255, 78, -105, -313
0.044819, 232, -2013, -255, 78, -105, -313
0.044957, 232, -2013, -255, 78, -105, -313
0.045095, 422, -2013, 173, 109, -144, -577
0.045237, 422, -2013, 173, 109, -144, -577
0.045375, 422, -2013, 173, 109, -144, -577
0.045513, 422, -2013, 173, 109, -144, -577
0.045651, 422, -2013, 173, 109, -144, -577
0.045788, 422, -2013, 173, 109, -144, -577
0.045926, 422, -2013, 173, 109, -144, -577
0.046063, -161, -2097, -61, 170, -40, -779
0.046206, -161, -2097, -61, 170, -40, -779
0.046340, -161, -2097, -61, 170, -40, -779
0.046479, -161, -2097, -61, 170, -40, -779
0.046616, -161, -2097, -61, 170, -40, -779
0.046753, -161, -2097, -61, 170, -40, -779
0.046890, -161, -2097, -61, 170, -40, -779
0.047028, -161, -2097, -61, 170, -40, -779
0.047165, -991, -2087, -336, 49, 19, -461
0.047307, -991, -2087, -336, 49, 19, -461
0.047444, -991, -2087, -336, 49, 19, -461
0.047581, -991, -2087, -336, 49, 19, -461
0.047719, -991, -2087, -336, 49, 19, -461
0.047856, -991, -2087, -336, 49, 19, -461
0.047993, -991, -2087, -336, 49, 19, -461
0.048131, -918, -2012, -77, -4, -109, 178
0.048272, -918, -2012, -77, -4, -109, 178
0.048411, -918, -2012, -77, -4, -109, 178
0.048548, -918, -2012, -77, -4, -109, 178
0.048685, -918, -2012, -77, -4, -109, 178
0.048823, -918, -2012, -77, -4, -109, 178
0.048960, -918, -2012, -77, -4, -109, 178
0.049098, -433, -2023, -142, 19, -265, 526
0.049239, -433, -2023, -142, 19, -265, 526
0.049377, -433, -2023, -142, 19, -265, 526
0.049515, -433, -2023, -142, 19, -265, 526
0.049654, -433, -2023, -142, 19, -265, 526
0.049791, -433, -2023, -142, 19, -265, 526
0.049928, -433, -2023, -142, 19, -265, 526
0.050065, -433, -2023, -142, 19, -265, 526
0.050203, -164, -2036, -653, -229, -385, 547
0.050344, -164, -2036, -653, -229, -385, 547
0.050483, -164, -2036, -653, -229, -385, 547
0.050620, -164, -2036, -653, -229, -385, 547
0.050757, -164, -2036, -653, -229, -385, 547
0.050895, -164, -2036, -653, -229, -385, 547
0.051032, -164, -2036, -653, -229, -385, 547
0.051169, -89, -2043, -662, -653, -540, 473
0.051311, -89, -2043, -662, -653, -540, 473
0.051448, -89, -2043, -662, -653, -540, 473
0.051586, -89, -2043, -662, -653, -540, 473
0.051723, -89, -2043, -662, -653, -540, 473
0.051860, -89, -2043, -662, -653, -540, 473
0.051998, -89, -2043, -662, -653, -540, 473
0.052146, -359, -2081, -63, -858, -640, 479
0.052283, -359, -2081, -63, -858, -640, 479
0.052421, -359, -2081, -63, -858, -640, 479
0.052559, -359, -2081, -63, -858, -640, 479
0.052697, -359, -2081, -63, -858, -640, 479
0.052834, -359, -2081, -63, -858, -640, 479
0.052971, -359, -2081, -63, -858, -640, 479
0.053109, -359, -2081, -63, -858, -640, 479
0.053246, -461, -2073, 503, -717, -630, 662
0.053387, -461, -2073, 503, -717, -630, 662
0.053524, -461, -2073, 503, -717, -630, 662
0.053661, -461, -2073, 503, -717, -630, 662
0.053795, -461, -2073, 503, -717, -630, 662
0.053930, -461, -2073, 503, -717, -630, 662
0.054064, -461, -2073, 503, -717, -630, 662
0.054198, -247, -2056, 375, -445, -594, 809
0.054332, -247, -2056, 375, -445, -594, 809
0.054466, -247, -2056, 375, -445, -594, 809
0.054600, -247, -2056, 375, -445, -594, 809
0.054735, -247, -2056, 375, -445, -594, 809
0.054869, -247, -2056, 375, -445, -594, 809
0.055003, -247, -2056, 375, -445, -594, 809
0.055137, -247, -2056, 375, -445, -594, 809
0.055271, -204, -2057, -325, -427, -582, 839
0.055408, -204, -2057, -325, -427, -582, 839
0.055550, -204, -2057, -325, -427, -582, 839
0.055689, -204, -2057, -325, -427, -582, 839
0.055824, -204, -2057, -325, -427, -582, 839
0.055958, -204, -2057, -325, -427, -582, 839
0.056092, -204, -2057, -325, -427, -582, 839
0.056226, 63, -2060, -443, -647, -643, 822
0.056361, 63, -2060, -443, -647, -643, 822
0.056495, 63, -2060, -443, -647, -643, 822
0.056629, 63, -2060, -443, -647, -643, 822
0.056770, 63, -2060, -443, -647, -643, 822
0.056905, 63, -2060, -443, -647, -643, 822
0.057039, 63, -2060, -443, -647, -643, 822
0.057173, 63, -2060, -443, -647, -643, 822
0.057307, 496, -2077, 116, -696, -705, 575
0.057442, 496, -2077, 116, -696, -705, 575
0.057577, 496, -2077, 116, -696, -705, 575
0.057711, 496, -2077, 116, -696, -705, 575
0.057845, 496, -2077, 116, -696, -705, 575
0.057979, 496, -2077, 116, -696, -705, 575
0.058114, 496, -2077, 116, -696, -705, 575
0.058248, 476, -2076, 452, -529, -597, 166
0.058382, 476, -2076, 452, -529, -597, 166
0.058516, 476, -2076, 452, -529, -597, 166
0.058650, 476, -2076, 452, -529, -597, 166
0.058785, 476, -2076, 452, -529, -597, 166
0.058918, 476, -2076, 452, -529, -597, 166
0.059052, 476, -2076, 452, -529, -597, 166
0.059185, 476, -2076, 452, -529, -597, 166
0.059319, 412, -2062, 500, -310, -397, -127
0.059453, 412, -2062, 500, -310, -397, -127
0.059586, 412, -2062, 500, -310, -397, -127
0.059720, 412, -2062, 500, -310, -397, -127
0.059853, 412, -2062, 500, -310, -397, -127
0.059987, 412, -2062, 500, -310, -397, -127
0.060120, 412, -2062, 500, -310, -397, -127
0.060254, 472, -2083, 541, -27, -231, -373
0.060387, 472, -2083, 541, -27, -231, -373
0.060521, 472, -2083, 541, -27, -231, -373
0.060654, 472, -2083, 541, -27, -231, -373
0.060788, 472, -2083, 541, -27, -231, -373
0.060921, 472, -2083, 541, -27, -231, -373
0.061055, 472, -2083, 541, -27, -231, -373
0.061188, 472, -2083, 541, -27, -231, -373
0.061322, 332, -2101, 735, 355, -62, -597
0.061455, 332, -2101, 735, 355, -62, -597
0.061590, 332, -2101, 735, 355, -62, -597
0.061724, 332, -2101, 735, 355, -62, -597
0.061859, 332, -2101, 735, 355, -62, -597
0.061993, 332, -2101, 735, 355, -62, -597
0.062127, 332, -2101, 735, 355, -62, -597
0.062261, 429, -2043, 942, 880, 76, -761
0.062395, 429, -2043, 942, 880, 76, -761
0.062529, 429, -2043, 942, 880, 76, -761
0.062664, 429, -2043, 942, 880, 76, -761
0.062798, 429, -2043, 942, 880, 76, -761
0.062932, 429, -2043, 942, 880, 76, -761
0.063066, 429, -2043, 942, 880, 76, -761
0.063200, 429, -2043, 942, 880, 76, -761
0.063334, 550, -2033, 322, 1272, 137, -1077
0.063469, 550, -2033, 322, 1272, 137, -1077
0.063603, 550, -2033, 322, 1272, 137, -1077
0.063737, 550, -2033, 322, 1272, 137, -1077
0.063871, 550, -2033, 322, 1272, 137, -1077
0.064005, 550, -2033, 322, 1272, 137, -1077
0.064139, 550, -2033, 322, 1272, 137, -1077
0.064274, -120, -2081, -633, 1158, 121, -1331
0.064408, -120, -2081, -633, 1158, 121, -1331
0.064542, -120, -2081, -633, 1158, 121, -1331
0.064677, -120, -2081, -633, 1158, 121, -1331
0.064811, -120, -2081, -633, 1158, 121, -1331
0.064966, -120, -2081, -633, 1158, 121, -1331
0.065101, -120, -2081, -633, 1158, 121, -1331
0.065236, -120, -2081, -633, 1158, 121, -1331
0.065370, -721, -2027, -617, 857, -8, -1066
0.065508, -721, -2027, -617, 857, -8, -1066
0.065643, -721, -2027, -617, 857, -8, -1066
0.065777, -721, -2027, -617, 857, -8, -1066
0.065911, -721, -2027, -617, 857, -8, -1066
0.066045, -721, -2027, -617, 857, -8, -1066
0.066179, -721, -2027, -617, 857, -8, -1066
0.066314, -543, -2022, -184, 698, -153, -611
0.066448, -543, -2022, -184, 698, -153, -611
0.066582, -543, -2022, -184, 698, -153, -611
0.066716, -543, -2022, -184, 698, -153, -611
0.066850, -543, -2022, -184, 698, -153, -611
0.066985, -543, -2022, -184, 698, -153, -611
0.067119, -543, -2022, -184, 698, -153, -611
0.067253, -543, -2022, -184, 698, -153, -611
0.067387, -265, -2081, -48, 570, -209, -411
0.067522, -265, -2081, -48, 570, -209, -411
0.067656, -265, -2081, -48, 570, -209, -411
0.067790, -265, -2081, -48, 570, -209, -411
0.067924, -265, -2081, -48, 570, -209, -411
0.068059, -265, -2081, -48, 570, -209, -411
0.068193, -265, -2081, -48, 570, -209, -411
0.068327, -190, -2040, -49, 504, -238, -342
0.068462, -190, -2040, -49, 504, -238, -342
0.068596, -190, -2040, -49, 504, -238, -342
0.068730, -190, -2040, -49, 504, -238, -342
0.068864, -190, -2040, -49, 504, -238, -342
0.068998, -190, -2040, -49, 504, -238, -342
0.069132, -190, -2040, -49, 504, -238, -342
0.069267, -190, -2040, -49, 504, -238, -342
0.069401, -160, -2012, 187, 569, -258, -262
0.069536, -160, -2012, 187, 569, -258, -262
0.069670, -160, -2012, 187, 569, -258, -262
0.069804, -160, -2012, 187, 569, -258, -262
0.069938, -160, -2012, 187, 569, -258, -262
0.070072, -160, -2012, 187, 569, -258, -262
0.070207, -160, -2012, 187, 569, -258, -262
0.070341, -160, -2012, 187, 569, -258, -262
0.070475, -64, -2073, 766, 854, -236, -240
0.070609, -64, -2073, 766, 854, -236, -240
0.070744, -64, -2073, 766, 854, -236, -240
0.070878, -64, -2073, 766, 854, -236, -240
0.071012, -64, -2073, 766, 854, -236, -240
0.071146, -64, -2073, 766, 854, -236, -240
0.071280, -64, -2073, 766, 854, -236, -240
0.071415, -190, -2093, 580, 1297, -177, -275
0.071549, -190, -2093, 580, 1297, -177, -275
0.071683, -190, -2093, 580, 1297, -177, -275
0.071818, -190, -2093, 580, 1297, -177, -275
0.071952, -190, -2093, 580, 1297, -177, -275
0.072086, -190, -2093, 580, 1297, -177, -275
0.072220, -190, -2093, 580, 1297, -177, -275
0.072354, -190, -2093, 580, 1297, -177, -275
0.072489, -525, -2067, -701, 1306, -156, -165
0.072623, -525, -2067, -701, 1306, -156, -165
0.072757, -525, -2067, -701, 1306, -156, -165
0.072891, -525, -2067, -701, 1306, -156, -165
0.073025, -525, -2067, -701, 1306, -156, -165
0.073160, -525, -2067, -701, 1306, -156, -165
0.073294, -525, -2067, -701, 1306, -156, -165
0.073428, -621, -2066, -1458, 697, -315, 115
0.073563, -621, -2066, -1458, 697, -315, 115
0.073697, -621, -2066, -1458, 697, -315, 115
0.073831, -621, -2066, -1458, 697, -315, 115
0.073966, -621, -2066, -1458, 697, -315, 115
0.074100, -621, -2066, -1458, 697, -315, 115
0.074234, -621, -2066, -1458, 697, -315, 115
0.074368, -621, -2066, -1458, 697, -315, 115
0.074503, -629, -2035, -1041, 58, -581, 412
0.074637, -629, -2035, -1041, 58, -581, 412
0.074771, -629, -2035, -1041, 58, -581, 412
0.074905, -629, -2035, -1041, 58, -581, 412
0.075040, -629, -2035, -1041, 58, -581, 412
0.075174, -629, -2035, -1041, 58, -581, 412
0.075308, -629, -2035, -1041, 58, -581, 412
0.075444, -436, -1997, -426, -324, -738, 680
0.075580, -436, -1997, -426, -324, -738, 680
0.075715, -436, -1997, -426, -324, -738, 680
0.075850, -436, -1997, -426, -324, -738, 680
0.075984, -436, -1997, -426, -324, -738, 680
0.076118, -436, -1997, -426, -324, -738, 680
0.076252, -436, -1997, -426, -324, -738, 680
0.076386, -436, -1997, -426, -324, -738, 680
0.076520, 228, -2010, -228, -605, -796, 688
0.076655, 228, -2010, -228, -605, -796, 688
0.076790, 228, -2010, -228, -605, -796, 688
0.076924, 228, -2010, -228, -605, -796, 688
0.077058, 228, -2010, -228, -605, -796, 688
0.077192, 228, -2010, -228, -605, -796, 688
0.077335, 228, -2010, -228, -605, -796, 688
0.077471, 492, -2041, -120, -794, -782, 311
0.077607, 492, -2041, -120, -794, -782, 311
0.077741, 492, -2041, -120, -794, -782, 311
0.077875, 492, -2041, -120, -794, -782, 311
0.078009, 492, -2041, -120, -794, -782, 311
0.078143, 492, -2041, -120, -794, -782, 311
0.078277, 492, -2041, -120, -794, -782, 311
0.078412, 492, -2041, -120, -794, -782, 311
0.078546, -64, -2066, 255, -763, -679, 32
0.078680, -64, -2066, 255, -763, -679, 32
0.078814, -64, -2066, 255, -763, -679, 32
0.078949, -64, -2066, 255, -763, -679, 32
0.079083, -64, -2066, 255, -763, -679, 32
0.079217, -64, -2066, 255, -763, -679, 32
0.079351, -64, -2066, 255, -763, -679, 32
0.079485, -408, -2070, 629, -505, -563, 179
0.079620, -408, -2070, 629, -505, -563, 179
0.079754, -408, -2070, 629, -505, -563, 179
0.079888, -408, -2070, 629, -505, -563, 179
0.080022, -408, -2070, 629, -505, -563, 179
0.080157, -408, -2070, 629, -505, -563, 179
0.080291, -408, -2070, 629, -505, -563, 179
0.080425, -408, -2070, 629, -505, -563, 179
0.080559, -136, -2075, 606, -169, -474, 383
0.080693, -136, -2075, 606, -169, -474, 383
0.080827, -136, -2075, 606, -169, -474, 383
0.080962, -136, -2075, 606, -169, -474, 383
0.081096, -136, -2075, 606, -169, -474, 383
0.081230, -136, -2075, 606, -169, -474, 383
0.081364, -136, -2075, 606, -169, -474, 383
0.081498, -136, -2075, 606, -169, -474, 383
0.081634, -6, -2080, 231, 38, -408, 365
0.081768, -6, -2080, 231, 38, -408, 365
0.081902, -6, -2080, 231, 38, -408, 365
0.082037, -6, -2080, 231, 38, -408, 365
0.082171, -6, -2080, 231, 38, -408, 365
0.082305, -6, -2080, 231, 38, -408, 365
0.082439, -6, -2080, 231, 38, -408, 365
0.082573, -129, -2078, -123, 34, -399, 319
0.082708, -129, -2078, -123, 34, -399, 319
0.082842, -129, -2078, -123, 34, -399, 319
0.082976, -129, -2078, -123, 34, -399, 319
0.083110, -129, -2078, -123, 34, -399, 319
0.083244, -129, -2078, -123, 34, -399, 319
0.083379, -129, -2078, -123, 34, -399, 319
0.083513, -129, -2078, -123, 34, -399, 319
0.083647, -82, -2072, -257, -68, -471, 336
0.083781, -82, -2072, -257, -68, -471, 336
0.083915, -82, -2072, -257, -68, -471, 336
0.084050, -82, -2072, -257, -68, -471, 336
0.084184, -82, -2072, -257, -68, -471, 336
0.084318, -82, -2072, -257, -68, -471, 336
0.084452, -82, -2072, -257, -68, -471, 336
0.084586, 143, -2037, -239, -165, -559, 285
0.084721, 143, -2037, -239, -165, -559, 285
0.084855, 143, -2037, -239, -165, -559, 285
0.084989, 143, -2037, -239, -165, -559, 285
0.085123, 143, -2037, -239, -165, -559, 285
0.085257, 143, -2037, -239, -165, -559, 285
0.085391, 143, -2037, -239, -165, -559, 285
0.085526, 143, -2037, -239, -165, -559, 285
0.085660, 459, -2008, -25, -242, -579, 94
0.085795, 459, -2008, -25, -242, -579, 94
0.085929, 459, -2008, -25, -242, -579, 94
0.086063, 459, -2008, -25, -242, -579, 94
0.086197, 459, -2008, -25, -242, -579, 94
0.086331, 459, -2008, -25, -242, -579, 94
0.086465, 459, -2008, -25, -242, -579, 94
0.086600, 695, -2027, 516, -160, -499, -247
0.086734, 695, -2027, 516, -160, -499, -247
0.086868, 695, -2027, 516, -160, -499, -247
0.087002, 695, -2027, 516, -160, -499, -247
0.087137, 695, -2027, 516, -160, -499, -247
0.087271, 695, -2027, 516, -160, -499, -247
0.087405, 695, -2027, 516, -160, -499, -247
0.087539, 695, -2027, 516, -160, -499, -247
0.087673, 662, -2084, 1092, 283, -317, -644
0.087808, 662, -2084, 1092, 283, -317, -644
0.087942, 662, -2084, 1092, 283, -317, -644
0.088076, 662, -2084, 1092, 283, -317, -644
0.088210, 662, -2084, 1092, 283, -317, -644
0.088344, 662, -2084, 1092, 283, -317, -644
0.088479, 662, -2084, 1092, 283, -317, -644
0.088613, 246, -2121, 976, 939, -82, -918
0.088747, 246, -2121, 976, 939, -82, -918
0.088881, 246, -2121, 976, 939, -82, -918
0.089015, 246, -2121, 976, 939, -82, -918
0.089150, 246, -2121, 976, 939, -82, -918
0.089284, 246, -2121, 976, 939, -82, -918
0.089418, 246, -2121, 976, 939, -82, -918
0.089552, 246, -2121, 976, 939, -82, -918
0.089687, -485, -2078, -296, 1160, 88, -833
0.089821, -485, -2078, -296, 1160, 88, -833
0.089955, -485, -2078, -296, 1160, 88, -833
0.090095, -485, -2078, -296, 1160, 88, -833
0.090230, -485, -2078, -296, 1160, 88, -833
0.090364, -485, -2078, -296, 1160, 88, -833
0.090498, -485, -2078, -296, 1160, 88, -833
0.090632, -808, -2001, -1582, 550, 29, -360
0.090767, -808, -2001, -1582, 550, 29, -360
0.090901, -808, -2001, -1582, 550, 29, -360
0.091035, -808, -2001, -1582, 550, 29, -360
0.091169, -808, -2001, -1582, 550, 29, -360
0.091304, -808, -2001, -1582, 550, 29, -360
0.091438, -808, -2001, -1582, 550, 29, -360
0.091572, -808, -2001, -1582, 550, 29, -360
0.091706, -460, -1993, -1443, -329, -266, 64
0.091840, -460, -1993, -1443, -329, -266, 64
0.091975, -460, -1993, -1443, -329, -266, 64
0.092109, -460, -1993, -1443, -329, -266, 64
0.092243, -460, -1993, -1443, -329, -266, 64
0.092377, -460, -1993, -1443, -329, -266, 64
0.092511, -460, -1993, -1443, -329, -266, 64
0.092646, -460, -1993, -1443, -329, -266, 64
0.092780, -258, -2038, -613, -870, -525, 186
0.092914, -258, -2038, -613, -870, -525, 186
0.093048, -258, -2038, -613, -870, -525, 186
0.093183, -258, -2038, -613, -870, -525, 186
0.093317, -258, -2038, -613, -870, -525, 186
0.093451, -258, -2038, -613, -870, -525, 186
0.093586, -258, -2038, -613, -870, -525, 186
0.093719, -522, -2057, -75, -1077, -579, 305
0.093853, -522, -2057, -75, -1077, -579, 305
0.093986, -522, -2057, -75, -1077, -579, 305
0.094120, -522, -2057, -75, -1077, -579, 305
0.094253, -522, -2057, -75, -1077, -579, 305
0.094387, -522, -2057, -75, -1077, -579, 305
0.094520, -522, -2057, -75, -1077, -579, 305
0.094654, -522, -2057, -75, -1077, -579, 305
0.094787, -721, -2060, 244, -1055, -529, 646
0.094921, -721, -2060, 244, -1055, -529, 646
0.095054, -721, -2060, 244, -1055, -529, 646
0.095188, -721, -2060, 244, -1055, -529, 646
0.095321, -721, -2060, 244, -1055, -529, 646
0.095455, -721, -2060, 244, -1055, -529, 646
0.095588, -721, -2060, 244, -1055, -529, 646
0.095722, -420, -2073, 447, -865, -459, 1015
0.095855, -420, -2073, 447, -865, -459, 1015
0.095989, -420, -2073, 447, -865, -459, 1015
0.096123, -420, -2073, 447, -865, -459, 1015
0.096256, -420, -2073, 447, -865, -459, 1015
0.096389, -420, -2073, 447, -865, -459, 1015
0.096523, -420, -2073, 447, -865, -459, 1015
0.096656, -420, -2073, 447, -865, -459, 1015
0.096790, 121, -2072, 445, -613, -404, 1080
0.096924, 121, -2072, 445, -613, -404, 1080
0.097057, 121, -2072, 445, -613, -404, 1080
0.097190, 121, -2072, 445, -613, -404, 1080
0.097324, 121, -2072, 445, -613, -404, 1080
0.097457, 121, -2072, 445, -613, -404, 1080
0.097590, 121, -2072, 445, -613, -404, 1080
0.097724, 306, -2054, 255, -398, -412, 830
0.097859, 306, -2054, 255, -398, -412, 830
0.097993, 306, -2054, 255, -398, -412, 830
0.098127, 306, -2054, 255, -398, -412, 830
0.098261, 306, -2054, 255, -398, -412, 830
0.098392, 306, -2054, 255, -398, -412, 830
0.098527, 306, -2054, 255, -398, -412, 830
0.098661, 306, -2054, 255, -398, -412, 830
0.098796, -14, -2043, 84, -266, -458, 610
0.098930, -14, -2043, 84, -266, -458, 610
0.099064, -14, -2043, 84, -266, -458, 610
0.099198, -14, -2043, 84, -266, -458, 610
0.099333, -14, -2043, 84, -266, -458, 610
0.099467, -14, -2043, 84, -266, -458, 610
0.099601, -14, -2043, 84, -266, -458, 610
0.099735, -14, -2043, 84, -266, -458, 610
0.099870, -127, -2048, 42, -224, -498, 622
0.100004, -127, -2048, 42, -224, -498, 622
0.100138, -127, -2048, 42, -224, -498, 622
0.100273, -127, -2048, 42, -224, -498, 622
0.100407, -127, -2048, 42, -224, -498, 622
0.100541, -127, -2048, 42, -224, -498, 622
0.100675, -127, -2048, 42, -224, -498, 622
0.100810, 323, -2067, 22, -219, -531, 579
0.100944, 323, -2067, 22, -219, -531, 579
0.101078, 323, -2067, 22, -219, -531, 579
0.101212, 323, -2067, 22, -219, -531, 579
0.101345, 323, -2067, 22, -219, -531, 579
0.101482, 323, -2067, 22, -219, -531, 579
0.101618, 323, -2067, 22, -219, -531, 579
0.101752, 323, -2067, 22, -219, -531, 579
0.101887, 574, -2075, -102, -237, -519, 260
0.102021, 574, -2075, -102, -237, -519, 260
0.102155, 574, -2075, -102, -237, -519, 260
0.102290, 574, -2075, -102, -237, -519, 260
0.102424, 574, -2075, -102, -237, -519, 260
0.102568, 574, -2075, -102, -237, -519, 260
0.102705, 574, -2075, -102, -237, -519, 260
0.102840, 492, -2073, -43, -263, -439, -90
0.102975, 492, -2073, -43, -263, -439, -90
0.103105, 492, -2073, -43, -263, -439, -90
0.103241, 492, -2073, -43, -263, -439, -90
0.103376, 492, -2073, -43, -263, -439, -90
0.103512, 492, -2073, -43, -263, -439, -90
0.103647, 492, -2073, -43, -263, -439, -90
0.103783, 492, -2073, -43, -263, -439, -90
0.103922, 346, -2119, 427, -147, -340, -335
0.104067, 346, -2119, 427, -147, -340, -335
0.104199, 346, -2119, 427, -147, -340, -335
0.104342, 346, -2119, 427, -147, -340, -335
0.104480, 346, -2119, 427, -147, -340, -335
0.104615, 346, -2119, 427, -147, -340, -335
0.104750, 346, -2119, 427, -147, -340, -335
0.104884, -182, -2145, 934, 261, -219, -409
0.105019, -182, -2145, 934, 261, -219, -409
0.105153, -182, -2145, 934, 261, -219, -409
0.105287, -182, -2145, 934, 261, -219, -409
0.105421, -182, -2145, 934, 261, -219, -409
0.105558, -182, -2145, 934, 261, -219, -409
0.105692, -182, -2145, 934, 261, -219, -409
0.105827, -182, -2145, 934, 261, -219, -409
0.105961, -465, -2051, 919, 853, -80, -167
0.106096, -465, -2051, 919, 853, -80, -167
0.106230, -465, -2051, 919, 853, -80, -167
0.106364, -465, -2051, 919, 853, -80, -167
0.106498, -465, -2051, 919, 853, -80, -167
0.106633, -465, -2051, 919, 853, -80, -167
0.106767, -465, -2051, 919, 853, -80, -167
0.106901, 1, -2005, 326, 1264, -25, 37
0.107035, 1, -2005, 326, 1264, -25, 37
0.107169, 1, -2005, 326, 1264, -25, 37
0.107304, 1, -2005, 326, 1264, -25, 37
0.107438, 1, -2005, 326, 1264, -25, 37
0.107572, 1, -2005, 326, 1264, -25, 37
0.107706, 1, -2005, 326, 1264, -25, 37
0.107840, 1, -2005, 326, 1264, -25, 37
0.107976, 14, -2094, -461, 1245, -68, -70
0.108118, 14, -2094, -461, 1245, -68, -70
0.108258, 14, -2094, -461, 1245, -68, -70
0.108393, 14, -2094, -461, 1245, -68, -70
0.108528, 14, -2094, -461, 1245, -68, -70
0.108662, 14, -2094, -461, 1245, -68, -70
0.108796, 14, -2094, -461, 1245, -68, -70
0.108930, -602, -2099, -867, 882, -152, 3
0.109065, -602, -2099, -867, 882, -152, 3
0.109199, -602, -2099, -867, 882, -152, 3
0.109333, -602, -2099, -867, 882, -152, 3
0.109467, -602, -2099, -867, 882, -152, 3
0.109603, -602, -2099, -867, 882, -152, 3
0.109738, -602, -2099, -867, 882, -152, 3
0.109872, -602, -2099, -867, 882, -152, 3
0.110006, -682, -2043, -537, 481, -262, 439
0.110141, -682, -2043, -537, 481, -262, 439
0.110275, -682, -2043, -537, 481, -262, 439
0.110409, -682, -2043, -537, 481, -262, 439
0.110544, -682, -2043, -537, 481, -262, 439
0.110678, -682, -2043, -537, 481, -262, 439
0.110813, -682, -2043, -537, 481, -262, 439
0.110947, -289, -2083, 36, 307, -364, 774
0.111081, -289, -2083, 36, 307, -364, 774
0.111215, -289, -2083, 36, 307, -364, 774
0.111350, -289, -2083, 36, 307, -364, 774
0.111484, -289, -2083, 36, 307, -364, 774
0.111618, -289, -2083, 36, 307, -364, 774
0.111753, -289, -2083, 36, 307, -364, 774
0.111887, -289, -2083, 36, 307, -364, 774
0.112021, 103, -2085, 640, 491, -388, 823
0.112156, 103, -2085, 640, 491, -388, 823
0.112290, 103, -2085, 640, 491, -388, 823
0.112425, 103, -2085, 640, 491, -388, 823
0.112559, 103, -2085, 640, 491, -388, 823
0.112693, 103, -2085, 640, 491, -388, 823
0.112828, 103, -2085, 640, 491, -388, 823
0.112962, 564, -1989, 988, 1025, -288, 624
0.113096, 564, -1989, 988, 1025, -288, 624
0.113231, 564, -1989, 988, 1025, -288, 624
0.113365, 564, -1989, 988, 1025, -288, 624
0.113499, 564, -1989, 988, 1025, -288, 624
0.113639, 564, -1989, 988, 1025, -288, 624
0.113773, 564, -1989, 988, 1025, -288, 624
0.113908, 564, -1989, 988, 1025, -288, 624
0.114042, 435, -1968, 129, 1360, -67, 241
0.114176, 435, -1968, 129, 1360, -67, 241
0.114311, 435, -1968, 129, 1360, -67, 241
0.114445, 435, -1968, 129, 1360, -67, 241
0.114579, 435, -1968, 129, 1360, -67, 241
0.114713, 435, -1968, 129, 1360, -67, 241
0.114848, 435, -1968, 129, 1360, -67, 241
0.114982, -583, -2016, -1211, 929, 79, 194
0.115116, -583, -2016, -1211, 929, 79, 194
0.115251, -583, -2016, -1211, 929, 79, 194
0.115385, -583, -2016, -1211, 929, 79, 194
0.115556, -583, -2016, -1211, 929, 79, 194
0.115702, -583, -2016, -1211, 929, 79, 194
0.115837, -583, -2016, -1211, 929, 79, 194
0.115971, -1110, -2047, -1337, 162, -45, 774
0.116106, -1110, -2047, -1337, 162, -45, 774
0.116240, -1110, -2047, -1337, 162, -45, 774
0.116374, -1110, -2047, -1337, 162, -45, 774
0.116508, -1110, -2047, -1337, 162, -45, 774
0.116643, -1110, -2047, -1337, 162, -45, 774
0.116777, -1110, -2047, -1337, 162, -45, 774
0.116911, -1110, -2047, -1337, 162, -45, 774
0.117045, -558, -2068, -578, -288, -284, 1366
0.117180, -558, -2068, -578, -288, -284, 1366
0.117314, -558, -2068, -578, -288, -284, 1366
0.117448, -558, -2068, -578, -288, -284, 1366
0.117584, -558, -2068, -578, -288, -284, 1366
0.117718, -558, -2068, -578, -288, -284, 1366
0.117853, -558, -2068, -578, -288, -284, 1366
0.117987, -558, -2068, -578, -288, -284, 1366
0.118121, 169, -2057, -48, -448, -424, 1433
0.118255, 169, -2057, -48, -448, -424, 1433
0.118390, 169, -2057, -48, -448, -424, 1433
0.118524, 169, -2057, -48, -448, -424, 1433
0.118658, 169, -2057, -48, -448, -424, 1433
0.118793, 169, -2057, -48, -448, -424, 1433
0.118927, 169, -2057, -48, -448, -424, 1433
0.119061, 430, -2033, 156, -470, -420, 1126
0.119196, 430, -2033, 156, -470, -420, 1126
0.119330, 430, -2033, 156, -470, -420, 1126
0.119464, 430, -2033, 156, -470, -420, 1126
0.119598, 430, -2033, 156, -470, -420, 1126
0.119733, 430, -2033, 156, -470, -420, 1126
0.119867, 430, -2033, 156, -470, -420, 1126
0.120001, 430, -2033, 156, -470, -420, 1126
0.120135, 352, -2028, 160, -401, -285, 816
0.120270, 352, -2028, 160, -401, -285, 816
0.120404, 352, -2028, 160, -401, -285, 816
0.120538, 352, -2028, 160, -401, -285, 816
0.120672, 352, -2028, 160, -401, -285, 816
0.120807, 352, -2028, 160, -401, -285, 816
0.120941, 352, -2028, 160, -401, -285, 816
0.121075, 545, -2034, 151, -318, -131, 583
0.121209, 545, -2034, 151, -318, -131, 583
0.121344, 545, -2034, 151, -318, -131, 583
0.121478, 545, -2034, 151, -318, -131, 583
0.121612, 545, -2034, 151, -318, -131, 583
0.121747, 545, -2034, 151, -318, -131, 583
0.121881, 545, -2034, 151, -318, -131, 583
0.122015, 545, -2034, 151, -318, -131, 583
0.122149, 721, -2045, 454, -134, -35, 220
0.122284, 721, -2045, 454, -134, -35, 220
0.122418, 721, -2045, 454, -134, -35, 220
0.122552, 721, -2045, 454, -134, -35, 220
0.122686, 721, -2045, 454, -134, -35, 220
0.122820, 721, -2045, 454, -134, -35, 220
0.122955, 721, -2045, 454, -134, -35, 220
0.123089, 420, -2061, 1046, 348, 84, -155
0.123223, 420, -2061, 1046, 348, 84, -155
0.123358, 420, -2061, 1046, 348, 84, -155
0.123492, 420, -2061, 1046, 348, 84, -155
0.123626, 420, -2061, 1046, 348, 84, -155
0.123760, 420, -2061, 1046, 348, 84, -155
0.123894, 420, -2061, 1046, 348, 84, -155
0.124029, 420, -2061, 1046, 348, 84, -155
0.124163, -103, -2091, 842, 981, 237, -266
0.124297, -103, -2091, 842, 981, 237, -266
0.124431, -103, -2091, 842, 981, 237, -266
0.124565, -103, -2091, 842, 981, 237, -266
0.124700, -103, -2091, 842, 981, 237, -266
0.124834, -103, -2091, 842, 981, 237, -266
0.124968, -103, -2091, 842, 981, 237, -266
0.125102, -856, -2090, -666, 1036, 297, -15
0.125237, -856, -2090, -666, 1036, 297, -15
0.125370, -856, -2090, -666, 1036, 297, -15
0.125512, -856, -2090, -666, 1036, 297, -15
0.125646, -856, -2090, -666, 1036, 297, -15
0.125781, -856, -2090, -666, 1036, 297, -15
0.125915, -856, -2090, -666, 1036, 297, -15
0.126049, -856, -2090, -666, 1036, 297, -15
0.126183, -1025, -2038, -1495, 335, 109, 613
0.126317, -1025, -2038, -1495, 335, 109, 613
0.126452, -1025, -2038, -1495, 335, 109, 613
0.126586, -1025, -2038, -1495, 335, 109, 613
0.126720, -1025, -2038, -1495, 335, 109, 613
0.126854, -1025, -2038, -1495, 335, 109, 613
0.126988, -1025, -2038, -1495, 335, 109, 613
0.127123, -357, -2047, -710, -264, -241, 1078
0.127257, -357, -2047, -710, -264, -241, 1078
0.127391, -357, -2047, -710, -264, -241, 1078
0.127525, -357, -2047, -710, -264, -241, 1078
0.127659, -357, -2047, -710, -264, -241, 1078
0.127794, -357, -2047, -710, -264, -241, 1078
0.127928, -357, -2047, -710, -264, -241, 1078
0.128062, -357, -2047, -710, -264, -241, 1078
0.128208, -334, -2080, 26, -374, -424, 1125
0.128343, -334, -2080, 26, -374, -424, 1125
0.128477, -334, -2080, 26, -374, -424, 1125
0.128611, -334, -2080, 26, -374, -424, 1125
0.128746, -334, -2080, 26, -374, -424, 1125
0.128880, -334, -2080, 26, -374, -424, 1125
0.129014, -334, -2080, 26, -374, -424, 1125
0.129148, -581, -2057, -4, -394, -421, 1318
0.129283, -581, -2057, -4, -394, -421, 1318
0.129417, -581, -2057, -4, -394, -421, 1318
0.129551, -581, -2057, -4, -394, -421, 1318
0.129686, -581, -2057, -4, -394, -421, 1318
0.129820, -581, -2057, -4, -394, -421, 1318
0.129954, -581, -2057, -4, -394, -421, 1318
0.130088, -581, -2057, -4, -394, -421, 1318
0.130222, 289, -2050, 38, -428, -441, 1510
0.130356, 289, -2050, 38, -428, -441, 1510
0.130491, 289, -2050, 38, -428, -441, 1510
0.130625, 289, -2050, 38, -428, -441, 1510
0.130759, 289, -2050, 38, -428, -441, 1510
0.130893, 289, -2050, 38, -428, -441, 1510
0.131027, 289, -2050, 38, -428, -441, 1510
0.131161, 289, -2050, 38, -428, -441, 1510
0.131295, 1218, -2046, 377, -241, -422, 1057
0.131430, 1218, -2046, 377, -241, -422, 1057
0.131564, 1218, -2046, 377, -241, -422, 1057
0.131698, 1218, -2046, 377, -241, -422, 1057
0.131832, 1218, -2046, 377, -241, -422, 1057
0.131966, 1218, -2046, 377, -241, -422, 1057
0.132100, 1218, -2046, 377, -241, -422, 1057
0.132234, 978, -2046, 316, 67, -234, 277
0.132369, 978, -2046, 316, 67, -234, 277
0.132503, 978, -2046, 316, 67, -234, 277
0.132637, 978, -2046, 316, 67, -234, 277
0.132771, 978, -2046, 316, 67, -234, 277
0.132905, 978, -2046, 316, 67, -234, 277
0.133039, 978, -2046, 316, 67, -234, 277
0.133173, 978, -2046, 316, 67, -234, 277
0.133308, 297, -2092, -173, 125, -14, -116
0.133442, 297, -2092, -173, 125, -14, -116
0.133577, 297, -2092, -173, 125, -14, -116
0.133711, 297, -2092, -173, 125, -14, -116
0.133845, 297, -2092, -173, 125, -14, -116
0.133979, 297, -2092, -173, 125, -14, -116
0.134113, 297, -2092, -173, 125, -14, -116
0.134247, 58, -2096, -37, 48, 28, -111
0.134382, 58, -2096, -37, 48, 28, -111
0.134516, 58, -2096, -37, 48, 28, -111
0.134650, 58, -2096, -37, 48, 28, -111
0.134785, 58, -2096, -37, 48, 28, -111
0.134919, 58, -2096, -37, 48, 28, -111
0.135053, 58, -2096, -37, 48, 28, -111
0.135187, 58, -2096, -37, 48, 28, -111
0.135321, 48, -2067, 511, 271, -32, -98
0.135455, 48, -2067, 511, 271, -32, -98
0.135590, 48, -2067, 511, 271, -32, -98
0.135724, 48, -2067, 511, 271, -32, -98
0.135858, 48, -2067, 511, 271, -32, -98
0.135992, 48, -2067, 511, 271, -32, -98
0.136126, 48, -2067, 511, 271, -32, -98
0.136260, -194, -2082, 241, 541, -13, -98
0.136395, -194, -2082, 241, 541, -13, -98
0.136529, -194, -2082, 241, 541, -13, -98
0.136663, -194, -2082, 241, 541, -13, -98
0.136797, -194, -2082, 241, 541, -13, -98
0.136931, -194, -2082, 241, 541, -13, -98
0.137065, -194, -2082, 241, 541, -13, -98
0.137200, -194, -2082, 241, 541, -13, -98
0.137334, -79, -2062, -292, 470, -40, 1
0.137468, -79, -2062, -292, 470, -40, 1
0.137602, -79, -2062, -292, 470, -40, 1
0.137737, -79, -2062, -292, 470, -40, 1
0.137871, -79, -2062, -292, 470, -40, 1
0.138005, -79, -2062, -292, 470, -40, 1
0.138139, -79, -2062, -292, 470, -40, 1
0.138273, 686, -2001, -64, 353, -190, -133
0.138408, 686, -2001, -64, 353, -190, -133
0.138542, 686, -2001, -64, 353, -190, -133
0.138676, 686, -2001, -64, 353, -190, -133
0.138811, 686, -2001, -64, 353, -190, -133
0.138945, 686, -2001, -64, 353, -190, -133
0.139079, 686, -2001, -64, 353, -190, -133
0.139213, 686, -2001, -64, 353, -190, -133
0.139347, 1054, -1998, 826, 597, -202, -683
0.139482, 1054, -1998, 826, 597, -202, -683
0.139616, 1054, -1998, 826, 597, -202, -683
0.139750, 1054, -1998, 826, 597, -202, -683
0.139884, 1054, -1998, 826, 597, -202, -683
0.140018, 1054, -1998, 826, 597, -202, -683
0.140153, 1054, -1998, 826, 597, -202, -683
0.140287, 1054, -1998, 826, 597, -202, -683
0.140421, 417, -2052, 927, 1166, 29, -1194
0.140555, 417, -2052, 927, 1166, 29, -1194
0.140689, 417, -2052, 927, 1166, 29, -1194
0.140824, 417, -2052, 927, 1166, 29, -1194
0.140958, 417, -2052, 927, 1166, 29, -1194
0.141096, 417, -2052, 927, 1166, 29, -1194
0.141231, 417, -2052, 927, 1166, 29, -1194
0.141365, -740, -2107, -829, 1208, 246, -1099
0.141499, -740, -2107, -829, 1208, 246, -1099
0.141636, -740, -2107, -829, 1208, 246, -1099
0.141770, -740, -2107, -829, 1208, 246, -1099
0.141905, -740, -2107, -829, 1208, 246, -1099
0.142039, -740, -2107, -829, 1208, 246, -1099
0.142173, -740, -2107, -829, 1208, 246, -1099
0.142307, -740, -2107, -829, 1208, 246, -1099
0.142441, -1073, -2089, -1934, 364, 96, -376
0.142576, -1073, -2089, -1934, 364, 96, -376
0.142710, -1073, -2089, -1934, 364, 96, -376
0.142844, -1073, -2089, -1934, 364, 96, -376
0.142978, -1073, -2089, -1934, 364, 96, -376
0.143113, -1073, -2089, -1934, 364, 96, -376
0.143247, -1073, -2089, -1934, 364, 96, -376
0.143381, -213, -2027, -720, -249, -341, 181
0.143515, -213, -2027, -720, -249, -341, 181
0.143650, -213, -2027, -720, -249, -341, 181
0.143784, -213, -2027, -720, -249, -341, 181
0.143918, -213, -2027, -720, -249, -341, 181
0.144052, -213, -2027, -720, -249, -341, 181
0.144186, -213, -2027, -720, -249, -341, 181
0.144320, -213, -2027, -720, -249, -341, 181
0.144455, -2, -1998, 274, -219, -521, 126
0.144589, -2, -1998, 274, -219, -521, 126
0.144723, -2, -1998, 274, -219, -521, 126
0.144857, -2, -1998, 274, -219, -521, 126
0.144992, -2, -1998, 274, -219, -521, 126
0.145126, -2, -1998, 274, -219, -521, 126
0.145260, -2, -1998, 274, -219, -521, 126
0.145394, -431, -2045, 0, -263, -421, 129
0.145529, -431, -2045, 0, -263, -421, 129
0.145662, -431, -2045, 0, -263, -421, 129
0.145796, -431, -2045, 0, -263, -421, 129
0.145929, -431, -2045, 0, -263, -421, 129
0.146063, -431, -2045, 0, -263, -421, 129
0.146196, -431, -2045, 0, -263, -421, 129
0.146329, -431, -2045, 0, -263, -421, 129
0.146463, 158, -2142, -120, -396, -429, 278
0.146597, 158, -2142, -120, -396, -429, 278
0.146730, 158, -2142, -120, -396, -429, 278
0.146863, 158, -2142, -120, -396, -429, 278
0.146997, 158, -2142, -120, -396, -429, 278
0.147130, 158, -2142, -120, -396, -429, 278
0.147264, 158, -2142, -120, -396, -429, 278
0.147397, 854, -2153, 259, -249, -417, -45
0.147531, 854, -2153, 259, -249, -417, -45
0.147664, 854, -2153, 259, -249, -417, -45
0.147798, 854, -2153, 259, -249, -417, -45
0.147931, 854, -2153, 259, -249, -417, -45
0.148064, 854, -2153, 259, -249, -417, -45
0.148198, 854, -2153, 259, -249, -417, -45
0.148331, 854, -2153, 259, -249, -417, -45
0.148465, 764, -2063, 889, 160, -208, -609
0.148598, 764, -2063, 889, 160, -208, -609
0.148732, 764, -2063, 889, 160, -208, -609
0.148865, 764, -2063, 889, 160, -208, -609
0.148998, 764, -2063, 889, 160, -208, -609
0.149132, 764, -2063, 889, 160, -208, -609
0.149265, 764, -2063, 889, 160, -208, -609
0.149399, 764, -2063, 889, 160, -208, -609
0.149533, 637, -1966, 1351, 824, 26, -1029
0.149667, 637, -1966, 1351, 824, 26, -1029
0.149802, 637, -1966, 1351, 824, 26, -1029
0.149936, 637, -1966, 1351, 824, 26, -1029
0.150070, 637, -1966, 1351, 824, 26, -1029
0.150204, 637, -1966, 1351, 824, 26, -1029
0.150338, 637, -1966, 1351, 824, 26, -1029
0.150472, 247, -1982, 508, 1371, 230, -1340
0.150607, 247, -1982, 508, 1371, 230, -1340
0.150741, 247, -1982, 508, 1371, 230, -1340
0.150875, 247, -1982, 508, 1371, 230, -1340
0.151009, 247, -1982, 508, 1371, 230, -1340
0.151143, 247, -1982, 508, 1371, 230, -1340
0.151277, 247, -1982, 508, 1371, 230, -1340
0.151411, 247, -1982, 508, 1371, 230, -1340
0.151545, -611, -2160, -916, 1121, 298, -1297
0.151680, -611, -2160, -916, 1121, 298, -1297
0.151814, -611, -2160, -916, 1121, 298, -1297
0.151948, -611, -2160, -916, 1121, 298, -1297
0.152082, -611, -2160, -916, 1121, 298, -1297
0.152216, -611, -2160, -916, 1121, 298, -1297
0.152351, -611, -2160, -916, 1121, 298, -1297
0.152485, -597, -2163, -569, 641, 43, -852
0.152619, -597, -2163, -569, 641, 43, -852
0.152753, -597, -2163, -569, 641, 43, -852
0.152887, -597, -2163, -569, 641, 43, -852
0.153022, -597, -2163, -569, 641, 43, -852
0.153156, -597, -2163, -569, 641, 43, -852
0.153290, -597, -2163, -569, 641, 43, -852
0.153424, -597, -2163, -569, 641, 43, -852
0.153559, 202, -1958, 645, 885, -228, -700
0.153697, 202, -1958, 645, 885, -228, -700
0.153831, 202, -1958, 645, 885, -228, -700
0.153965, 202, -1958, 645, 885, -228, -700
0.154098, 202, -1958, 645, 885, -228, -700
0.154232, 202, -1958, 645, 885, -228, -700
0.154365, 202, -1958, 645, 885, -228, -700
0.154499, -97, -1950, 77, 1137, -125, -935
0.154633, -97, -1950, 77, 1137, -125, -935
0.154768, -97, -1950, 77, 1137, -125, -935
0.154902, -97, -1950, 77, 1137, -125, -935
0.155035, -97, -1950, 77, 1137, -125, -935
0.155169, -97, -1950, 77, 1137, -125, -935
0.155303, -97, -1950, 77, 1137, -125, -935
0.155437, -97, -1950, 77, 1137, -125, -935
0.155571, -1027, -2070, -1283, 566, -5, -722
0.155704, -1027, -2070, -1283, 566, -5, -722
0.155838, -1027, -2070, -1283, 566, -5, -722
0.155971, -1027, -2070, -1283, 566, -5, -722
0.156105, -1027, -2070, -1283, 566, -5, -722
0.156239, -1027, -2070, -1283, 566, -5, -722
0.156373, -1027, -2070, -1283, 566, -5, -722
0.156507, -1027, -2070, -1283, 566, -5, -722
0.156641, -789, -2082, -1253, -188, -234, -68
0.156776, -789, -2082, -1253, -188, -234, -68
0.156909, -789, -2082, -1253, -188, -234, -68
0.157043, -789, -2082, -1253, -188, -234, -68
0.157177, -789, -2082, -1253, -188, -234, -68
0.157310, -789, -2082, -1253, -188, -234, -68
0.157443, -789, -2082, -1253, -188, -234, -68
0.157578, 94, -2038, -461, -524, -489, 192
0.157715, 94, -2038, -461, -524, -489, 192
0.157849, 94, -2038, -461, -524, -489, 192
0.157983, 94, -2038, -461, -524, -489, 192
0.158118, 94, -2038, -461, -524, -489, 192
0.158252, 94, -2038, -461, -524, -489, 192
0.158386, 94, -2038, -461, -524, -489, 192
0.158520, 94, -2038, -461, -524, -489, 192
0.158654, 332, -2048, 166, -586, -529, -54
0.158788, 332, -2048, 166, -586, -529, -54
0.158922, 332, -2048, 166, -586, -529, -54
0.159056, 332, -2048, 166, -586, -529, -54
0.159190, 332, -2048, 166, -586, -529, -54
0.159324, 332, -2048, 166, -586, -529, -54
0.159458, 332, -2048, 166, -586, -529, -54
0.159592, 136, -2071, 424, -456, -467, -269
0.159726, 136, -2071, 424, -456, -467, -269
0.159860, 136, -2071, 424, -456, -467, -269
0.159994, 136, -2071, 424, -456, -467, -269
0.160128, 136, -2071, 424, -456, -467, -269
0.160262, 136, -2071, 424, -456, -467, -269
0.160396, 136, -2071, 424, -456, -467, -269
0.160530, 136, -2071, 424, -456, -467, -269
0.160664, 162, -2065, 207, -260, -355, -315
0.160798, 162, -2065, 207, -260, -355, -315
0.160932, 162, -2065, 207, -260, -355, -315
0.161066, 162, -2065, 207, -260, -355, -315
0.161200, 162, -2065, 207, -260, -355, -315
0.161334, 162, -2065, 207, -260, -355, -315
0.161468, 162, -2065, 207, -260, -355, -315
0.161602, 191, -2084, 89, -174, -258, -390
0.161736, 191, -2084, 89, -174, -258, -390
0.161870, 191, -2084, 89, -174, -258, -390
0.162004, 191, -2084, 89, -174, -258, -390
0.162138, 191, -2084, 89, -174, -258, -390
0.162272, 191, -2084, 89, -174, -258, -390
0.162406, 191, -2084, 89, -174, -258, -390
0.162540, 191, -2084, 89, -174, -258, -390
0.162674, -68, -2082, 346, -24, -236, -447
0.162808, -68, -2082, 346, -24, -236, -447
0.162942, -68, -2082, 346, -24, -236, -447
0.163076, -68, -2082, 346, -24, -236, -447
0.163210, -68, -2082, 346, -24, -236, -447
0.163344, -68, -2082, 346, -24, -236, -447
0.163478, -68, -2082, 346, -24, -236, -447
0.163612, -111, -2056, 442, 255, -225, -389
0.163746, -111, -2056, 442, 255, -225, -389
0.163880, -111, -2056, 442, 255, -225, -389
0.164014, -111, -2056, 442, 255, -225, -389
0.164148, -111, -2056, 442, 255, -225, -389
0.164282, -111, -2056, 442, 255, -225, -389
0.164416, -111, -2056, 442, 255, -225, -389
0.164550, -111, -2056, 442, 255, -225, -389
0.164684, 160, -2068, 159, 396, -193, -409
0.164818, 160, -2068, 159, 396, -193, -409
0.164952, 160, -2068, 159, 396, -193, -409
0.165086, 160, -2068, 159, 396, -193, -409
0.165220, 160, -2068, 159, 396, -193, -409
0.165354, 160, -2068, 159, 396, -193, -409
0.165488, 160, -2068, 159, 396, -193, -409
0.165622, 160, -2068, 159, 396, -193, -409
0.165756, 263, -2068, -137, 328, -197, -598
0.165890, 263, -2068, -137, 328, -197, -598
0.166024, 263, -2068, -137, 328, -197, -598
0.166158, 263, -2068, -137, 328, -197, -598
0.166316, 263, -2068, -137, 328, -197, -598
0.166451, 263, -2068, -137, 328, -197, -598
0.166586, 263, -2068, -137, 328, -197, -598
0.166720, 267, -2015, -230, 215, -208, -792
0.166854, 267, -2015, -230, 215, -208, -792
0.166988, 267, -2015, -230, 215, -208, -792
0.167122, 267, -2015, -230, 215, -208, -792
0.167256, 267, -2015, -230, 215, -208, -792
0.167390, 267, -2015, -230, 215, -208, -792
0.167524, 267, -2015, -230, 215, -208, -792
0.167658, 267, -2015, -230, 215, -208, -792
0.167792, 392, -2004, 176, 216, -135, -964
0.167926, 392, -2004, 176, 216, -135, -964
0.168060, 392, -2004, 176, 216, -135, -964
0.168194, 392, -2004, 176, 216, -135, -964
0.168328, 392, -2004, 176, 216, -135, -964
0.168462, 392, -2004, 176, 216, -135, -964
0.168596, 392, -2004, 176, 216, -135, -964
0.168730, 458, -2065, 971, 562, 19, -1210
0.168864, 458, -2065, 971, 562, 19, -1210
0.168998, 458, -2065, 971, 562, 19, -1210
0.169132, 458, -2065, 971, 562, 19, -1210
0.169266, 458, -2065, 971, 562, 19, -1210
0.169400, 458, -2065, 971, 562, 19, -1210
0.169534, 458, -2065, 971, 562, 19, -1210
0.169668, 458, -2065, 971, 562, 19, -1210
0.169802, -57, -2076, 1137, 1226, 230, -1402
0.169936, -57, -2076, 1137, 1226, 230, -1402
0.170070, -57, -2076, 1137, 1226, 230, -1402
0.170204, -57, -2076, 1137, 1226, 230, -1402
0.170339, -57, -2076, 1137, 1226, 230, -1402
0.170473, -57, -2076, 1137, 1226, 230, -1402
0.170607, -57, -2076, 1137, 1226, 230, -1402
0.170741, -827, -2077, 372, 1688, 393, -1179
0.170875, -827, -2077, 372, 1688, 393, -1179
0.171004, -827, -2077, 372, 1688, 393, -1179
0.171139, -827, -2077, 372, 1688, 393, -1179
0.171272, -827, -2077, 372, 1688, 393, -1179
0.171406, -827, -2077, 372, 1688, 393, -1179
0.171540, -827, -2077, 372, 1688, 393, -1179
0.171674, -827, -2077, 372, 1688, 393, -1179
0.171808, -703, -2078, -442, 1677, 298, -668
0.171942, -703, -2078, -442, 1677, 298, -668
0.172076, -703, -2078, -442, 1677, 298, -668
0.172210, -703, -2078, -442, 1677, 298, -668
0.172344, -703, -2078, -442, 1677, 298, -668
0.172478, -703, -2078, -442, 1677, 298, -668
0.172612, -703, -2078, -442, 1677, 298, -668
0.172746, -272, -2010, -1224, 1280, 11, -417
0.172880, -272, -2010, -1224, 1280, 11, -417
0.173014, -272, -2010, -1224, 1280, 11, -417
0.173148, -272, -2010, -1224, 1280, 11, -417
0.173282, -272, -2010, -1224, 1280, 11, -417
0.173416, -272, -2010, -1224, 1280, 11, -417
0.173550, -272, -2010, -1224, 1280, 11, -417
0.173684, -272, -2010, -1224, 1280, 11, -417
0.173818, -494, -2018, -1704, 427, -217, -304
0.173952, -494, -2018, -1704, 427, -217, -304
0.174086, -494, -2018, -1704, 427, -217, -304
0.174220, -494, -2018, -1704, 427, -217, -304
0.174354, -494, -2018, -1704, 427, -217, -304
0.174488, -494, -2018, -1704, 427, -217, -304
0.174622, -494, -2018, -1704, 427, -217, -304
0.174756, -572, -2064, -972, -427, -393, -15
0.174890, -572, -2064, -972, -427, -393, -15
0.175024, -572, -2064, -972, -427, -393, -15
0.175158, -572, -2064, -972, -427, -393, -15
0.175292, -572, -2064, -972, -427, -393, -15
0.175426, -572, -2064, -972, -427, -393, -15
0.175560, -572, -2064, -972, -427, -393, -15
0.175694, -572, -2064, -972, -427, -393, -15
0.175828, -214, -2035, -72, -706, -478, 200
0.175962, -214, -2035, -72, -706, -478, 200
0.176096, -214, -2035, -72, -706, -478, 200
0.176230, -214, -2035, -72, -706, -478, 200
0.176364, -214, -2035, -72, -706, -478, 200
0.176498, -214, -2035, -72, -706, -478, 200
0.176632, -214, -2035, -72, -706, -478, 200
0.176766, -214, -2035, -72, -706, -478, 200
0.176900, -141, -2018, -38, -771, -374, 214
0.177034, -141, -2018, -38, -771, -374, 214
0.177168, -141, -2018, -38, -771, -374, 214
0.177302, -141, -2018, -38, -771, -374, 214
0.177436, -141, -2018, -38, -771, -374, 214
0.177570, -141, -2018, -38, -771, -374, 214
0.177704, -141, -2018, -38, -771, -374, 214
0.177838, -509, -2057, -112, -920, -260, 300
0.177972, -509, -2057, -112, -920, -260, 300
0.178106, -509, -2057, -112, -920, -260, 300
0.178240, -509, -2057, -112, -920, -260, 300
0.178374, -509, -2057, -112, -920, -260, 300
0.178508, -509, -2057, -112, -920, -260, 300
0.178650, -509, -2057, -112, -920, -260, 300
0.178785, -509, -2057, -112, -920, -260, 300
0.178919, -748, -2097, 79, -933, -236, 620
0.179053, -748, -2097, 79, -933, -236, 620
0.179187, -748, -2097, 79, -933, -236, 620
0.179321, -748, -2097, 79, -933, -236, 620
0.179455, -748, -2097, 79, -933, -236, 620
0.179589, -748, -2097, 79, -933, -236, 620
0.179723, -748, -2097, 79, -933, -236, 620
0.179857, -310, -2087, 64, -844, -301, 919
0.179991, -310, -2087, 64, -844, -301, 919
0.180125, -310, -2087, 64, -844, -301, 919
0.180259, -310, -2087, 64, -844, -301, 919
0.180393, -310, -2087, 64, -844, -301, 919
0.180527, -310, -2087, 64, -844, -301, 919
0.180661, -310, -2087, 64, -844, -301, 919
0.180795, -310, -2087, 64, -844, -301, 919
0.180929, 430, -2065, -128, -868, -451, 786
0.181063, 430, -2065, -128, -868, -451, 786
0.181197, 430, -2065, -128, -868, -451, 786
0.181331, 430, -2065, -128, -868, -451, 786
0.181465, 430, -2065, -128, -868, -451, 786
0.181599, 430, -2065, -128, -868, -451, 786
0.181733, 430, -2065, -128, -868, -451, 786
0.181867, 682, -2070, -74, -947, -511, 301
0.182001, 682, -2070, -74, -947, -511, 301
0.182135, 682, -2070, -74, -947, -511, 301
0.182269, 682, -2070, -74, -947, -511, 301
0.182403, 682, -2070, -74, -947, -511, 301
0.182537, 682, -2070, -74, -947, -511, 301
0.182671, 682, -2070, -74, -947, -511, 301
0.182805, 682, -2070, -74, -947, -511, 301
0.182939, 609, -2052, 100, -952, -380, -140
0.183073, 609, -2052, 100, -952, -380, -140
0.183207, 609, -2052, 100, -952, -380, -140
0.183341, 609, -2052, 100, -952, -380, -140
0.183475, 609, -2052, 100, -952, -380, -140
0.183609, 609, -2052, 100, -952, -380, -140
0.183743, 609, -2052, 100, -952, -380, -140
0.183876, 609, -2052, 100, -952, -380, -140
0.184010, 581, -1992, 114, -938, -180, -476
0.184144, 581, -1992, 114, -938, -180, -476
0.184278, 581, -1992, 114, -938, -180, -476
0.184412, 581, -1992, 114, -938, -180, -476
0.184546, 581, -1992, 114, -938, -180, -476
0.184680, 581, -1992, 114, -938, -180, -476
0.184814, 581, -1992, 114, -938, -180, -476
0.184948, 255, -2011, 104, -943, -37, -736
0.185082, 255, -2011, 104, -943, -37, -736
0.185216, 255, -2011, 104, -943, -37, -736
0.185350, 255, -2011, 104, -943, -37, -736
0.185484, 255, -2011, 104, -943, -37, -736
0.185618, 255, -2011, 104, -943, -37, -736
0.185752, 255, -2011, 104, -943, -37, -736
0.185887, 255, -2011, 104, -943, -37, -736
0.186021, -378, -2130, 352, -833, 29, -699
0.186155, -378, -2130, 352, -833, 29, -699
0.186289, -378, -2130, 352, -833, 29, -699
0.186423, -378, -2130, 352, -833, 29, -699
0.186557, -378, -2130, 352, -833, 29, -699
0.186692, -378, -2130, 352, -833, 29, -699
0.186826, -378, -2130, 352, -833, 29, -699
0.186960, -649, -2150, 696, -483, 35, -324
0.187094, -649, -2150, 696, -483, 35, -324
0.187224, -649, -2150, 696, -483, 35, -324
0.187360, -649, -2150, 696, -483, 35, -324
0.187494, -649, -2150, 696, -483, 35, -324
0.187628, -649, -2150, 696, -483, 35, -324
0.187763, -649, -2150, 696, -483, 35, -324
0.187897, -649, -2150, 696, -483, 35, -324
0.188031, -83, -2072, 951, 28, 16, -9
0.188165, -83, -2072, 951, 28, 16, -9
0.188300, -83, -2072, 951, 28, 16, -9
0.188434, -83, -2072, 951, 28, 16, -9
0.188568, -83, -2072, 951, 28, 16, -9
0.188702, -83, -2072, 951, 28, 16, -9
0.188836, -83, -2072, 951, 28, 16, -9
0.188970, 900, -2073, 1312, 710, 25, -225
0.189105, 900, -2073, 1312, 710, 25, -225
0.189239, 900, -2073, 1312, 710, 25, -225
0.189373, 900, -2073, 1312, 710, 25, -225
0.189508, 900, -2073, 1312, 710, 25, -225
0.189641, 900, -2073, 1312, 710, 25, -225
0.189775, 900, -2073, 1312, 710, 25, -225
0.189908, 900, -2073, 1312, 710, 25, -225
0.190042, 1077, -2096, 898, 1476, 122, -935
0.190175, 1077, -2096, 898, 1476, 122, -935
0.190309, 1077, -2096, 898, 1476, 122, -935
0.190442, 1077, -2096, 898, 1476, 122, -935
0.190576, 1077, -2096, 898, 1476, 122, -935
0.190709, 1077, -2096, 898, 1476, 122, -935
0.190842, 1077, -2096, 898, 1476, 122, -935
0.190976, 184, -2043, -211, 1760, 262, -1408
0.191109, 184, -2043, -211, 1760, 262, -1408
0.191243, 184, -2043, -211, 1760, 262, -1408
0.191382, 184, -2043, -211, 1760, 262, -1408
0.191516, 184, -2043, -211, 1760, 262, -1408
0.191650, 184, -2043, -211, 1760, 262, -1408
0.191783, 184, -2043, -211, 1760, 262, -1408
0.191917, 184, -2043, -211, 1760, 262, -1408
0.192050, -562, -1986, -657, 1506, 286, -1194
0.192184, -562, -1986, -657, 1506, 286, -1194
0.192317, -562, -1986, -657, 1506, 286, -1194
0.192451, -562, -1986, -657, 1506, 286, -1194
0.192584, -562, -1986, -657, 1506, 286, -1194
0.192718, -562, -1986, -657, 1506, 286, -1194
0.192851, -562, -1986, -657, 1506, 286, -1194
0.192984, -562, -1986, -657, 1506, 286, -1194
0.193118, -916, -2000, -1321, 887, 198, -638
0.193251, -916, -2000, -1321, 887, 198, -638
0.193385, -916, -2000, -1321, 887, 198, -638
0.193520, -916, -2000, -1321, 887, 198, -638
0.193655, -916, -2000, -1321, 887, 198, -638
0.193789, -916, -2000, -1321, 887, 198, -638
0.193923, -916, -2000, -1321, 887, 198, -638
0.194057, -1189, -2071, -1693, -129, 3, 22
0.194192, -1189, -2071, -1693, -129, 3, 22
0.194326, -1189, -2071, -1693, -129, 3, 22
0.194460, -1189, -2071, -1693, -129, 3, 22
0.194594, -1189, -2071, -1693, -129, 3, 22
0.194728, -1189, -2071, -1693, -129, 3, 22
0.194862, -1189, -2071, -1693, -129, 3, 22
0.194997, -1189, -2071, -1693, -129, 3, 22
0.195131, -948, -2105, -490, -727, -358, 683
0.195265, -948, -2105, -490, -727, -358, 683
0.195399, -948, -2105, -490, -727, -358, 683
0.195533, -948, -2105, -490, -727, -358, 683
0.195667, -948, -2105, -490, -727, -358, 683
0.195802, -948, -2105, -490, -727, -358, 683
0.195936, -948, -2105, -490, -727, -358, 683
0.196070, -454, -2088, 447, -574, -613, 1040
0.196204, -454, -2088, 447, -574, -613, 1040
0.196338, -454, -2088, 447, -574, -613, 1040
0.196473, -454, -2088, 447, -574, -613, 1040
0.196607, -454, -2088, 447, -574, -613, 1040
0.196741, -454, -2088, 447, -574, -613, 1040
0.196875, -454, -2088, 447, -574, -613, 1040
0.197009, -454, -2088, 447, -574, -613, 1040
0.197143, -314, -2085, 307, -368, -620, 1117
0.197278, -314, -2085, 307, -368, -620, 1117
0.197412, -314, -2085, 307, -368, -620, 1117
0.197547, -314, -2085, 307, -368, -620, 1117
0.197681, -314, -2085, 307, -368, -620, 1117
0.197815, -314, -2085, 307, -368, -620, 1117
0.197949, -314, -2085, 307, -368, -620, 1117
0.198083, -266, -2065, 77, -282, -604, 1196
0.198217, -266, -2065, 77, -282, -604, 1196
0.198352, -266, -2065, 77, -282, -604, 1196
0.198486, -266, -2065, 77, -282, -604, 1196
0.198620, -266, -2065, 77, -282, -604, 1196
0.198754, -266, -2065, 77, -282, -604, 1196
0.198888, -266, -2065, 77, -282, -604, 1196
0.199022, -266, -2065, 77, -282, -604, 1196
0.199156, 143, -2031, 130, -165, -587, 1227
0.199291, 143, -2031, 130, -165, -587, 1227
0.199425, 143, -2031, 130, -165, -587, 1227
0.199559, 143, -2031, 130, -165, -587, 1227
0.199693, 143, -2031, 130, -165, -587, 1227
0.199827, 143, -2031, 130, -165, -587, 1227
0.199962, 143, -2031, 130, -165, -587, 1227
0.200096, 753, -2034, 306, -33, -527, 937
0.200230, 753, -2034, 306, -33, -527, 937
0.200364, 753, -2034, 306, -33, -527, 937
0.200499, 753, -2034, 306, -33, -527, 937
0.200633, 753, -2034, 306, -33, -527, 937
0.200767, 753, -2034, 306, -33, -527, 937
0.200901, 753, -2034, 306, -33, -527, 937
0.201035, 753, -2034, 306, -33, -527, 937
0.201169, 1019, -2028, 350, 105, -419, 337
0.201304, 1019, -2028, 350, 105, -419, 337
0.201438, 1019, -2028, 350, 105, -419, 337
0.201572, 1019, -2028, 350, 105, -419, 337
0.201706, 1019, -2028, 350, 105, -419, 337
0.201841, 1019, -2028, 350, 105, -419, 337
0.201975, 1019, -2028, 350, 105, -419, 337
0.202109, 1019, -2028, 350, 105, -419, 337
0.202243, 887, -2005, 525, 273, -222, -277
0.202377, 887, -2005, 525, 273, -222, -277
0.202511, 887, -2005, 525, 273, -222, -277
0.202645, 887, -2005, 525, 273, -222, -277
0.202779, 887, -2005, 525, 273, -222, -277
0.202914, 887, -2005, 525, 273, -222, -277
0.203044, 887, -2005, 525, 273, -222, -277
0.203173, 646, -2035, 1158, 658, 7, -722
0.203307, 646, -2035, 1158, 658, 7, -722
0.203442, 646, -2035, 1158, 658, 7, -722
0.203576, 646, -2035, 1158, 658, 7, -722
0.203710, 646, -2035, 1158, 658, 7, -722
0.203850, 646, -2035, 1158, 658, 7, -722
0.203984, 646, -2035, 1158, 658, 7, -722
0.204118, 646, -2035, 1158, 658, 7, -722
0.204252, 548, -2139, 1643, 1441, 252, -1036
0.204386, 548, -2139, 1643, 1441, 252, -1036
0.204520, 548, -2139, 1643, 1441, 252, -1036
0.204654, 548, -2139, 1643, 1441, 252, -1036
0.204788, 548, -2139, 1643, 1441, 252, -1036
0.204922, 548, -2139, 1643, 1441, 252, -1036
0.205056, 548, -2139, 1643, 1441, 252, -1036
0.205190, 370, -2171, 405, 2139, 479, -1334
0.205324, 370, -2171, 405, 2139, 479, -1334
0.205458, 370, -2171, 405, 2139, 479, -1334
0.205593, 370, -2171, 405, 2139, 479, -1334
0.205727, 370, -2171, 405, 2139, 479, -1334
0.205861, 370, -2171, 405, 2139, 479, -1334
0.205994, 370, -2171, 405, 2139, 479, -1334
0.206128, 370, -2171, 405, 2139, 479, -1334
0.206262, -512, -2046, -1976, 1751, 499, -1394
0.206396, -512, -2046, -1976, 1751, 499, -1394
0.206530, -512, -2046, -1976, 1751, 499, -1394
0.206664, -512, -2046, -1976, 1751, 499, -1394
0.206798, -512, -2046, -1976, 1751, 499, -1394
0.206932, -512, -2046, -1976, 1751, 499, -1394
0.207066, -512, -2046, -1976, 1751, 499, -1394
0.207200, -1420, -1945, -2334, 410, 191, -801
0.207334, -1420, -1945, -2334, 410, 191, -801
0.207468, -1420, -1945, -2334, 410, 191, -801
0.207602, -1420, -1945, -2334, 410, 191, -801
0.207736, -1420, -1945, -2334, 410, 191, -801
0.207870, -1420, -1945, -2334, 410, 191, -801
0.208004, -1420, -1945, -2334, 410, 191, -801
0.208138, -1420, -1945, -2334, 410, 191, -801
0.208272, -1271, -1976, -854, -590, -222, 133
0.208406, -1271, -1976, -854, -590, -222, 133
0.208540, -1271, -1976, -854, -590, -222, 133
0.208674, -1271, -1976, -854, -590, -222, 133
0.208808, -1271, -1976, -854, -590, -222, 133
0.208942, -1271, -1976, -854, -590, -222, 133
0.209076, -1271, -1976, -854, -590, -222, 133
0.209210, -1271, -1976, -854, -590, -222, 133
0.209344, -614, -2061, 5, -886, -467, 705
0.209478, -614, -2061, 5, -886, -467, 705
0.209612, -614, -2061, 5, -886, -467, 705
0.209746, -614, -2061, 5, -886, -467, 705
0.209880, -614, -2061, 5, -886, -467, 705
0.210014, -614, -2061, 5, -886, -467, 705
0.210148, -614, -2061, 5, -886, -467, 705
0.210282, -316, -2112, 177, -885, -545, 871
0.210416, -316, -2112, 177, -885, -545, 871
0.210550, -316, -2112, 177, -885, -545, 871
0.210684, -316, -2112, 177, -885, -545, 871
0.210818, -316, -2112, 177, -885, -545, 871
0.210952, -316, -2112, 177, -885, -545, 871
0.211086, -316, -2112, 177, -885, -545, 871
0.211220, -316, -2112, 177, -885, -545, 871
0.211354, -79, -2099, 430, -689, -501, 944
0.211488, -79, -2099, 430, -689, -501, 944
0.211622, -79, -2099, 430, -689, -501, 944
0.211756, -79, -2099, 430, -689, -501, 944
0.211890, -79, -2099, 430, -689, -501, 944
0.212024, -79, -2099, 430, -689, -501, 944
0.212158, -79, -2099, 430, -689, -501, 944
0.212292, 369, -2076, 695, -315, -359, 885
0.212426, 369, -2076, 695, -315, -359, 885
0.212560, 369, -2076, 695, -315, -359, 885
0.212694, 369, -2076, 695, -315, -359, 885
0.212828, 369, -2076, 695, -315, -359, 885
0.212962, 369, -2076, 695, -315, -359, 885
0.213096, 369, -2076, 695, -315, -359, 885
0.213230, 369, -2076, 695, -315, -359, 885
0.213363, 594, -2085, 702, 118, -194, 596
0.213498, 594, -2085, 702, 118, -194, 596
0.213635, 594, -2085, 702, 118, -194, 596
0.213769, 594, -2085, 702, 118, -194, 596
0.213903, 594, -2085, 702, 118, -194, 596
0.214037, 594, -2085, 702, 118, -194, 596
0.214171, 594, -2085, 702, 118, -194, 596
0.214305, 468, -2077, 533, 525, -55, 263
0.214439, 468, -2077, 533, 525, -55, 263
0.214572, 468, -2077, 533, 525, -55, 263
0.214706, 468, -2077, 533, 525, -55, 263
0.214840, 468, -2077, 533, 525, -55, 263
0.214974, 468, -2077, 533, 525, -55, 263
0.215108, 468, -2077, 533, 525, -55, 263
0.215242, 468, -2077, 533, 525, -55, 263
0.215376, 174, -2047, -75, 723, 38, 70
0.215510, 174, -2047, -75, 723, 38, 70
0.215644, 174, -2047, -75, 723, 38, 70
0.215778, 174, -2047, -75, 723, 38, 70
0.215912, 174, -2047, -75, 723, 38, 70
0.216046, 174, -2047, -75, 723, 38, 70
0.216180, 174, -2047, -75, 723, 38, 70
0.216314, -177, -2051, -716, 480, 28, 66
0.216448, -177, -2051, -716, 480, 28, 66
0.216592, -177, -2051, -716, 480, 28, 66
0.216726, -177, -2051, -716, 480, 28, 66
0.216860, -177, -2051, -716, 480, 28, 66
0.216994, -177, -2051, -716, 480, 28, 66
0.217128, -177, -2051, -716, 480, 28, 66
0.217262, -177, -2051, -716, 480, 28, 66
0.217396, -280, -2044, -344, 148, -119, 209
0.217531, -280, -2044, -344, 148, -119, 209
0.217665, -280, -2044, -344, 148, -119, 209
0.217798, -280, -2044, -344, 148, -119, 209
0.217932, -280, -2044, -344, 148, -119, 209
0.218066, -280, -2044, -344, 148, -119, 209
0.218200, -280, -2044, -344, 148, -119, 209
0.218334, -280, -2044, -344, 148, -119, 209
0.218468, -89, -2015, 356, 142, -221, 303
0.218602, -89, -2015, 356, 142, -221, 303
0.218736, -89, -2015, 356, 142, -221, 303
0.218870, -89, -2015, 356, 142, -221, 303
0.219004, -89, -2015, 356, 142, -221, 303
0.219138, -89, -2015, 356, 142, -221, 303
0.219272, -89, -2015, 356, 142, -221, 303
0.219406, 201, -2003, 552, 285, -145, 234
0.219540, 201, -2003, 552, 285, -145, 234
0.219674, 201, -2003, 552, 285, -145, 234
0.219808, 201, -2003, 552, 285, -145, 234
0.219942, 201, -2003, 552, 285, -145, 234
0.220076, 201, -2003, 552, 285, -145, 234
0.220209, 201, -2003, 552, 285, -145, 234
0.220343, 201, -2003, 552, 285, -145, 234
0.220477, 679, -2058, 384, 424, -17, -36
0.220611, 679, -2058, 384, 424, -17, -36
0.220745, 679, -2058, 384, 424, -17, -36
0.220879, 679, -2058, 384, 424, -17, -36
0.221013, 679, -2058, 384, 424, -17, -36
0.221147, 679, -2058, 384, 424, -17, -36
0.221281, 679, -2058, 384, 424, -17, -36
0.221415, 721, -2186, -161, 469, 109, -519
0.221549, 721, -2186, -161, 469, 109, -519
0.221683, 721, -2186, -161, 469, 109, -519
0.221817, 721, -2186, -161, 469, 109, -519
0.221951, 721, -2186, -161, 469, 109, -519
0.222085, 721, -2186, -161, 469, 109, -519
0.222219, 721, -2186, -161, 469, 109, -519
0.222353, 721, -2186, -161, 469, 109, -519
0.222487, 64, -2184, -417, 372, 198, -790
0.222621, 64, -2184, -417, 372, 198, -790
0.222755, 64, -2184, -417, 372, 198, -790
0.222889, 64, -2184, -417, 372, 198, -790
0.223023, 64, -2184, -417, 372, 198, -790
0.223157, 64, -2184, -417, 372, 198, -790
0.223291, 64, -2184, -417, 372, 198, -790
0.223425, -160, -2023, 154, 439, 166, -625
0.223559, -160, -2023, 154, 439, 166, -625
0.223693, -160, -2023, 154, 439, 166, -625
0.223827, -160, -2023, 154, 439, 166, -625
0.223960, -160, -2023, 154, 439, 166, -625
0.224094, -160, -2023, 154, 439, 166, -625
0.224228, -160, -2023, 154, 439, 166, -625
0.224362, -160, -2023, 154, 439, 166, -625
0.224496, 16, -1932, 546, 733, 133, -459
0.224630, 16, -1932, 546, 733, 133, -459
0.224764, 16, -1932, 546, 733, 133, -459
0.224898, 16, -1932, 546, 733, 133, -459
0.225032, 16, -1932, 546, 733, 133, -459
0.225166, 16, -1932, 546, 733, 133, -459
0.225300, 16, -1932, 546, 733, 133, -459
0.225434, 16, -1932, 546, 733, 133, -459
0.225568, 56, -1968, 271, 914, 177, -444
0.225702, 56, -1968, 271, 914, 177, -444
0.225836, 56, -1968, 271, 914, 177, -444
0.225970, 56, -1968, 271, 914, 177, -444
0.226104, 56, -1968, 271, 914, 177, -444
0.226239, 56, -1968, 271, 914, 177, -444
0.226373, 56, -1968, 271, 914, 177, -444
0.226507, 235, -2040, -222, 869, 190, -484
0.226641, 235, -2040, -222, 869, 190, -484
0.226775, 235, -2040, -222, 869, 190, -484
0.226909, 235, -2040, -222, 869, 190, -484
0.227043, 235, -2040, -222, 869, 190, -484
0.227178, 235, -2040, -222, 869, 190, -484
0.227312, 235, -2040, -222, 869, 190, -484
0.227446, 235, -2040, -222, 869, 190, -484
0.227580, 160, -2070, -733, 601, 168, -579
0.227714, 160, -2070, -733, 601, 168, -579
0.227848, 160, -2070, -733, 601, 168, -579
0.227983, 160, -2070, -733, 601, 168, -579
0.228117, 160, -2070, -733, 601, 168, -579
0.228251, 160, -2070, -733, 601, 168, -579
0.228385, 160, -2070, -733, 601, 168, -579
0.228519, -355, -2069, -820, 142, 128, -499
0.228653, -355, -2069, -820, 142, 128, -499
0.228787, -355, -2069, -820, 142, 128, -499
0.228922, -355, -2069, -820, 142, 128, -499
0.229056, -355, -2069, -820, 142, 128, -499
0.229190, -355, -2069, -820, 142, 128, -499
0.229324, -355, -2069, -820, 142, 128, -499
0.229463, -355, -2069, -820, 142, 128, -499
0.229597, -672, -2071, -562, -265, 35, -124
0.229731, -672, -2071, -562, -265, 35, -124
0.229866, -672, -2071, -562, -265, 35, -124
0.230000, -672, -2071, -562, -265, 35, -124
0.230134, -672, -2071, -562, -265, 35, -124
0.230268, -672, -2071, -562, -265, 35, -124
0.230402, -672, -2071, -562, -265, 35, -124
0.230536, -435, -2078, -443, -568, -90, 284
0.230671, -435, -2078, -443, -568, -90, 284
0.230805, -435, -2078, -443, -568, -90, 284
0.230939, -435, -2078, -443, -568, -90, 284
0.231073, -435, -2078, -443, -568, -90, 284
0.231207, -435, -2078, -443, -568, -90, 284
0.231341, -435, -2078, -443, -568, -90, 284
0.231476, -435, -2078, -443, -568, -90, 284
0.231610, 154, -2062, -147, -758, -220, 387
0.231744, 154, -2062, -147, -758, -220, 387
0.231878, 154, -2062, -147, -758, -220, 387
0.232012, 154, -2062, -147, -758, -220, 387
0.232146, 154, -2062, -147, -758, -220, 387
0.232280, 154, -2062, -147, -758, -220, 387
0.232415, 154, -2062, -147, -758, -220, 387
0.232549, 451, -2034, 341, -678, -260, 133
0.232683, 451, -2034, 341, -678, -260, 133
0.232817, 451, -2034, 341, -678, -260, 133
0.232951, 451, -2034, 341, -678, -260, 133
0.233086, 451, -2034, 341, -678, -260, 133
0.233220, 451, -2034, 341, -678, -260, 133
0.233354, 451, -2034, 341, -678, -260, 133
0.233488, 451, -2034, 341, -678, -260, 133
0.233623, -71, -2059, 448, -429, -136, -97
0.233757, -71, -2059, 448, -429, -136, -97
0.233891, -71, -2059, 448, -429, -136, -97
0.234026, -71, -2059, 448, -429, -136, -97
0.234160, -71, -2059, 448, -429, -136, -97
0.234294, -71, -2059, 448, -429, -136, -97
0.234428, -71, -2059, 448, -429, -136, -97
0.234562, -614, -2083, 170, -274, -20, 119
0.234697, -614, -2083, 170, -274, -20, 119
0.234831, -614, -2083, 170, -274, -20, 119
0.234965, -614, -2083, 170, -274, -20, 119
0.235099, -614, -2083, 170, -274, -20, 119
0.235233, -614, -2083, 170, -274, -20, 119
0.235367, -614, -2083, 170, -274, -20, 119
0.235502, -614, -2083, 170, -274, -20, 119
0.235636, 99, -2045, 168, -217, -85, 435
0.235770, 99, -2045, 168, -217, -85, 435
0.235904, 99, -2045, 168, -217, -85, 435
0.236038, 99, -2045, 168, -217, -85, 435
0.236172, 99, -2045, 168, -217, -85, 435
0.236306, 99, -2045, 168, -217, -85, 435
0.236441, 99, -2045, 168, -217, -85, 435
0.236575, 99, -2045, 168, -217, -85, 435
0.236709, 1196, -2001, 622, 11, -188, 80
0.236843, 1196, -2001, 622, 11, -188, 80
0.236977, 1196, -2001, 622, 11, -188, 80
0.237112, 1196, -2001, 622, 11, -188, 80
0.237246, 1196, -2001, 622, 11, -188, 80
0.237380, 1196, -2001, 622, 11, -188, 80
0.237514, 1196, -2001, 622, 11, -188, 80
0.237648, 1079, -2022, 816, 443, -119, -745
0.237783, 1079, -2022, 816, 443, -119, -745
0.237917, 1079, -2022, 816, 443, -119, -745
0.238051, 1079, -2022, 816, 443, -119, -745
0.238185, 1079, -2022, 816, 443, -119, -745
0.238319, 1079, -2022, 816, 443, -119, -745
0.238453, 1079, -2022, 816, 443, -119, -745
0.238587, 1079, -2022, 816, 443, -119, -745
0.238722, 202, -2049, 701, 883, 51, -1186
0.238856, 202, -2049, 701, 883, 51, -1186
0.238990, 202, -2049, 701, 883, 51, -1186
0.239124, 202, -2049, 701, 883, 51, -1186
0.239258, 202, -2049, 701, 883, 51, -1186
0.239392, 202, -2049, 701, 883, 51, -1186
0.239526, 202, -2049, 701, 883, 51, -1186
0.239661, -535, -2051, 93, 1177, 149, -1013
0.239795, -535, -2051, 93, 1177, 149, -1013
0.239929, -535, -2051, 93, 1177, 149, -1013
0.240063, -535, -2051, 93, 1177, 149, -1013
0.240198, -535, -2051, 93, 1177, 149, -1013
0.240332, -535, -2051, 93, 1177, 149, -1013
0.240466, -535, -2051, 93, 1177, 149, -1013
0.240600, -535, -2051, 93, 1177, 149, -1013
0.240734, -954, -2104, -1013, 924, 131, -470
0.240868, -954, -2104, -1013, 924, 131, -470
0.241003, -954, -2104, -1013, 924, 131, -470
0.241137, -954, -2104, -1013, 924, 131, -470
0.241271, -954, -2104, -1013, 924, 131, -470
0.241405, -954, -2104, -1013, 924, 131, -470
0.241540, -954, -2104, -1013, 924, 131, -470
0.241674, -730, -2119, -1013, 276, -54, 120
0.241808, -730, -2119, -1013, 276, -54, 120
0.241942, -730, -2119, -1013, 276, -54, 120
0.242076, -730, -2119, -1013, 276, -54, 120
0.242215, -730, -2119, -1013, 276, -54, 120
0.242349, -730, -2119, -1013, 276, -54, 120
0.242483, -730, -2119, -1013, 276, -54, 120
0.242617, -730, -2119, -1013, 276, -54, 120
0.242752, -357, -2036, -182, 8, -270, 412
0.242886, -357, -2036, -182, 8, -270, 412
0.243020, -357, -2036, -182, 8, -270, 412
0.243154, -357, -2036, -182, 8, -270, 412
0.243288, -357, -2036, -182, 8, -270, 412
0.243422, -357, -2036, -182, 8, -270, 412
0.243557, -357, -2036, -182, 8, -270, 412
0.243691, -292, -1983, 207, 40, -280, 500
0.243825, -292, -1983, 207, 40, -280, 500
0.243959, -292, -1983, 207, 40, -280, 500
0.244094, -292, -1983, 207, 40, -280, 500
0.244228, -292, -1983, 207, 40, -280, 500
0.244362, -292, -1983, 207, 40, -280, 500
0.244496, -292, -1983, 207, 40, -280, 500
0.244630, -292, -1983, 207, 40, -280, 500
0.244764, -5, -2037, 320, 93, -220, 526
0.244899, -5, -2037, 320, 93, -220, 526
0.245033, -5, -2037, 320, 93, -220, 526
0.245167, -5, -2037, 320, 93, -220, 526
0.245301, -5, -2037, 320, 93, -220, 526
0.245435, -5, -2037, 320, 93, -220, 526
0.245570, -5, -2037, 320, 93, -220, 526
0.245704, -5, -2037, 320, 93, -220, 526
0.245838, -40, -2128, -144, 142, -211, 420
0.245972, -40, -2128, -144, 142, -211, 420
0.246107, -40, -2128, -144, 142, -211, 420
0.246241, -40, -2128, -144, 142, -211, 420
0.246375, -40, -2128, -144, 142, -211, 420
0.246509, -40, -2128, -144, 142, -211, 420
0.246643, -40, -2128, -144, 142, -211, 420
0.246778, -701, -2099, -844, -104, -231, 541
0.246912, -701, -2099, -844, -104, -231, 541
0.247046, -701, -2099, -844, -104, -231, 541
0.247180, -701, -2099, -844, -104, -231, 541
0.247314, -701, -2099, -844, -104, -231, 541
0.247448, -701, -2099, -844, -104, -231, 541
0.247583, -701, -2099, -844, -104, -231, 541
0.247717, -701, -2099, -844, -104, -231, 541
0.247851, -924, -2009, -761, -539, -384, 1063
0.247985, -924, -2009, -761, -539, -384, 1063
0.248119, -924, -2009, -761, -539, -384, 1063
0.248253, -924, -2009, -761, -539, -384, 1063
0.248388, -924, -2009, -761, -539, -384, 1063
0.248522, -924, -2009, -761, -539, -384, 1063
0.248656, -924, -2009, -761, -539, -384, 1063
0.248790, -510, -2016, -224, -814, -583, 1518
0.248924, -510, -2016, -224, -814, -583, 1518
0.249058, -510, -2016, -224, -814, -583, 1518
0.249193, -510, -2016, -224, -814, -583, 1518
0.249327, -510, -2016, -224, -814, -583, 1518
0.249461, -510, -2016, -224, -814, -583, 1518
0.249595, -510, -2016, -224, -814, -583, 1518
0.249730, -510, -2016, -224, -814, -583, 1518
0.249864, 100, -2062, 113, -900, -677, 1582
0.249998, 100, -2062, 113, -900, -677, 1582
0.250132, 100, -2062, 113, -900, -677, 1582
0.250266, 100, -2062, 113, -900, -677, 1582
0.250401, 100, -2062, 113, -900, -677, 1582
0.250535, 100, -2062, 113, -900, -677, 1582
0.250669, 100, -2062, 113, -900, -677, 1582
0.250803, 511, -2086, 180, -875, -687, 1288
0.250937, 511, -2086, 180, -875, -687, 1288
0.251071, 511, -2086, 180, -875, -687, 1288
0.251205, 511, -2086, 180, -875, -687, 1288
0.251340, 511, -2086, 180, -875, -687, 1288
0.251474, 511, -2086, 180, -875, -687, 1288
0.251608, 511, -2086, 180, -875, -687, 1288
0.251742, 511, -2086, 180, -875, -687, 1288
0.251876, 374, -2107, 208, -782, -595, 924
0.252011, 374, -2107, 208, -782, -595, 924
0.252145, 374, -2107, 208, -782, -595, 924
0.252279, 374, -2107, 208, -782, -595, 924
0.252413, 374, -2107, 208, -782, -595, 924
0.252547, 374, -2107, 208, -782, -595, 924
0.252681, 374, -2107, 208, -782, -595, 924
0.252815, 216, -2092, 401, -580, -442, 765
0.252950, 216, -2092, 401, -580, -442, 765
0.253084, 216, -2092, 401, -580, -442, 765
0.253218, 216, -2092, 401, -580, -442, 765
0.253352, 216, -2092, 401, -580, -442, 765
0.253486, 216, -2092, 401, -580, -442, 765
0.253621, 216, -2092, 401, -580, -442, 765
0.253755, 216, -2092, 401, -580, -442, 765
0.253889, 281, -2032, 331, -322, -309, 666
0.254024, 281, -2032, 331, -322, -309, 666
0.254172, 281, -2032, 331, -322, -309, 666
0.254310, 281, -2032, 331, -322, -309, 666
0.254444, 281, -2032, 331, -322, -309, 666
0.254579, 281, -2032, 331, -322, -309, 666
0.254714, 281, -2032, 331, -322, -309, 666
0.254851, 5, -2004, -132, -300, -199, 547
0.255009, 5, -2004, -132, -300, -199, 547
0.255154, 5, -2004, -132, -300, -199, 547
0.255294, 5, -2004, -132, -300, -199, 547
0.255432, 5, -2004, -132, -300, -199, 547
0.255567, 5, -2004, -132, -300, -199, 547
0.255704, 5, -2004, -132, -300, -199, 547
0.255839, 5, -2004, -132, -300, -199, 547
0.255976, -181, -2037, -201, -480, -160, 613
0.256111, -181, -2037, -201, -480, -160, 613
0.256246, -181, -2037, -201, -480, -160, 613
0.256380, -181, -2037, -201, -480, -160, 613
0.256517, -181, -2037, -201, -480, -160, 613
0.256661, -181, -2037, -201, -480, -160, 613
0.256804, -181, -2037, -201, -480, -160, 613
0.256943, 417, -2050, 146, -482, -196, 632
0.257080, 417, -2050, 146, -482, -196, 632
0.257214, 417, -2050, 146, -482, -196, 632
0.257350, 417, -2050, 146, -482, -196, 632
0.257484, 417, -2050, 146, -482, -196, 632
0.257620, 417, -2050, 146, -482, -196, 632
0.257754, 417, -2050, 146, -482, -196, 632
0.257888, 1254, -2052, 397, -304, -163, 167
0.258021, 1254, -2052, 397, -304, -163, 167
0.258155, 1254, -2052, 397, -304, -163, 167
0.258289, 1254, -2052, 397, -304, -163, 167
0.258424, 1254, -2052, 397, -304, -163, 167
0.258558, 1254, -2052, 397, -304, -163, 167
0.258693, 1254, -2052, 397, -304, -163, 167
0.258826, 1254, -2052, 397, -304, -163, 167
0.258960, 1442, -2086, 859, 28, 21, -685
0.259094, 1442, -2086, 859, 28, 21, -685
0.259228, 1442, -2086, 859, 28, 21, -685
0.259362, 1442, -2086, 859, 28, 21, -685
0.259495, 1442, -2086, 859, 28, 21, -685
0.259629, 1442, -2086, 859, 28, 21, -685
0.259762, 1442, -2086, 859, 28, 21, -685
0.259896, 1442, -2086, 859, 28, 21, -685
0.260029, 910, -2101, 1364, 722, 331, -1391
0.260164, 910, -2101, 1364, 722, 331, -1391
0.260298, 910, -2101, 1364, 722, 331, -1391
0.260431, 910, -2101, 1364, 722, 331, -1391
0.260565, 910, -2101, 1364, 722, 331, -1391
0.260699, 910, -2101, 1364, 722, 331, -1391
0.260833, 910, -2101, 1364, 722, 331, -1391
0.260967, 296, -2121, 683, 1443, 641, -1648
0.261101, 296, -2121, 683, 1443, 641, -1648
0.261235, 296, -2121, 683, 1443, 641, -1648
0.261368, 296, -2121, 683, 1443, 641, -1648
0.261512, 296, -2121, 683, 1443, 641, -1648
0.261649, 296, -2121, 683, 1443, 641, -1648
0.261790, 296, -2121, 683, 1443, 641, -1648
0.261925, 296, -2121, 683, 1443, 641, -1648
0.262060, -244, -2142, -1077, 1417, 719, -1567
0.262195, -244, -2142, -1077, 1417, 719, -1567
0.262330, -244, -2142, -1077, 1417, 719, -1567
0.262466, -244, -2142, -1077, 1417, 719, -1567
0.262601, -244, -2142, -1077, 1417, 719, -1567
0.262736, -244, -2142, -1077, 1417, 719, -1567
0.262871, -244, -2142, -1077, 1417, 719, -1567
0.263007, -676, -2064, -1641, 675, 466, -1211
0.263142, -676, -2064, -1641, 675, 466, -1211
0.263278, -676, -2064, -1641, 675, 466, -1211
0.263413, -676, -2064, -1641, 675, 466, -1211
0.263547, -676, -2064, -1641, 675, 466, -1211
0.263681, -676, -2064, -1641, 675, 466, -1211
0.263815, -676, -2064, -1641, 675, 466, -1211
0.263949, -676, -2064, -1641, 675, 466, -1211
0.264083, -662, -1981, -419, 155, 121, -711
0.264254, -662, -1981, -419, 155, 121, -711
0.264395, -662, -1981, -419, 155, 121, -711
0.264538, -662, -1981, -419, 155, 121, -711
0.264673, -662, -1981, -419, 155, 121, -711
0.264807, -662, -1981, -419, 155, 121, -711
0.264941, -662, -1981, -419, 155, 121, -711
0.265075, -450, -2017, 746, 292, -12, -327
0.265209, -450, -2017, 746, 292, -12, -327
0.265344, -450, -2017, 746, 292, -12, -327
0.265478, -450, -2017, 746, 292, -12, -327
0.265612, -450, -2017, 746, 292, -12, -327
0.265746, -450, -2017, 746, 292, -12, -327
0.265880, -450, -2017, 746, 292, -12, -327
0.266014, 208, -2037, 1268, 833, 62, -186
0.266148, 208, -2037, 1268, 833, 62, -186
0.266282, 208, -2037, 1268, 833, 62, -186
0.266416, 208, -2037, 1268, 833, 62, -186
0.266550, 208, -2037, 1268, 833, 62, -186
0.266684, 208, -2037, 1268, 833, 62, -186
0.266818, 208, -2037, 1268, 833, 62, -186
0.266952, 208, -2037, 1268, 833, 62, -186
0.267086, 1407, -1958, 1360, 1583, 238, -608
0.267220, 1407, -1958, 1360, 1583, 238, -608
0.267354, 1407, -1958, 1360, 1583, 238, -608
0.267488, 1407, -1958, 1360, 1583, 238, -608
0.267656, 1407, -1958, 1360, 1583, 238, -608
0.267797, 1407, -1958, 1360, 1583, 238, -608
0.267932, 1407, -1958, 1360, 1583, 238, -608
0.268066, 1388, -1992, 680, 2207, 543, -1568
0.268200, 1388, -1992, 680, 2207, 543, -1568
0.268334, 1388, -1992, 680, 2207, 543, -1568
0.268468, 1388, -1992, 680, 2207, 543, -1568
0.268602, 1388, -1992, 680, 2207, 543, -1568
0.268736, 1388, -1992, 680, 2207, 543, -1568
0.268870, 1388, -1992, 680, 2207, 543, -1568
0.269004, 1388, -1992, 680, 2207, 543, -1568
0.269138, -458, -2171, -1036, 2132, 836, -1997
0.269272, -458, -2171, -1036, 2132, 836, -1997
0.269406, -458, -2171, -1036, 2132, 836, -1997
0.269541, -458, -2171, -1036, 2132, 836, -1997
0.269674, -458, -2171, -1036, 2132, 836, -1997
0.269808, -458, -2171, -1036, 2132, 836, -1997
0.269942, -458, -2171, -1036, 2132, 836, -1997
0.270075, -1871, -2158, -2605, 1101, 775, -1149
0.270211, -1871, -2158, -2605, 1101, 775, -1149
0.270355, -1871, -2158, -2605, 1101, 775, -1149
0.270493, -1871, -2158, -2605, 1101, 775, -1149
0.270627, -1871, -2158, -2605, 1101, 775, -1149
0.270761, -1871, -2158, -2605, 1101, 775, -1149
0.270895, -1871, -2158, -2605, 1101, 775, -1149
0.271028, -1871, -2158, -2605, 1101, 775, -1149
0.271161, -1128, -1975, -1933, -192, 285, 58
0.271295, -1128, -1975, -1933, -192, 285, 58
0.271429, -1128, -1975, -1933, -192, 285, 58
0.271562, -1128, -1975, -1933, -192, 285, 58
0.271696, -1128, -1975, -1933, -192, 285, 58
0.271829, -1128, -1975, -1933, -192, 285, 58
0.271964, -1128, -1975, -1933, -192, 285, 58
0.272097, 5, -1998, -50, -747, -160, 350
0.272231, 5, -1998, -50, -747, -160, 350
0.272364, 5, -1998, -50, -747, -160, 350
0.272498, 5, -1998, -50, -747, -160, 350
0.272631, 5, -1998, -50, -747, -160, 350
0.272765, 5, -1998, -50, -747, -160, 350
0.272898, 5, -1998, -50, -747, -160, 350
0.273032, 5, -1998, -50, -747, -160, 350
0.273165, -56, -2140, 760, -604, -211, 69
0.273299, -56, -2140, 760, -604, -211, 69
0.273432, -56, -2140, 760, -604, -211, 69
0.273562, -56, -2140, 760, -604, -211, 69
0.273697, -56, -2140, 760, -604, -211, 69
0.273831, -56, -2140, 760, -604, -211, 69
0.273965, -56, -2140, 760, -604, -211, 69
0.274099, 74, -2165, 663, -262, -155, -45
0.274233, 74, -2165, 663, -262, -155, -45
0.274367, 74, -2165, 663, -262, -155, -45
0.274501, 74, -2165, 663, -262, -155, -45
0.274635, 74, -2165, 663, -262, -155, -45
0.274769, 74, -2165, 663, -262, -155, -45
0.274903, 74, -2165, 663, -262, -155, -45
0.275037, 74, -2165, 663, -262, -155, -45
0.275171, 552, -2118, 407, 97, -165, -273
0.275305, 552, -2118, 407, 97, -165, -273
0.275439, 552, -2118, 407, 97, -165, -273
0.275573, 552, -2118, 407, 97, -165, -273
0.275707, 552, -2118, 407, 97, -165, -273
0.275841, 552, -2118, 407, 97, -165, -273
0.275975, 552, -2118, 407, 97, -165, -273
0.276109, 552, -2118, 407, 97, -165, -273
0.276242, 425, -2056, 227, 398, -152, -658
0.276377, 425, -2056, 227, 398, -152, -658
0.276510, 425, -2056, 227, 398, -152, -658
0.276644, 425, -2056, 227, 398, -152, -658
0.276778, 425, -2056, 227, 398, -152, -658
0.276915, 425, -2056, 227, 398, -152, -658
0.277051, 425, -2056, 227, 398, -152, -658
0.277188, -201, -2023, -234, 505, -180, -802
0.277323, -201, -2023, -234, 505, -180, -802
0.277457, -201, -2023, -234, 505, -180, -802
0.277591, -201, -2023, -234, 505, -180, -802
0.277726, -201, -2023, -234, 505, -180, -802
0.277860, -201, -2023, -234, 505, -180, -802
0.277994, -201, -2023, -234, 505, -180, -802
0.278128, -201, -2023, -234, 505, -180, -802
0.278262, -1121, -2013, -912, 166, -266, -437
0.278396, -1121, -2013, -912, 166, -266, -437
0.278530, -1121, -2013, -912, 166, -266, -437
0.278664, -1121, -2013, -912, 166, -266, -437
0.278798, -1121, -2013, -912, 166, -266, -437
0.278932, -1121, -2013, -912, 166, -266, -437
0.279066, -1121, -2013, -912, 166, -266, -437
0.279200, -1212, -2021, -666, -396, -385, 387
0.279334, -1212, -2021, -666, -396, -385, 387
0.279468, -1212, -2021, -666, -396, -385, 387
0.279602, -1212, -2021, -666, -396, -385, 387
0.279736, -1212, -2021, -666, -396, -385, 387
0.279870, -1212, -2021, -666, -396, -385, 387
0.280004, -1212, -2021, -666, -396, -385, 387
0.280159, -1212, -2021, -666, -396, -385, 387
0.280295, 25, -2042, 287, -568, -452, 877
0.280429, 25, -2042, 287, -568, -452, 877
0.280563, 25, -2042, 287, -568, -452, 877
0.280697, 25, -2042, 287, -568, -452, 877
0.280831, 25, -2042, 287, -568, -452, 877
0.280965, 25, -2042, 287, -568, -452, 877
0.281099, 25, -2042, 287, -568, -452, 877
0.281233, 905, -2036, 827, -303, -296, 487
0.281367, 905, -2036, 827, -303, -296, 487
0.281501, 905, -2036, 827, -303, -296, 487
0.281642, 905, -2036, 827, -303, -296, 487
0.281776, 905, -2036, 827, -303, -296, 487
0.281910, 905, -2036, 827, -303, -296, 487
0.282043, 905, -2036, 827, -303, -296, 487
0.282177, 905, -2036, 827, -303, -296, 487
0.282311, 780, -2013, 1175, 181, -2, -194
0.282446, 780, -2013, 1175, 181, -2, -194
0.282580, 780, -2013, 1175, 181, -2, -194
0.282708, 780, -2013, 1175, 181, -2, -194
0.282851, 780, -2013, 1175, 181, -2, -194
0.282991, 780, -2013, 1175, 181, -2, -194
0.283126, 780, -2013, 1175, 181, -2, -194
0.283260, 487, -1988, 1524, 962, 275, -612
0.283394, 487, -1988, 1524, 962, 275, -612
0.283528, 487, -1988, 1524, 962, 275, -612
0.283663, 487, -1988, 1524, 962, 275, -612
0.283797, 487, -1988, 1524, 962, 275, -612
0.283931, 487, -1988, 1524, 962, 275, -612
0.284066, 487, -1988, 1524, 962, 275, -612
0.284201, 487, -1988, 1524, 962, 275, -612
0.284335, -215, -2078, 554, 1625, 527, -735
0.284469, -215, -2078, 554, 1625, 527, -735
0.284603, -215, -2078, 554, 1625, 527, -735
0.284737, -215, -2078, 554, 1625, 527, -735
0.284871, -215, -2078, 554, 1625, 527, -735
0.285005, -215, -2078, 554, 1625, 527, -735
0.285139, -215, -2078, 554, 1625, 527, -735
0.285273, -1396, -2208, -1415, 1334, 546, -300
0.285408, -1396, -2208, -1415, 1334, 546, -300
0.285542, -1396, -2208, -1415, 1334, 546, -300
0.285676, -1396, -2208, -1415, 1334, 546, -300
0.285810, -1396, -2208, -1415, 1334, 546, -300
0.285944, -1396, -2208, -1415, 1334, 546, -300
0.286079, -1396, -2208, -1415, 1334, 546, -300
0.286213, -1396, -2208, -1415, 1334, 546, -300
0.286347, -1545, -2083, -1864, 442, 87, 672
0.286481, -1545, -2083, -1864, 442, 87, 672
0.286616, -1545, -2083, -1864, 442, 87, 672
0.286750, -1545, -2083, -1864, 442, 87, 672
0.286884, -1545, -2083, -1864, 442, 87, 672
0.287018, -1545, -2083, -1864, 442, 87, 672
0.287152, -1545, -2083, -1864, 442, 87, 672
0.287286, -457, -1922, -856, -144, -493, 1327
0.287421, -457, -1922, -856, -144, -493, 1327
0.287555, -457, -1922, -856, -144, -493, 1327
0.287689, -457, -1922, -856, -144, -493, 1327
0.287823, -457, -1922, -856, -144, -493, 1327
0.287958, -457, -1922, -856, -144, -493, 1327
0.288092, -457, -1922, -856, -144, -493, 1327
0.288226, -457, -1922, -856, -144, -493, 1327
0.288360, 401, -2012, -120, -438, -703, 1186
0.288494, 401, -2012, -120, -438, -703, 1186
0.288629, 401, -2012, -120, -438, -703, 1186
0.288763, 401, -2012, -120, -438, -703, 1186
0.288897, 401, -2012, -120, -438, -703, 1186
0.289031, 401, -2012, -120, -438, -703, 1186
0.289165, 401, -2012, -120, -438, -703, 1186
0.289300, 670, -2119, 144, -564, -657, 686
0.289434, 670, -2119, 144, -564, -657, 686
0.289569, 670, -2119, 144, -564, -657, 686
0.289704, 670, -2119, 144, -564, -657, 686
0.289838, 670, -2119, 144, -564, -657, 686
0.289972, 670, -2119, 144, -564, -657, 686
0.290106, 670, -2119, 144, -564, -657, 686
0.290240, 670, -2119, 144, -564, -657, 686
0.290374, 787, -2101, 452, -360, -497, 225
0.290509, 787, -2101, 452, -360, -497, 225
0.290643, 787, -2101, 452, -360, -497, 225
0.290777, 787, -2101, 452, -360, -497, 225
0.290911, 787, -2101, 452, -360, -497, 225
0.291045, 787, -2101, 452, -360, -497, 225
0.291180, 787, -2101, 452, -360, -497, 225
0.291314, 787, -2101, 452, -360, -497, 225
0.291448, 819, -2036, 707, 67, -155, -163
0.291582, 819, -2036, 707, 67, -155, -163
0.291716, 819, -2036, 707, 67, -155, -163
0.291851, 819, -2036, 707, 67, -155, -163
0.291985, 819, -2036, 707, 67, -155, -163
0.292119, 819, -2036, 707, 67, -155, -163
0.292253, 819, -2036, 707, 67, -155, -163
0.292387, 699, -1992, 414, 385, 185, -508
0.292521, 699, -1992, 414, 385, 185, -508
0.292672, 699, -1992, 414, 385, 185, -508
0.292807, 699, -1992, 414, 385, 185, -508
0.292941, 699, -1992, 414, 385, 185, -508
0.293075, 699, -1992, 414, 385, 185, -508
0.293209, 699, -1992, 414, 385, 185, -508
0.293343, 699, -1992, 414, 385, 185, -508
0.293477, 196, -2050, -315, 358, 327, -736
0.293612, 196, -2050, -315, 358, 327, -736
0.293746, 196, -2050, -315, 358, 327, -736
0.293880, 196, -2050, -315, 358, 327, -736
0.294014, 196, -2050, -315, 358, 327, -736
0.294149, 196, -2050, -315, 358, 327, -736
0.294295, 196, -2050, -315, 358, 327, -736
0.294431, -255, -2111, -764, 63, 271, -650
0.294567, -255, -2111, -764, 63, 271, -650
0.294702, -255, -2111, -764, 63, 271, -650
0.294837, -255, -2111, -764, 63, 271, -650
0.294971, -255, -2111, -764, 63, 271, -650
0.295105, -255, -2111, -764, 63, 271, -650
0.295234, -255, -2111, -764, 63, 271, -650
0.295365, -255, -2111, -764, 63, 271, -650
0.295499, 138, -2066, -529, -217, 80, -474
0.295634, 138, -2066, -529, -217, 80, -474
0.295768, 138, -2066, -529, -217, 80, -474
0.295904, 138, -2066, -529, -217, 80, -474
0.296033, 138, -2066, -529, -217, 80, -474
0.296168, 138, -2066, -529, -217, 80, -474
0.296302, 138, -2066, -529, -217, 80, -474
0.296436, 577, -2048, 36, -306, -45, -671
0.296571, 577, -2048, 36, -306, -45, -671
0.296705, 577, -2048, 36, -306, -45, -671
0.296839, 577, -2048, 36, -306, -45, -671
0.296973, 577, -2048, 36, -306, -45, -671
0.297108, 577, -2048, 36, -306, -45, -671
0.297242, 577, -2048, 36, -306, -45, -671
0.297376, 577, -2048, 36, -306, -45, -671
0.297511, 156, -2085, 551, -142, 51, -978
0.297646, 156, -2085, 551, -142, 51, -978
0.297780, 156, -2085, 551, -142, 51, -978
0.297914, 156, -2085, 551, -142, 51, -978
0.298048, 156, -2085, 551, -142, 51, -978
0.298182, 156, -2085, 551, -142, 51, -978
0.298317, 156, -2085, 551, -142, 51, -978
0.298451, -482, -2090, 641, 224, 218, -890
0.298585, -482, -2090, 641, 224, 218, -890
0.298719, -482, -2090, 641, 224, 218, -890
0.298854, -482, -2090, 641, 224, 218, -890
0.298988, -482, -2090, 641, 224, 218, -890
0.299122, -482, -2090, 641, 224, 218, -890
0.299256, -482, -2090, 641, 224, 218, -890
0.299390, -482, -2090, 641, 224, 218, -890
0.299525, -447, -2072, 239, 504, 264, -524
0.299659, -447, -2072, 239, 504, 264, -524
0.299793, -447, -2072, 239, 504, 264, -524
0.299927, -447, -2072, 239, 504, 264, -524
0.300062, -447, -2072, 239, 504, 264, -524
0.300196, -447, -2072, 239, 504, 264, -524
0.300330, -447, -2072, 239, 504, 264, -524
0.300464, 170, -2047, 9, 576, 161, -385
0.300599, 170, -2047, 9, 576, 161, -385
0.300733, 170, -2047, 9, 576, 161, -385
0.300867, 170, -2047, 9, 576, 161, -385
0.301001, 170, -2047, 9, 576, 161, -385
0.301135, 170, -2047, 9, 576, 161, -385
0.301269, 170, -2047, 9, 576, 161, -385
0.301404, 170, -2047, 9, 576, 161, -385
0.301538, 194, -2013, -63, 602, 42, -600
0.301673, 194, -2013, -63, 602, 42, -600
0.301807, 194, -2013, -63, 602, 42, -600
0.301941, 194, -2013, -63, 602, 42, -600
0.302075, 194, -2013, -63, 602, 42, -600
0.302210, 194, -2013, -63, 602, 42, -600
0.302344, 194, -2013, -63, 602, 42, -600
0.302478, -744, -2032, -512, 435, 16, -569
0.302613, -744, -2032, -512, 435, 16, -569
0.302747, -744, -2032, -512, 435, 16, -569
0.302881, -744, -2032, -512, 435, 16, -569
0.303015, -744, -2032, -512, 435, 16, -569
0.303150, -744, -2032, -512, 435, 16, -569
0.303284, -744, -2032, -512, 435, 16, -569
0.303418, -744, -2032, -512, 435, 16, -569
0.303552, -1355, -2105, -735, 1, -79, 78
0.303687, -1355, -2105, -735, 1, -79, 78
0.303821, -1355, -2105, -735, 1, -79, 78
0.303955, -1355, -2105, -735, 1, -79, 78
0.304089, -1355, -2105, -735, 1, -79, 78
0.304224, -1355, -2105, -735, 1, -79, 78
0.304358, -1355, -2105, -735, 1, -79, 78
0.304492, -1355, -2105, -735, 1, -79, 78
0.304626, -881, -2110, -296, -272, -336, 804
0.304760, -881, -2110, -296, -272, -336, 804
0.304895, -881, -2110, -296, -272, -336, 804
0.305029, -881, -2110, -296, -272, -336, 804
0.305163, -881, -2110, -296, -272, -336, 804
0.305297, -881, -2110, -296, -272, -336, 804
0.305432, -881, -2110, -296, -272, -336, 804
0.305566, -84, -2062, -11, -290, -524, 1012
0.305715, -84, -2062, -11, -290, -524, 1012
0.305850, -84, -2062, -11, -290, -524, 1012
0.305984, -84, -2062, -11, -290, -524, 1012
0.306118, -84, -2062, -11, -290, -524, 1012
0.306253, -84, -2062, -11, -290, -524, 1012
0.306387, -84, -2062, -11, -290, -524, 1012
0.306521, -84, -2062, -11, -290, -524, 1012
0.306655, 19, -2059, 15, -336, -534, 830
0.306790, 19, -2059, 15, -336, -534, 830
0.306924, 19, -2059, 15, -336, -534, 830
0.307058, 19, -2059, 15, -336, -534, 830
0.307192, 19, -2059, 15, -336, -534, 830
0.307326, 19, -2059, 15, -336, -534, 830
0.307460, 19, -2059, 15, -336, -534, 830
0.307594, -207, -2065, 237, -312, -483, 767
0.307729, -207, -2065, 237, -312, -483, 767
0.307863, -207, -2065, 237, -312, -483, 767
0.307997, -207, -2065, 237, -312, -483, 767
0.308131, -207, -2065, 237, -312, -483, 767
0.308265, -207, -2065, 237, -312, -483, 767
0.308400, -207, -2065, 237, -312, -483, 767
0.308534, -207, -2065, 237, -312, -483, 767
0.308668, 156, -2032, 343, -122, -412, 803
0.308802, 156, -2032, 343, -122, -412, 803
0.308936, 156, -2032, 343, -122, -412, 803
0.309070, 156, -2032, 343, -122, -412, 803
0.309205, 156, -2032, 343, -122, -412, 803
0.309339, 156, -2032, 343, -122, -412, 803
0.309473, 156, -2032, 343, -122, -412, 803
0.309607, 643, -2007, 301, 40, -335, 538
0.309742, 643, -2007, 301, 40, -335, 538
0.309876, 643, -2007, 301, 40, -335, 538
0.310010, 643, -2007, 301, 40, -335, 538
0.310144, 643, -2007, 301, 40, -335, 538
0.310278, 643, -2007, 301, 40, -335, 538
0.310413, 643, -2007, 301, 40, -335, 538
0.310547, 643, -2007, 301, 40, -335, 538
0.310681, 856, -1986, 603, 270, -242, 49
0.310815, 856, -1986, 603, 270, -242, 49
0.310949, 856, -1986, 603, 270, -242, 49
0.311083, 856, -1986, 603, 270, -242, 49
0.311217, 856, -1986, 603, 270, -242, 49
0.311352, 856, -1986, 603, 270, -242, 49
0.311486, 856, -1986, 603, 270, -242, 49
0.311620, 1105, -1972, 1317, 802, -42, -515
0.311754, 1105, -1972, 1317, 802, -42, -515
0.311889, 1105, -1972, 1317, 802, -42, -515
0.312023, 1105, -1972, 1317, 802, -42, -515
0.312157, 1105, -1972, 1317, 802, -42, -515
0.312291, 1105, -1972, 1317, 802, -42, -515
0.312425, 1105, -1972, 1317, 802, -42, -515
0.312559, 1105, -1972, 1317, 802, -42, -515
0.312694, 748, -2020, 1248, 1555, 310, -1112
0.312828, 748, -2020, 1248, 1555, 310, -1112
0.312962, 748, -2020, 1248, 1555, 310, -1112
0.313097, 748, -2020, 1248, 1555, 310, -1112
0.313231, 748, -2020, 1248, 1555, 310, -1112
0.313366, 748, -2020, 1248, 1555, 310, -1112
0.313500, 748, -2020, 1248, 1555, 310, -1112
0.313643, -516, -2137, -997, 1623, 625, -1229
0.313777, -516, -2137, -997, 1623, 625, -1229
0.313911, -516, -2137, -997, 1623, 625, -1229
0.314045, -516, -2137, -997, 1623, 625, -1229
0.314180, -516, -2137, -997, 1623, 625, -1229
0.314314, -516, -2137, -997, 1623, 625, -1229
0.314448, -516, -2137, -997, 1623, 625, -1229
0.314582, -516, -2137, -997, 1623, 625, -1229
0.314716, -1127, -2169, -2582, 476, 490, -600
0.314851, -1127, -2169, -2582, 476, 490, -600
0.314985, -1127, -2169, -2582, 476, 490, -600
0.315119, -1127, -2169, -2582, 476, 490, -600
0.315253, -1127, -2169, -2582, 476, 490, -600
0.315387, -1127, -2169, -2582, 476, 490, -600
0.315521, -1127, -2169, -2582, 476, 490, -600
0.315656, -460, -2070, -968, -441, -37, 14
0.315790, -460, -2070, -968, -441, -37, 14
0.315924, -460, -2070, -968, -441, -37, 14
0.316059, -460, -2070, -968, -441, -37, 14
0.316193, -460, -2070, -968, -441, -37, 14
0.316327, -460, -2070, -968, -441, -37, 14
0.316461, -460, -2070, -968, -441, -37, 14
0.316595, -460, -2070, -968, -441, -37, 14
0.316729, -92, -2049, 697, -340, -264, 69
0.316864, -92, -2049, 697, -340, -264, 69
0.316998, -92, -2049, 697, -340, -264, 69
0.317132, -92, -2049, 697, -340, -264, 69
0.317266, -92, -2049, 697, -340, -264, 69
0.317400, -92, -2049, 697, -340, -264, 69
0.317535, -92, -2049, 697, -340, -264, 69
0.317669, -92, -2049, 697, -340, -264, 69
0.317803, -373, -2109, 661, -63, -146, 40
0.317938, -373, -2109, 661, -63, -146, 40
0.318072, -373, -2109, 661, -63, -146, 40
0.318206, -373, -2109, 661, -63, -146, 40
0.318340, -373, -2109, 661, -63, -146, 40
0.318488, -373, -2109, 661, -63, -146, 40
0.318622, -373, -2109, 661, -63, -146, 40
0.318757, -464, -2087, 95, 67, -133, 247
0.318891, -464, -2087, 95, 67, -133, 247
0.319025, -464, -2087, 95, 67, -133, 247
0.319159, -464, -2087, 95, 67, -133, 247
0.319294, -464, -2087, 95, 67, -133, 247
0.319428, -464, -2087, 95, 67, -133, 247
0.319562, -464, -2087, 95, 67, -133, 247
0.319696, -464, -2087, 95, 67, -133, 247
0.319830, -90, -2013, -220, 94, -169, 468
0.319965, -90, -2013, -220, 94, -169, 468
0.320099, -90, -2013, -220, 94, -169, 468
0.320233, -90, -2013, -220, 94, -169, 468
0.320367, -90, -2013, -220, 94, -169, 468
0.320501, -90, -2013, -220, 94, -169, 468
0.320636, -90, -2013, -220, 94, -169, 468
0.320770, 573, -2005, -99, 57, -227, 355
0.320904, 573, -2005, -99, 57, -227, 355
0.321038, 573, -2005, -99, 57, -227, 355
0.321173, 573, -2005, -99, 57, -227, 355
0.321307, 573, -2005, -99, 57, -227, 355
0.321441, 573, -2005, -99, 57, -227, 355
0.321576, 573, -2005, -99, 57, -227, 355
0.321710, 573, -2005, -99, 57, -227, 355
0.321844, 763, -2037, -24, 69, -320, -114
0.321978, 763, -2037, -24, 69, -320, -114
0.322112, 763, -2037, -24, 69, -320, -114
0.322247, 763, -2037, -24, 69, -320, -114
0.322381, 763, -2037, -24, 69, -320, -114
0.322515, 763, -2037, -24, 69, -320, -114
0.322649, 763, -2037, -24, 69, -320, -114
0.322783, 595, -2034, 231, 142, -278, -523
0.322917, 595, -2034, 231, 142, -278, -523
0.323051, 595, -2034, 231, 142, -278, -523
0.323185, 595, -2034, 231, 142, -278, -523
0.323320, 595, -2034, 231, 142, -278, -523
0.323454, 595, -2034, 231, 142, -278, -523
0.323588, 595, -2034, 231, 142, -278, -523
0.323722, 595, -2034, 231, 142, -278, -523
0.323856, 474, -2047, 1059, 512, -106, -768
0.323991, 474, -2047, 1059, 512, -106, -768
0.324125, 474, -2047, 1059, 512, -106, -768
0.324259, 474, -2047, 1059, 512, -106, -768
0.324393, 474, -2047, 1059, 512, -106, -768
0.324528, 474, -2047, 1059, 512, -106, -768
0.324662, 474, -2047, 1059, 512, -106, -768
0.324795, 37, -2124, 1615, 1314, 136, -902
0.324929, 37, -2124, 1615, 1314, 136, -902
0.325062, 37, -2124, 1615, 1314, 136, -902
0.325196, 37, -2124, 1615, 1314, 136, -902
0.325329, 37, -2124, 1615, 1314, 136, -902
0.325463, 37, -2124, 1615, 1314, 136, -902
0.325597, 37, -2124, 1615, 1314, 136, -902
0.325732, 37, -2124, 1615, 1314, 136, -902
0.325866, -289, -2086, 920, 2101, 309, -803
0.326000, -289, -2086, 920, 2101, 309, -803
0.326134, -289, -2086, 920, 2101, 309, -803
0.326268, -289, -2086, 920, 2101, 309, -803
0.326403, -289, -2086, 920, 2101, 309, -803
0.326537, -289, -2086, 920, 2101, 309, -803
0.326671, -289, -2086, 920, 2101, 309, -803
0.326805, -329, -1971, -1097, 2076, 235, -637
0.326940, -329, -1971, -1097, 2076, 235, -637
0.327074, -329, -1971, -1097, 2076, 235, -637
0.327208, -329, -1971, -1097, 2076, 235, -637
0.327342, -329, -1971, -1097, 2076, 235, -637
0.327476, -329, -1971, -1097, 2076, 235, -637
0.327610, -329, -1971, -1097, 2076, 235, -637
0.327744, -329, -1971, -1097, 2076, 235, -637
0.327879, -822, -2056, -2645, 880, -35, -395
0.328013, -822, -2056, -2645, 880, -35, -395
0.328147, -822, -2056, -2645, 880, -35, -395
0.328281, -822, -2056, -2645, 880, -35, -395
0.328415, -822, -2056, -2645, 880, -35, -395
0.328550, -822, -2056, -2645, 880, -35, -395
0.328684, -822, -2056, -2645, 880, -35, -395
0.328818, -822, -2056, -2645, 880, -35, -395
0.328952, -1080, -2117, -1827, -485, -374, 178
0.329086, -1080, -2117, -1827, -485, -374, 178
0.329221, -1080, -2117, -1827, -485, -374, 178
0.329355, -1080, -2117, -1827, -485, -374, 178
0.329489, -1080, -2117, -1827, -485, -374, 178
0.329624, -1080, -2117, -1827, -485, -374, 178
0.329758, -1080, -2117, -1827, -485, -374, 178
0.329892, -381, -2012, -140, -949, -587, 674
0.330026, -381, -2012, -140, -949, -587, 674
0.330160, -381, -2012, -140, -949, -587, 674
0.330294, -381, -2012, -140, -949, -587, 674
0.330428, -381, -2012, -140, -949, -587, 674
0.330562, -381, -2012, -140, -949, -587, 674
0.330697, -381, -2012, -140, -949, -587, 674
0.330831, -381, -2012, -140, -949, -587, 674
0.330965, 371, -2001, 438, -892, -529, 605
0.331104, 371, -2001, 438, -892, -529, 605
0.331238, 371, -2001, 438, -892, -529, 605
0.331373, 371, -2001, 438, -892, -529, 605
0.331507, 371, -2001, 438, -892, -529, 605
0.331641, 371, -2001, 438, -892, -529, 605
0.331775, 371, -2001, 438, -892, -529, 605
0.331909, 560, -2064, 390, -783, -347, 180
0.332044, 560, -2064, 390, -783, -347, 180
0.332178, 560, -2064, 390, -783, -347, 180
0.332312, 560, -2064, 390, -783, -347, 180
0.332446, 560, -2064, 390, -783, -347, 180
0.332580, 560, -2064, 390, -783, -347, 180
0.332714, 560, -2064, 390, -783, -347, 180
0.332848, 560, -2064, 390, -783, -347, 180
0.332982, 45, -2084, 274, -565, -134, -135
0.333117, 45, -2084, 274, -565, -134, -135
0.333251, 45, -2084, 274, -565, -134, -135
0.333385, 45, -2084, 274, -565, -134, -135
0.333520, 45, -2084, 274, -565, -134, -135
0.333653, 45, -2084, 274, -565, -134, -135
0.333787, 45, -2084, 274, -565, -134, -135
0.333920, -655, -2102, 211, -384, -3, 16
0.334054, -655, -2102, 211, -384, -3, 16
0.334187, -655, -2102, 211, -384, -3, 16
0.334321, -655, -2102, 211, -384, -3, 16
0.334454, -655, -2102, 211, -384, -3, 16
0.334587, -655, -2102, 211, -384, -3, 16
0.334721, -655, -2102, 211, -384, -3, 16
0.334854, -655, -2102, 211, -384, -3, 16
0.334987, -454, -2090, 586, -141, -138, 428
0.335121, -454, -2090, 586, -141, -138, 428
0.335255, -454, -2090, 586, -141, -138, 428
0.335388, -454, -2090, 586, -141, -138, 428
0.335522, -454, -2090, 586, -141, -138, 428
0.335655, -454, -2090, 586, -141, -138, 428
0.335789, -454, -2090, 586, -141, -138, 428
0.335922, 434, -2046, 1145, 405, -323, 444
0.336056, 434, -2046, 1145, 405, -323, 444
0.336189, 434, -2046, 1145, 405, -323, 444
0.336323, 434, -2046, 1145, 405, -323, 444
0.336456, 434, -2046, 1145, 405, -323, 444
0.336589, 434, -2046, 1145, 405, -323, 444
0.336723, 434, -2046, 1145, 405, -323, 444
0.336856, 434, -2046, 1145, 405, -323, 444
0.336990, 866, -2021, 1278, 1135, -279, -91
0.337123, 866, -2021, 1278, 1135, -279, -91
0.337257, 866, -2021, 1278, 1135, -279, -91
0.337390, 866, -2021, 1278, 1135, -279, -91
0.337525, 866, -2021, 1278, 1135, -279, -91
0.337659, 866, -2021, 1278, 1135, -279, -91
0.337793, 866, -2021, 1278, 1135, -279, -91
0.337927, 866, -2021, 1278, 1135, -279, -91
0.338062, 58, -2035, -82, 1496, -116, -577
0.338196, 58, -2035, -82, 1496, -116, -577
0.338330, 58, -2035, -82, 1496, -116, -577
0.338464, 58, -2035, -82, 1496, -116, -577
0.338598, 58, -2035, -82, 1496, -116, -577
0.338733, 58, -2035, -82, 1496, -116, -577
0.338867, 58, -2035, -82, 1496, -116, -577
0.339001, -1198, -2051, -1707, 896, -102, -288
0.339135, -1198, -2051, -1707, 896, -102, -288
0.339269, -1198, -2051, -1707, 896, -102, -288
0.339404, -1198, -2051, -1707, 896, -102, -288
0.339538, -1198, -2051, -1707, 896, -102, -288
0.339672, -1198, -2051, -1707, 896, -102, -288
0.339806, -1198, -2051, -1707, 896, -102, -288
0.339940, -1198, -2051, -1707, 896, -102, -288
0.340075, -1224, -2036, -1228, 17, -321, 585
0.340210, -1224, -2036, -1228, 17, -321, 585
0.340348, -1224, -2036, -1228, 17, -321, 585
0.340484, -1224, -2036, -1228, 17, -321, 585
0.340620, -1224, -2036, -1228, 17, -321, 585
0.340756, -1224, -2036, -1228, 17, -321, 585
0.340890, -1224, -2036, -1228, 17, -321, 585
0.341024, -581, -2063, -365, -379, -454, 1143
0.341159, -581, -2063, -365, -379, -454, 1143
0.341293, -581, -2063, -365, -379, -454, 1143
0.341427, -581, -2063, -365, -379, -454, 1143
0.341564, -581, -2063, -365, -379, -454, 1143
0.341700, -581, -2063, -365, -379, -454, 1143
0.341834, -581, -2063, -365, -379, -454, 1143
0.341970, -581, -2063, -365, -379, -454, 1143
0.342104, -364, -2082, -345, -671, -404, 1271
0.342244, -364, -2082, -345, -671, -404, 1271
0.342380, -364, -2082, -345, -671, -404, 1271
0.342517, -364, -2082, -345, -671, -404, 1271
0.342670, -364, -2082, -345, -671, -404, 1271
0.342819, -364, -2082, -345, -671, -404, 1271
0.342959, -364, -2082, -345, -671, -404, 1271
0.343095, -222, -2054, -198, -921, -427, 1317
0.343230, -222, -2054, -198, -921, -427, 1317
0.343371, -222, -2054, -198, -921, -427, 1317
0.343524, -222, -2054, -198, -921, -427, 1317
0.343701, -222, -2054, -198, -921, -427, 1317
0.343857, -222, -2054, -198, -921, -427, 1317
0.344001, -222, -2054, -198, -921, -427, 1317
0.344139, 6, -2036, 135, -917, -419, 1288
0.344273, 6, -2036, 135, -917, -419, 1288
0.344413, 6, -2036, 135, -917, -419, 1288
0.344549, 6, -2036, 135, -917, -419, 1288
0.344685, 6, -2036, 135, -917, -419, 1288
0.344828, 6, -2036, 135, -917, -419, 1288
0.344972, 6, -2036, 135, -917, -419, 1288
0.345122, 240, -2027, 343, -768, -336, 1151
0.345265, 240, -2027, 343, -768, -336, 1151
0.345399, 240, -2027, 343, -768, -336, 1151
0.345535, 240, -2027, 343, -768, -336, 1151
0.345671, 240, -2027, 343, -768, -336, 1151
0.345805, 240, -2027, 343, -768, -336, 1151
0.345940, 240, -2027, 343, -768, -336, 1151
0.346075, 266, -2054, 216, -619, -322, 917
0.346211, 266, -2054, 216, -619, -322, 917
0.346346, 266, -2054, 216, -619, -322, 917
0.346480, 266, -2054, 216, -619, -322, 917
0.346624, 266, -2054, 216, -619, -322, 917
0.346770, 266, -2054, 216, -619, -322, 917
0.346943, 266, -2054, 216, -619, -322, 917
0.347078, -223, -2101, -47, -567, -334, 797
0.347212, -223, -2101, -47, -567, -334, 797
0.347346, -223, -2101, -47, -567, -334, 797
0.347479, -223, -2101, -47, -567, -334, 797
0.347613, -223, -2101, -47, -567, -334, 797
0.347746, -223, -2101, -47, -567, -334, 797
0.347880, -223, -2101, -47, -567, -334, 797
0.348013, -223, -2101, -47, -567, -334, 797
0.348147, -552, -2097, -58, -577, -350, 1028
0.348280, -552, -2097, -58, -577, -350, 1028
0.348414, -552, -2097, -58, -577, -350, 1028
0.348547, -552, -2097, -58, -577, -350, 1028
0.348680, -552, -2097, -58, -577, -350, 1028
0.348814, -552, -2097, -58, -577, -350, 1028
0.348947, -552, -2097, -58, -577, -350, 1028
0.349081, -552, -2097, -58, -577, -350, 1028
0.349214, -46, -2075, 242, -506, -418, 1266
0.349348, -46, -2075, 242, -506, -418, 1266
0.349481, -46, -2075, 242, -506, -418, 1266
0.349615, -46, -2075, 242, -506, -418, 1266
0.349749, -46, -2075, 242, -506, -418, 1266
0.349883, -46, -2075, 242, -506, -418, 1266
0.350017, -46, -2075, 242, -506, -418, 1266
0.350150, 720, -2065, 684, -238, -454, 1047
0.350283, 720, -2065, 684, -238, -454, 1047
0.350417, 720, -2065, 684, -238, -454, 1047
0.350550, 720, -2065, 684, -238, -454, 1047
0.350684, 720, -2065, 684, -238, -454, 1047
0.350817, 720, -2065, 684, -238, -454, 1047
0.350950, 720, -2065, 684, -238, -454, 1047
0.351084, 720, -2065, 684, -238, -454, 1047
0.351217, 1179, -2012, 1144, 289, -342, 419
0.351351, 1179, -2012, 1144, 289, -342, 419
0.351484, 1179, -2012, 1144, 289, -342, 419
0.351617, 1179, -2012, 1144, 289, -342, 419
0.351751, 1179, -2012, 1144, 289, -342, 419
0.351884, 1179, -2012, 1144, 289, -342, 419
0.352018, 1179, -2012, 1144, 289, -342, 419
0.352151, 1515, -1964, 1546, 1053, -80, -379
0.352285, 1515, -1964, 1546, 1053, -80, -379
0.352418, 1515, -1964, 1546, 1053, -80, -379
0.352551, 1515, -1964, 1546, 1053, -80, -379
0.352685, 1515, -1964, 1546, 1053, -80, -379
0.352818, 1515, -1964, 1546, 1053, -80, -379
0.352951, 1515, -1964, 1546, 1053, -80, -379
0.353085, 1515, -1964, 1546, 1053, -80, -379
0.353218, 1489, -2051, 1265, 1876, 272, -1257
0.353352, 1489, -2051, 1265, 1876, 272, -1257
0.353485, 1489, -2051, 1265, 1876, 272, -1257
0.353619, 1489, -2051, 1265, 1876, 272, -1257
0.353753, 1489, -2051, 1265, 1876, 272, -1257
0.353886, 1489, -2051, 1265, 1876, 272, -1257
0.354019, 1489, -2051, 1265, 1876, 272, -1257
0.354153, 1489, -2051, 1265, 1876, 272, -1257
0.354286, -108, -2190, -796, 2083, 569, -1752
0.354420, -108, -2190, -796, 2083, 569, -1752
0.354553, -108, -2190, -796, 2083, 569, -1752
0.354687, -108, -2190, -796, 2083, 569, -1752
0.354820, -108, -2190, -796, 2083, 569, -1752
0.354953, -108, -2190, -796, 2083, 569, -1752
0.355087, -108, -2190, -796, 2083, 569, -1752
0.355220, -2215, -2124, -2866, 1068, 510, -970
0.355353, -2215, -2124, -2866, 1068, 510, -970
0.355487, -2215, -2124, -2866, 1068, 510, -970
0.355620, -2215, -2124, -2866, 1068, 510, -970
0.355754, -2215, -2124, -2866, 1068, 510, -970
0.355887, -2215, -2124, -2866, 1068, 510, -970
0.356020, -2215, -2124, -2866, 1068, 510, -970
0.356178, -2215, -2124, -2866, 1068, 510, -970
0.356320, -2054, -1954, -2105, -288, 4, 669
0.356459, -2054, -1954, -2105, -288, 4, 669
0.356592, -2054, -1954, -2105, -288, 4, 669
0.356726, -2054, -1954, -2105, -288, 4, 669
0.356859, -2054, -1954, -2105, -288, 4, 669
0.356993, -2054, -1954, -2105, -288, 4, 669
0.357126, -2054, -1954, -2105, -288, 4, 669
0.357260, -392, -1967, -219, -861, -478, 1532
0.357393, -392, -1967, -219, -861, -478, 1532
0.357527, -392, -1967, -219, -861, -478, 1532
0.357661, -392, -1967, -219, -861, -478, 1532
0.357794, -392, -1967, -219, -861, -478, 1532
0.357928, -392, -1967, -219, -861, -478, 1532
0.358061, -392, -1967, -219, -861, -478, 1532
0.358195, -392, -1967, -219, -861, -478, 1532
0.358328, 396, -2068, 485, -877, -571, 1293
0.358463, 396, -2068, 485, -877, -571, 1293
0.358596, 396, -2068, 485, -877, -571, 1293
0.358730, 396, -2068, 485, -877, -571, 1293
0.358863, 396, -2068, 485, -877, -571, 1293
0.358996, 396, -2068, 485, -877, -571, 1293
0.359130, 396, -2068, 485, -877, -571, 1293
0.359263, 340, -2087, 540, -689, -447, 867
0.359397, 340, -2087, 540, -689, -447, 867
0.359530, 340, -2087, 540, -689, -447, 867
0.359664, 340, -2087, 540, -689, -447, 867
0.359797, 340, -2087, 540, -689, -447, 867
0.359930, 340, -2087, 540, -689, -447, 867
0.360065, 340, -2087, 540, -689, -447, 867
0.360198, 340, -2087, 540, -689, -447, 867
0.360332, 341, -2081, 604, -306, -254, 660
0.360465, 341, -2081, 604, -306, -254, 660
0.360599, 341, -2081, 604, -306, -254, 660
0.360732, 341, -2081, 604, -306, -254, 660
0.360865, 341, -2081, 604, -306, -254, 660
0.361000, 341, -2081, 604, -306, -254, 660
0.361133, 341, -2081, 604, -306, -254, 660
0.361267, 573, -2078, 801, 182, -104, 466
0.361400, 573, -2078, 801, 182, -104, 466
0.361534, 573, -2078, 801, 182, -104, 466
0.361667, 573, -2078, 801, 182, -104, 466
0.361801, 573, -2078, 801, 182, -104, 466
0.361934, 573, -2078, 801, 182, -104, 466
0.362068, 573, -2078, 801, 182, -104, 466
0.362201, 573, -2078, 801, 182, -104, 466
0.362334, 691, -2019, 875, 750, -99, 132
0.362468, 691, -2019, 875, 750, -99, 132
0.362601, 691, -2019, 875, 750, -99, 132
0.362735, 691, -2019, 875, 750, -99, 132
0.362868, 691, -2019, 875, 750, -99, 132
0.363002, 691, -2019, 875, 750, -99, 132
0.363135, 691, -2019, 875, 750, -99, 132
0.363269, 691, -2019, 875, 750, -99, 132
0.363402, 547, -1997, 214, 1144, -96, -218
0.363536, 547, -1997, 214, 1144, -96, -218
0.363669, 547, -1997, 214, 1144, -96, -218
0.363802, 547, -1997, 214, 1144, -96, -218
0.363936, 547, -1997, 214, 1144, -96, -218
0.364069, 547, -1997, 214, 1144, -96, -218
0.364203, 547, -1997, 214, 1144, -96, -218
0.364336, 325, -2071, -689, 986, -52, -443
0.364470, 325, -2071, -689, 986, -52, -443
0.364603, 325, -2071, -689, 986, -52, -443
0.364737, 325, -2071, -689, 986, -52, -443
0.364870, 325, -2071, -689, 986, -52, -443
0.365003, 325, -2071, -689, 986, -52, -443
0.365137, 325, -2071, -689, 986, -52, -443
0.365271, 325, -2071, -689, 986, -52, -443
0.365405, 28, -2097, -779, 521, -79, -509
0.365551, 28, -2097, -779, 521, -79, -509
0.365685, 28, -2097, -779, 521, -79, -509
0.365819, 28, -2097, -779, 521, -79, -509
0.365953, 28, -2097, -779, 521, -79, -509
0.366087, 28, -2097, -779, 521, -79, -509
0.366221, 28, -2097, -779, 521, -79, -509
0.366355, -3, -2053, -408, 177, -103, -456
0.366489, -3, -2053, -408, 177, -103, -456
0.366623, -3, -2053, -408, 177, -103, -456
0.366757, -3, -2053, -408, 177, -103, -456
0.366891, -3, -2053, -408, 177, -103, -456
0.367025, -3, -2053, -408, 177, -103, -456
0.367159, -3, -2053, -408, 177, -103, -456
0.367293, -3, -2053, -408, 177, -103, -456
0.367427, 31, -2055, -323, -79, -66, -484
0.367561, 31, -2055, -323, -79, -66, -484
0.367695, 31, -2055, -323, -79, -66, -484
0.367829, 31, -2055, -323, -79, -66, -484
0.367963, 31, -2055, -323, -79, -66, -484
0.368097, 31, -2055, -323, -79, -66, -484
0.368231, 31, -2055, -323, -79, -66, -484
0.368365, -639, -2090, -429, -349, -52, -430
0.368499, -639, -2090, -429, -349, -52, -430
0.368633, -639, -2090, -429, -349, -52, -430
0.368768, -639, -2090, -429, -349, -52, -430
0.368923, -639, -2090, -429, -349, -52, -430
0.369064, -639, -2090, -429, -349, -52, -430
0.369201, -639, -2090, -429, -349, -52, -430
0.369336, -639, -2090, -429, -349, -52, -430
0.369470, -963, -2073, -316, -561, -120, 61
0.369605, -963, -2073, -316, -561, -120, 61
0.369739, -963, -2073, -316, -561, -120, 61
0.369873, -963, -2073, -316, -561, -120, 61
0.370007, -963, -2073, -316, -561, -120, 61
0.370141, -963, -2073, -316, -561, -120, 61
0.370275, -963, -2073, -316, -561, -120, 61
0.370409, -66, -2045, -14, -645, -240, 460
0.370543, -66, -2045, -14, -645, -240, 460
0.370677, -66, -2045, -14, -645, -240, 460
0.370811, -66, -2045, -14, -645, -240, 460
0.370945, -66, -2045, -14, -645, -240, 460
0.371079, -66, -2045, -14, -645, -240, 460
0.371213, -66, -2045, -14, -645, -240, 460
0.371347, -66, -2045, -14, -645, -240, 460
0.371481, 605, -2049, 92, -630, -272, 202
0.371615, 605, -2049, 92, -630, -272, 202
0.371750, 605, -2049, 92, -630, -272, 202
0.371884, 605, -2049, 92, -630, -272, 202
0.372018, 605, -2049, 92, -630, -272, 202
0.372152, 605, -2049, 92, -630, -272, 202
0.372286, 605, -2049, 92, -630, -272, 202
0.372420, 230, -2046, -11, -602, -183, -209
