Time, ax, ay, az, gx, gy, gz
0.000047, 1222, -2151, 441, -740, -708, 597
0.000209, 1222, -2151, 441, -740, -708, 597
0.000349, 1222, -2151, 441, -740, -708, 597
0.000488, 1222, -2151, 441, -740, -708, 597
0.000626, 1222, -2151, 441, -740, -708, 597
0.000767, 1222, -2151, 441, -740, -708, 597
0.000907, 1441, -2134, 659, -369, -537, -255
0.001052, 1441, -2134, 659, -369, -537, -255
0.001186, 1441, -2134, 659, -369, -537, -255
0.001325, 1441, -2134, 659, -369, -537, -255
0.001462, 1441, -2134, 659, -369, -537, -255
0.001600, 1441, -2134, 659, -369, -537, -255
0.001754, 1441, -2134, 659, -369, -537, -255
0.001893, 900, -2087, 838, 101, -170, -995
0.002034, 900, -2087, 838, 101, -170, -995
0.002173, 900, -2087, 838, 101, -170, -995
0.002310, 900, -2087, 838, 101, -170, -995
0.002447, 900, -2087, 838, 101, -170, -995
0.002584, 900, -2087, 838, 101, -170, -995
0.002722, 900, -2087, 838, 101, -170, -995
0.002859, 358, -2059, 876, 587, 300, -1272
0.003000, 358, -2059, 876, 587, 300, -1272
0.003139, 358, -2059, 876, 587, 300, -1272
0.003276, 358, -2059, 876, 587, 300, -1272
0.003413, 358, -2059, 876, 587, 300, -1272
0.003550, 358, -2059, 876, 587, 300, -1272
0.003688, 358, -2059, 876, 587, 300, -1272
0.003827, 453, -2076, 634, 1019, 658, -1355
0.003966, 453, -2076, 634, 1019, 658, -1355
0.004104, 453, -2076, 634, 1019, 658, -1355
0.004242, 453, -2076, 634, 1019, 658, -1355
0.004380, 453, -2076, 634, 1019, 658, -1355
0.004517, 453, -2076, 634, 1019, 658, -1355
0.004655, 453, -2076, 634, 1019, 658, -1355
0.004792, 453, -2076, 634, 1019, 658, -1355
0.004930, 256, -2092, 377, 1320, 822, -1549
0.005071, 256, -2092, 377, 1320, 822, -1549
0.005213, 256, -2092, 377, 1320, 822, -1549
0.005354, 256, -2092, 377, 1320, 822, -1549
0.005493, 256, -2092, 377, 1320, 822, -1549
0.005630, 256, -2092, 377, 1320, 822, -1549
0.005769, 256, -2092, 377, 1320, 822, -1549
0.005906, -393, -2028, 211, 1540, 817, -1535
0.006048, -393, -2028, 211, 1540, 817, -1535
0.006186, -393, -2028, 211, 1540, 817, -1535
0.006325, -393, -2028, 211, 1540, 817, -1535
0.007818, -835, -2004, -212, 1575, 679, -1147
0.007963, -1139, -2084, -1037, 1193, 407, -552
0.008103, -1139, -2084, -1037, 1193, 407, -552
0.008242, -1139, -2084, -1037, 1193, 407, -552
0.008379, -1139, -2084, -1037, 1193, 407, -552
0.008518, -1139, -2084, -1037, 1193, 407, -552
0.008655, -1139, -2084, -1037, 1193, 407, -552
0.008792, -1139, -2084, -1037, 1193, 407, -552
0.008930, -1169, -2053, -1510, 463, -11, 159
0.009071, -1169, -2053, -1510, 463, -11, 159
0.009210, -1169, -2053, -1510, 463, -11, 159
0.009347, -1169, -2053, -1510, 463, -11, 159
0.009486, -1169, -2053, -1510, 463, -11, 159
0.009623, -1169, -2053, -1510, 463, -11, 159
0.009761, -1169, -2053, -1510, 463, -11, 159
0.009898, -1169, -2053, -1510, 463, -11, 159
0.010035, -827, -1988, -958, -184, -442, 797
0.010177, -827, -1988, -958, -184, -442, 797
0.010316, -827, -1988, -958, -184, -442, 797
0.010453, -827, -1988, -958, -184, -442, 797
0.010590, -827, -1988, -958, -184, -442, 797
0.010728, -827, -1988, -958, -184, -442, 797
0.010866, -827, -1988, -958, -184, -442, 797
0.011003, -280, -2024, -11, -474, -693, 1129
0.011145, -280, -2024, -11, -474, -693, 1129
0.011283, -280, -2024, -11, -474, -693, 1129
0.011420, -280, -2024, -11, -474, -693, 1129
0.011558, -280, -2024, -11, -474, -693, 1129
0.011695, -280, -2024, -11, -474, -693, 1129
0.011835, -280, -2024, -11, -474, -693, 1129
0.011973, 294, -2048, 653, -398, -777, 1054
0.012115, 294, -2048, 653, -398, -777, 1054
0.012253, 294, -2048, 653, -398, -777, 1054
0.012390, 294, -2048, 653, -398, -777, 1054
0.012528, 294, -2048, 653, -398, -777, 1054
0.012665, 294, -2048, 653, -398, -777, 1054
0.012802, 294, -2048, 653, -398, -777, 1054
0.012940, 294, -2048, 653, -398, -777, 1054
0.013077, 566, -2021, 948, 7, -729, 678
0.013219, 566, -2021, 948, 7, -729, 678
0.013356, 566, -2021, 948, 7, -729, 678
0.013493, 566, -2021, 948, 7, -729, 678
0.013630, 566, -2021, 948, 7, -729, 678
0.013769, 566, -2021, 948, 7, -729, 678
0.013906, 566, -2021, 948, 7, -729, 678
0.014043, 553, -2042, 766, 548, -509, 250
0.014185, 553, -2042, 766, 548, -509, 250
0.014366, 553, -2042, 766, 548, -509, 250
0.014509, 553, -2042, 766, 548, -509, 250
0.014647, 553, -2042, 766, 548, -509, 250
0.014785, 553, -2042, 766, 548, -509, 250
0.014923, 553, -2042, 766, 548, -509, 250
0.015060, 81, -2146, -181, 776, -240, -40
0.015202, 81, -2146, -181, 776, -240, -40
0.015339, 81, -2146, -181, 776, -240, -40
0.015477, 81, -2146, -181, 776, -240, -40
0.015614, 81, -2146, -181, 776, -240, -40
0.015752, 81, -2146, -181, 776, -240, -40
0.015890, 81, -2146, -181, 776, -240, -40
0.016028, -684, -2102, -924, 487, -149, 97
0.016168, -684, -2102, -924, 487, -149, 97
0.016306, -684, -2102, -924, 487, -149, 97
0.016443, -684, -2102, -924, 487, -149, 97
0.016581, -684, -2102, -924, 487, -149, 97
0.016718, -684, -2102, -924, 487, -149, 97
0.016855, -684, -2102, -924, 487, -149, 97
0.016992, -684, -2102, -924, 487, -149, 97
0.017130, -604, -1987, -461, 166, -229, 593
0.017271, -604, -1987, -461, 166, -229, 593
0.017410, -604, -1987, -461, 166, -229, 593
0.017547, -604, -1987, -461, 166, -229, 593
0.017684, -604, -1987, -461, 166, -229, 593
0.017822, -604, -1987, -461, 166, -229, 593
0.017959, -604, -1987, -461, 166, -229, 593
0.018096, 249, -2058, 208, 89, -271, 740
0.018238, 249, -2058, 208, 89, -271, 740
0.018375, 249, -2058, 208, 89, -271, 740
0.018512, 249, -2058, 208, 89, -271, 740
0.018646, 249, -2058, 208, 89, -271, 740
0.018788, 249, -2058, 208, 89, -271, 740
0.018929, 249, -2058, 208, 89, -271, 740
0.019066, 493, -2110, 365, 82, -231, 320
0.019208, 493, -2110, 365, 82, -231, 320
0.019346, 493, -2110, 365, 82, -231, 320
0.019483, 493, -2110, 365, 82, -231, 320
0.019621, 493, -2110, 365, 82, -231, 320
0.019759, 493, -2110, 365, 82, -231, 320
0.019896, 493, -2110, 365, 82, -231, 320
0.020035, 493, -2110, 365, 82, -231, 320
0.020173, -126, -2042, 142, 134, -134, -28
0.020315, -126, -2042, 142, 134, -134, -28
0.020453, -126, -2042, 142, 134, -134, -28
0.020590, -126, -2042, 142, 134, -134, -28
0.020727, -126, -2042, 142, 134, -134, -28
0.020865, -126, -2042, 142, 134, -134, -28
0.021002, -126, -2042, 142, 134, -134, -28
0.021139, -534, -2025, -385, 50, 30, 125
0.021280, -534, -2025, -385, 50, 30, 125
0.021417, -534, -2025, -385, 50, 30, 125
0.021554, -534, -2025, -385, 50, 30, 125
0.021692, -534, -2025, -385, 50, 30, 125
0.021829, -534, -2025, -385, 50, 30, 125
0.021966, -534, -2025, -385, 50, 30, 125
0.022103, -152, -2070, -497, -272, 60, 387
0.022245, -152, -2070, -497, -272, 60, 387
0.022382, -152, -2070, -497, -272, 60, 387
0.022520, -152, -2070, -497, -272, 60, 387
0.022657, -152, -2070, -497, -272, 60, 387
0.022794, -152, -2070, -497, -272, 60, 387
0.022931, -152, -2070, -497, -272, 60, 387
0.023069, -152, -2070, -497, -272, 60, 387
0.023206, 220, -2055, 16, -407, -125, 287
0.023346, 220, -2055, 16, -407, -125, 287
0.023485, 220, -2055, 16, -407, -125, 287
0.023622, 220, -2055, 16, -407, -125, 287
0.023760, 220, -2055, 16, -407, -125, 287
0.023897, 220, -2055, 16, -407, -125, 287
0.024034, 220, -2055, 16, -407, -125, 287
0.024172, 3, -1990, 271, -310, -256, 67
0.024312, 3, -1990, 271, -310, -256, 67
0.024451, 3, -1990, 271, -310, -256, 67
0.024588, 3, -1990, 271, -310, -256, 67
0.024725, 3, -1990, 271, -310, -256, 67
0.024862, 3, -1990, 271, -310, -256, 67
0.025000, 3, -1990, 271, -310, -256, 67
0.025137, -264, -2023, 52, -312, -214, 83
0.025277, -264, -2023, 52, -312, -214, 83
0.025416, -264, -2023, 52, -312, -214, 83
0.025553, -264, -2023, 52, -312, -214, 83
0.025690, -264, -2023, 52, -312, -214, 83
0.025828, -264, -2023, 52, -312, -214, 83
0.025965, -264, -2023, 52, -312, -214, 83
0.026102, -264, -2023, 52, -312, -214, 83
0.026239, -400, -2111, -211, -408, -138, 271
0.026381, -400, -2111, -211, -408, -138, 271
0.026519, -400, -2111, -211, -408, -138, 271
0.026657, -400, -2111, -211, -408, -138, 271
0.026794, -400, -2111, -211, -408, -138, 271
0.026931, -400, -2111, -211, -408, -138, 271
0.027068, -400, -2111, -211, -408, -138, 271
0.027206, -461, -2089, -215, -470, -99, 521
0.027347, -461, -2089, -215, -470, -99, 521
0.027485, -461, -2089, -215, -470, -99, 521
0.027623, -461, -2089, -215, -470, -99, 521
0.027775, -461, -2089, -215, -470, -99, 521
0.027912, -461, -2089, -215, -470, -99, 521
0.028050, -461, -2089, -215, -470, -99, 521
0.028188, -256, -2020, 72, -484, -88, 739
0.028329, -256, -2020, 72, -484, -88, 739
0.028468, -256, -2020, 72, -484, -88, 739
0.028605, -256, -2020, 72, -484, -88, 739
0.028742, -256, -2020, 72, -484, -88, 739
0.028880, -256, -2020, 72, -484, -88, 739
0.029017, -256, -2020, 72, -484, -88, 739
0.029154, -256, -2020, 72, -484, -88, 739
0.029291, -15, -2026, 383, -413, -119, 759
0.029433, -15, -2026, 383, -413, -119, 759
0.029571, -15, -2026, 383, -413, -119, 759
0.029709, -15, -2026, 383, -413, -119, 759
0.029846, -15, -2026, 383, -413, -119, 759
0.029983, -15, -2026, 383, -413, -119, 759
0.030121, -15, -2026, 383, -413, -119, 759
0.030258, -95, -2028, 466, -214, -135, 667
0.030400, -95, -2028, 466, -214, -135, 667
0.030538, -95, -2028, 466, -214, -135, 667
0.030677, -95, -2028, 466, -214, -135, 667
0.030814, -95, -2028, 466, -214, -135, 667
0.030952, -95, -2028, 466, -214, -135, 667
0.031089, -95, -2028, 466, -214, -135, 667
0.031226, -33, -2050, 355, 26, -83, 651
0.031367, -33, -2050, 355, 26, -83, 651
0.031505, -33, -2050, 355, 26, -83, 651
0.031642, -33, -2050, 355, 26, -83, 651
0.031780, -33, -2050, 355, 26, -83, 651
0.031918, -33, -2050, 355, 26, -83, 651
0.032056, -33, -2050, 355, 26, -83, 651
0.032193, -33, -2050, 355, 26, -83, 651
0.032330, 492, -2142, 125, 216, -25, 505
0.032472, 492, -2142, 125, 216, -25, 505
0.032610, 492, -2142, 125, 216, -25, 505
0.032749, 492, -2142, 125, 216, -25, 505
0.032886, 492, -2142, 125, 216, -25, 505
0.033023, 492, -2142, 125, 216, -25, 505
0.033160, 492, -2142, 125, 216, -25, 505
0.033299, 558, -2125, -220, 286, -15, 71
0.033440, 558, -2125, -220, 286, -15, 71
0.033579, 558, -2125, -220, 286, -15, 71
0.033716, 558, -2125, -220, 286, -15, 71
0.033853, 558, -2125, -220, 286, -15, 71
0.033990, 558, -2125, -220, 286, -15, 71
0.034127, 558, -2125, -220, 286, -15, 71
0.034265, -105, -2020, -254, 202, -20, -201
0.034406, -105, -2020, -254, 202, -20, -201
0.034545, -105, -2020, -254, 202, -20, -201
0.034682, -105, -2020, -254, 202, -20, -201
0.034819, -105, -2020, -254, 202, -20, -201
0.034956, -105, -2020, -254, 202, -20, -201
0.035092, -105, -2020, -254, 202, -20, -201
0.035228, -105, -2020, -254, 202, -20, -201
0.035363, -435, -1971, 240, 172, 10, -35
0.035499, -435, -1971, 240, 172, 10, -35
0.035635, -435, -1971, 240, 172, 10, -35
0.035772, -435, -1971, 240, 172, 10, -35
0.035910, -435, -1971, 240, 172, 10, -35
0.036049, -435, -1971, 240, 172, 10, -35
0.036186, -435, -1971, 240, 172, 10, -35
0.036324, -29, -1994, 527, 367, 67, 144
0.036464, -29, -1994, 527, 367, 67, 144
0.036603, -29, -1994, 527, 367, 67, 144
0.036740, -29, -1994, 527, 367, 67, 144
0.036877, -29, -1994, 527, 367, 67, 144
0.037014, -29, -1994, 527, 367, 67, 144
0.037153, -29, -1994, 527, 367, 67, 144
0.037290, 92, -2117, 60, 513, 98, 4
0.037432, 92, -2117, 60, 513, 98, 4
0.037570, 92, -2117, 60, 513, 98, 4
0.037708, 92, -2117, 60, 513, 98, 4
0.037846, 92, -2117, 60, 513, 98, 4
0.037984, 92, -2117, 60, 513, 98, 4
0.038121, 92, -2117, 60, 513, 98, 4
0.038259, 92, -2117, 60, 513, 98, 4
0.038397, -545, -2153, -439, 390, 67, -50
0.038538, -545, -2153, -439, 390, 67, -50
0.038675, -545, -2153, -439, 390, 67, -50
0.038814, -545, -2153, -439, 390, 67, -50
0.038951, -545, -2153, -439, 390, 67, -50
0.039089, -545, -2153, -439, 390, 67, -50
0.039226, -545, -2153, -439, 390, 67, -50
0.039365, -737, -2024, -337, 220, -22, 316
0.039506, -737, -2024, -337, 220, -22, 316
0.039645, -737, -2024, -337, 220, -22, 316
0.039782, -737, -2024, -337, 220, -22, 316
0.039921, -737, -2024, -337, 220, -22, 316
0.040058, -737, -2024, -337, 220, -22, 316
0.040195, -737, -2024, -337, 220, -22, 316
0.040332, -72, -2000, 19, 138, -150, 582
0.040474, -72, -2000, 19, 138, -150, 582
0.040612, -72, -2000, 19, 138, -150, 582
0.040751, -72, -2000, 19, 138, -150, 582
0.040888, -72, -2000, 19, 138, -150, 582
0.041025, -72, -2000, 19, 138, -150, 582
0.041162, -72, -2000, 19, 138, -150, 582
0.041300, -72, -2000, 19, 138, -150, 582
0.041448, 384, -2062, 337, 175, -278, 352
0.041585, 384, -2062, 337, 175, -278, 352
0.041723, 384, -2062, 337, 175, -278, 352
0.041861, 384, -2062, 337, 175, -278, 352
0.041998, 384, -2062, 337, 175, -278, 352
0.042135, 384, -2062, 337, 175, -278, 352
0.042272, 384, -2062, 337, 175, -278, 352
0.042410, 267, -2064, 467, 408, -292, -18
0.042551, 267, -2064, 467, 408, -292, -18
0.042689, 267, -2064, 467, 408, -292, -18
0.042826, 267, -2064, 467, 408, -292, -18
0.042963, 267, -2064, 467, 408, -292, -18
0.043101, 267, -2064, 467, 408, -292, -18
0.043238, 267, -2064, 467, 408, -292, -18
0.043375, -80, -2041, 206, 647, -127, -165
0.043517, -80, -2041, 206, 647, -127, -165
0.043655, -80, -2041, 206, 647, -127, -165
0.043793, -80, -2041, 206, 647, -127, -165
0.043930, -80, -2041, 206, 647, -127, -165
0.044067, -80, -2041, 206, 647, -127, -165
0.044205, -80, -2041, 206, 647, -127, -165
0.044342, -80, -2041, 206, 647, -127, -165
0.044479, -299, -2043, -310, 610, 44, -65
0.044621, -299, -2043, -310, 610, 44, -65
0.044759, -299, -2043, -310, 610, 44, -65
0.044896, -299, -2043, -310, 610, 44, -65
0.045034, -299, -2043, -310, 610, 44, -65
0.045171, -299, -2043, -310, 610, 44, -65
0.045308, -299, -2043, -310, 610, 44, -65
0.045445, -225, -2059, -604, 341, 44, 89
0.045587, -225, -2059, -604, 341, 44, 89
0.045724, -225, -2059, -604, 341, 44, 89
0.045861, -225, -2059, -604, 341, 44, 89
0.045999, -225, -2059, -604, 341, 44, 89
0.046136, -225, -2059, -604, 341, 44, 89
0.046273, -225, -2059, -604, 341, 44, 89
0.046410, -95, -2047, -426, 88, -70, 127
0.046552, -95, -2047, -426, 88, -70, 127
0.046690, -95, -2047, -426, 88, -70, 127
0.046828, -95, -2047, -426, 88, -70, 127
0.046965, -95, -2047, -426, 88, -70, 127
0.047102, -95, -2047, -426, 88, -70, 127
0.047239, -95, -2047, -426, 88, -70, 127
0.047377, -95, -2047, -426, 88, -70, 127
0.047514, -27, -2037, -34, -63, -158, 60
0.047656, -27, -2037, -34, -63, -158, 60
0.047794, -27, -2037, -34, -63, -158, 60
0.047932, -27, -2037, -34, -63, -158, 60
0.048069, -27, -2037, -34, -63, -158, 60
0.048206, -27, -2037, -34, -63, -158, 60
0.048343, -27, -2037, -34, -63, -158, 60
0.048481, 18, -2059, 229, -109, -170, -56
0.048622, 18, -2059, 229, -109, -170, -56
0.048760, 18, -2059, 229, -109, -170, -56
0.048897, 18, -2059, 229, -109, -170, -56
0.049034, 18, -2059, 229, -109, -170, -56
0.049172, 18, -2059, 229, -109, -170, -56
0.049309, 18, -2059, 229, -109, -170, -56
0.049446, 74, -2077, 278, -26, -117, -178
0.049584, 74, -2077, 278, -26, -117, -178
0.049722, 74, -2077, 278, -26, -117, -178
0.049860, 74, -2077, 278, -26, -117, -178
0.049997, 74, -2077, 278, -26, -117, -178
0.050134, 74, -2077, 278, -26, -117, -178
0.050271, 74, -2077, 278, -26, -117, -178
0.050409, 74, -2077, 278, -26, -117, -178
0.050546, 259, -2033, 423, 174, -32, -332
0.050687, 259, -2033, 423, 174, -32, -332
0.050826, 259, -2033, 423, 174, -32, -332
0.050963, 259, -2033, 423, 174, -32, -332
0.051100, 259, -2033, 423, 174, -32, -332
0.051237, 259, -2033, 423, 174, -32, -332
0.051375, 259, -2033, 423, 174, -32, -332
0.051512, 175, -2025, 449, 443, 66, -573
0.051653, 175, -2025, 449, 443, 66, -573
0.051791, 175, -2025, 449, 443, 66, -573
0.051929, 175, -2025, 449, 443, 66, -573
0.052066, 175, -2025, 449, 443, 66, -573
0.052203, 175, -2025, 449, 443, 66, -573
0.052340, 175, -2025, 449, 443, 66, -573
0.052479, -636, -2096, -60, 521, 165, -604
0.052616, -636, -2096, -60, 521, 165, -604
0.052755, -636, -2096, -60, 521, 165, -604
0.052892, -636, -2096, -60, 521, 165, -604
0.053029, -636, -2096, -60, 521, 165, -604
0.053167, -636, -2096, -60, 521, 165, -604
0.053304, -636, -2096, -60, 521, 165, -604
0.053441, -636, -2096, -60, 521, 165, -604
0.053578, -1270, -2057, -453, 361, 133, -76
0.053720, -1270, -2057, -453, 361, 133, -76
0.053857, -1270, -2057, -453, 361, 133, -76
0.053991, -1270, -2057, -453, 361, 133, -76
0.054125, -1270, -2057, -453, 361, 133, -76
0.054259, -1270, -2057, -453, 361, 133, -76
0.054394, -1270, -2057, -453, 361, 133, -76
0.054528, -754, -1967, -230, 237, -56, 597
0.054662, -754, -1967, -230, 237, -56, 597
0.054801, -754, -1967, -230, 237, -56, 597
0.054935, -754, -1967, -230, 237, -56, 597
0.055070, -754, -1967, -230, 237, -56, 597
0.055204, -754, -1967, -230, 237, -56, 597
0.055338, -754, -1967, -230, 237, -56, 597
0.055472, -754, -1967, -230, 237, -56, 597
0.055607, 148, -1980, 236, 236, -216, 700
0.055747, 148, -1980, 236, 236, -216, 700
0.055881, 148, -1980, 236, 236, -216, 700
0.056014, 148, -1980, 236, 236, -216, 700
0.056148, 148, -1980, 236, 236, -216, 700
0.056282, 148, -1980, 236, 236, -216, 700
0.056416, 148, -1980, 236, 236, -216, 700
0.056551, -102, -2050, -162, 195, -259, 382
0.056684, -102, -2050, -162, 195, -259, 382
0.056818, -102, -2050, -162, 195, -259, 382
0.056951, -102, -2050, -162, 195, -259, 382
0.057085, -102, -2050, -162, 195, -259, 382
0.057219, -102, -2050, -162, 195, -259, 382
0.057354, -102, -2050, -162, 195, -259, 382
0.057488, -102, -2050, -162, 195, -259, 382
0.057622, -1059, -2084, -1143, -252, -261, 524
0.057757, -1059, -2084, -1143, -252, -261, 524
0.057891, -1059, -2084, -1143, -252, -261, 524
0.058026, -1059, -2084, -1143, -252, -261, 524
0.058159, -1059, -2084, -1143, -252, -261, 524
0.058294, -1059, -2084, -1143, -252, -261, 524
0.058428, -1059, -2084, -1143, -252, -261, 524
0.058563, -788, -2048, -798, -824, -365, 1144
0.058697, -788, -2048, -798, -824, -365, 1144
0.058832, -788, -2048, -798, -824, -365, 1144
0.058965, -788, -2048, -798, -824, -365, 1144
0.059099, -788, -2048, -798, -824, -365, 1144
0.059234, -788, -2048, -798, -824, -365, 1144
0.059368, -788, -2048, -798, -824, -365, 1144
0.059503, -788, -2048, -798, -824, -365, 1144
0.059637, 160, -2025, 181, -938, -488, 1296
0.059772, 160, -2025, 181, -938, -488, 1296
0.059906, 160, -2025, 181, -938, -488, 1296
0.060040, 160, -2025, 181, -938, -488, 1296
0.060174, 160, -2025, 181, -938, -488, 1296
0.060308, 160, -2025, 181, -938, -488, 1296
0.060442, 160, -2025, 181, -938, -488, 1296
0.060576, 160, -2025, 181, -938, -488, 1296
0.060710, 210, -2040, 315, -898, -487, 921
0.060845, 210, -2040, 315, -898, -487, 921
0.060978, 210, -2040, 315, -898, -487, 921
0.061112, 210, -2040, 315, -898, -487, 921
0.061246, 210, -2040, 315, -898, -487, 921
0.061380, 210, -2040, 315, -898, -487, 921
0.061514, 210, -2040, 315, -898, -487, 921
0.061648, 15, -2057, 202, -924, -466, 669
0.061783, 15, -2057, 202, -924, -466, 669
0.061917, 15, -2057, 202, -924, -466, 669
0.062051, 15, -2057, 202, -924, -466, 669
0.062185, 15, -2057, 202, -924, -466, 669
0.062313, 15, -2057, 202, -924, -466, 669
0.062450, 15, -2057, 202, -924, -466, 669
0.062586, 15, -2057, 202, -924, -466, 669
0.062720, 304, -2080, 358, -771, -384, 532
0.062854, 304, -2080, 358, -771, -384, 532
0.062988, 304, -2080, 358, -771, -384, 532
0.063122, 304, -2080, 358, -771, -384, 532
0.063256, 304, -2080, 358, -771, -384, 532
0.063390, 304, -2080, 358, -771, -384, 532
0.063524, 304, -2080, 358, -771, -384, 532
0.063665, 633, -2093, 645, -427, -174, 195
0.063800, 633, -2093, 645, -427, -174, 195
0.063934, 633, -2093, 645, -427, -174, 195
0.064068, 633, -2093, 645, -427, -174, 195
0.064202, 633, -2093, 645, -427, -174, 195
0.064336, 633, -2093, 645, -427, -174, 195
0.064471, 633, -2093, 645, -427, -174, 195
0.064605, 633, -2093, 645, -427, -174, 195
0.064740, 391, -2079, 660, -18, -4, -250
0.064874, 391, -2079, 660, -18, -4, -250
0.065009, 391, -2079, 660, -18, -4, -250
0.065143, 391, -2079, 660, -18, -4, -250
0.065277, 391, -2079, 660, -18, -4, -250
0.065411, 391, -2079, 660, -18, -4, -250
0.065545, 391, -2079, 660, -18, -4, -250
0.065679, -475, -2071, 242, 263, 94, -356
0.065814, -475, -2071, 242, 263, 94, -356
0.065948, -475, -2071, 242, 263, 94, -356
0.066082, -475, -2071, 242, 263, 94, -356
0.066216, -475, -2071, 242, 263, 94, -356
0.066350, -475, -2071, 242, 263, 94, -356
0.066485, -475, -2071, 242, 263, 94, -356
0.066619, -475, -2071, 242, 263, 94, -356
0.066753, -666, -2065, -13, 333, 162, 43
0.066887, -666, -2065, -13, 333, 162, 43
0.067021, -666, -2065, -13, 333, 162, 43
0.067156, -666, -2065, -13, 333, 162, 43
0.067290, -666, -2065, -13, 333, 162, 43
0.067424, -666, -2065, -13, 333, 162, 43
0.067574, -666, -2065, -13, 333, 162, 43
0.067709, 216, -2059, -34, 345, 146, 253
0.067845, 216, -2059, -34, 345, 146, 253
0.067979, 216, -2059, -34, 345, 146, 253
0.068113, 216, -2059, -34, 345, 146, 253
0.068247, 216, -2059, -34, 345, 146, 253
0.068381, 216, -2059, -34, 345, 146, 253
0.068516, 216, -2059, -34, 345, 146, 253
0.068650, 216, -2059, -34, 345, 146, 253
0.068784, 326, -2064, -234, 273, 76, -88
0.068918, 326, -2064, -234, 273, 76, -88
0.069053, 326, -2064, -234, 273, 76, -88
0.069187, 326, -2064, -234, 273, 76, -88
0.069321, 326, -2064, -234, 273, 76, -88
0.069455, 326, -2064, -234, 273, 76, -88
0.069589, 326, -2064, -234, 273, 76, -88
0.069723, -471, -2054, -369, 52, 22, -201
0.069858, -471, -2054, -369, 52, 22, -201
0.069992, -471, -2054, -369, 52, 22, -201
0.070126, -471, -2054, -369, 52, 22, -201
0.070260, -471, -2054, -369, 52, 22, -201
0.070395, -471, -2054, -369, 52, 22, -201
0.070529, -471, -2054, -369, 52, 22, -201
0.070663, -471, -2054, -369, 52, 22, -201
0.070797, -422, -2038, -31, -87, -21, 143
0.070931, -422, -2038, -31, -87, -21, 143
0.071066, -422, -2038, -31, -87, -21, 143
0.071200, -422, -2038, -31, -87, -21, 143
0.071334, -422, -2038, -31, -87, -21, 143
0.071468, -422, -2038, -31, -87, -21, 143
0.071602, -422, -2038, -31, -87, -21, 143
0.071736, 183, -2022, 431, 41, -63, 246
0.071875, 183, -2022, 431, 41, -63, 246
0.072009, 183, -2022, 431, 41, -63, 246
0.072144, 183, -2022, 431, 41, -63, 246
0.072278, 183, -2022, 431, 41, -63, 246
0.072412, 183, -2022, 431, 41, -63, 246
0.072546, 183, -2022, 431, 41, -63, 246
0.072681, 183, -2022, 431, 41, -63, 246
0.072815, 294, -2016, 488, 294, -90, 6
0.072949, 294, -2016, 488, 294, -90, 6
0.073083, 294, -2016, 488, 294, -90, 6
0.073218, 294, -2016, 488, 294, -90, 6
0.073352, 294, -2016, 488, 294, -90, 6
0.073486, 294, -2016, 488, 294, -90, 6
0.073620, 294, -2016, 488, 294, -90, 6
0.073754, 294, -2016, 488, 294, -90, 6
0.073888, 341, -2042, 322, 500, -100, -234
0.074023, 341, -2042, 322, 500, -100, -234
0.074157, 341, -2042, 322, 500, -100, -234
0.074291, 341, -2042, 322, 500, -100, -234
0.074425, 341, -2042, 322, 500, -100, -234
0.074560, 341, -2042, 322, 500, -100, -234
0.074694, 341, -2042, 322, 500, -100, -234
0.074828, 343, -2074, 93, 652, -72, -475
0.074962, 343, -2074, 93, 652, -72, -475
0.075097, 343, -2074, 93, 652, -72, -475
0.075231, 343, -2074, 93, 652, -72, -475
0.075366, 343, -2074, 93, 652, -72, -475
0.075501, 343, -2074, 93, 652, -72, -475
0.075636, 343, -2074, 93, 652, -72, -475
0.075771, 343, -2074, 93, 652, -72, -475
0.075905, -593, -2073, -448, 613, 16, -510
0.076040, -593, -2073, -448, 613, 16, -510
0.076174, -593, -2073, -448, 613, 16, -510
0.076308, -593, -2073, -448, 613, 16, -510
0.076443, -593, -2073, -448, 613, 16, -510
0.076577, -593, -2073, -448, 613, 16, -510
0.076711, -593, -2073, -448, 613, 16, -510
0.076845, -1858, -2025, -1026, 185, 28, 202
0.076980, -1858, -2025, -1026, 185, 28, 202
0.077114, -1858, -2025, -1026, 185, 28, 202
0.077248, -1858, -2025, -1026, 185, 28, 202
0.077382, -1858, -2025, -1026, 185, 28, 202
0.077516, -1858, -2025, -1026, 185, 28, 202
0.077650, -1858, -2025, -1026, 185, 28, 202
0.077785, -1858, -2025, -1026, 185, 28, 202
0.077919, -1624, -1985, -863, -381, -215, 1390
0.078053, -1624, -1985, -863, -381, -215, 1390
0.078187, -1624, -1985, -863, -381, -215, 1390
0.078321, -1624, -1985, -863, -381, -215, 1390
0.078456, -1624, -1985, -863, -381, -215, 1390
0.078590, -1624, -1985, -863, -381, -215, 1390
0.078724, -1624, -1985, -863, -381, -215, 1390
0.078858, -240, -2028, -153, -665, -583, 1948
0.078992, -240, -2028, -153, -665, -583, 1948
0.079126, -240, -2028, -153, -665, -583, 1948
0.079261, -240, -2028, -153, -665, -583, 1948
0.079395, -240, -2028, -153, -665, -583, 1948
0.079529, -240, -2028, -153, -665, -583, 1948
0.079663, -240, -2028, -153, -665, -583, 1948
0.079797, -240, -2028, -153, -665, -583, 1948
0.079932, 367, -2093, 359, -678, -804, 1616
0.080066, 367, -2093, 359, -678, -804, 1616
0.080200, 367, -2093, 359, -678, -804, 1616
0.080334, 367, -2093, 359, -678, -804, 1616
0.080477, 367, -2093, 359, -678, -804, 1616
0.080612, 367, -2093, 359, -678, -804, 1616
0.080746, 367, -2093, 359, -678, -804, 1616
0.080881, 449, -2104, 582, -505, -828, 1134
0.081015, 449, -2104, 582, -505, -828, 1134
0.081149, 449, -2104, 582, -505, -828, 1134
0.081283, 449, -2104, 582, -505, -828, 1134
0.081417, 449, -2104, 582, -505, -828, 1134
0.081552, 449, -2104, 582, -505, -828, 1134
0.081686, 449, -2104, 582, -505, -828, 1134
0.081820, 449, -2104, 582, -505, -828, 1134
0.081954, 1042, -2096, 627, -176, -704, 652
0.082089, 1042, -2096, 627, -176, -704, 652
0.082223, 1042, -2096, 627, -176, -704, 652
0.082357, 1042, -2096, 627, -176, -704, 652
0.082491, 1042, -2096, 627, -176, -704, 652
0.082626, 1042, -2096, 627, -176, -704, 652
0.082760, 1042, -2096, 627, -176, -704, 652
0.082894, 1233, -2103, 520, 171, -452, -113
0.083028, 1233, -2103, 520, 171, -452, -113
0.083163, 1233, -2103, 520, 171, -452, -113
0.083297, 1233, -2103, 520, 171, -452, -113
0.083431, 1233, -2103, 520, 171, -452, -113
0.083565, 1233, -2103, 520, 171, -452, -113
0.083700, 1233, -2103, 520, 171, -452, -113
0.083834, 1233, -2103, 520, 171, -452, -113
0.083969, 371, -2096, 155, 393, -153, -720
0.084103, 371, -2096, 155, 393, -153, -720
0.084237, 371, -2096, 155, 393, -153, -720
0.084371, 371, -2096, 155, 393, -153, -720
0.084505, 371, -2096, 155, 393, -153, -720
0.084640, 371, -2096, 155, 393, -153, -720
0.084774, 371, -2096, 155, 393, -153, -720
0.084908, 371, -2096, 155, 393, -153, -720
0.085042, -405, -2074, -206, 373, 76, -668
0.085176, -405, -2074, -206, 373, 76, -668
0.085311, -405, -2074, -206, 373, 76, -668
0.085445, -405, -2074, -206, 373, 76, -668
0.085579, -405, -2074, -206, 373, 76, -668
0.085713, -405, -2074, -206, 373, 76, -668
0.085848, -405, -2074, -206, 373, 76, -668
0.085982, -69, -2068, -18, 296, 176, -372
0.086116, -69, -2068, -18, 296, 176, -372
0.086250, -69, -2068, -18, 296, 176, -372
0.086385, -69, -2068, -18, 296, 176, -372
0.086519, -69, -2068, -18, 296, 176, -372
0.086653, -69, -2068, -18, 296, 176, -372
0.086787, -69, -2068, -18, 296, 176, -372
0.086921, -69, -2068, -18, 296, 176, -372
0.087056, 509, -2019, 382, 412, 201, -504
0.087190, 509, -2019, 382, 412, 201, -504
0.087324, 509, -2019, 382, 412, 201, -504
0.087458, 509, -2019, 382, 412, 201, -504
0.087593, 509, -2019, 382, 412, 201, -504
0.087727, 509, -2019, 382, 412, 201, -504
0.087861, 509, -2019, 382, 412, 201, -504
0.087996, 420, -2006, 466, 593, 251, -920
0.088130, 420, -2006, 466, 593, 251, -920
0.088264, 420, -2006, 466, 593, 251, -920
0.088398, 420, -2006, 466, 593, 251, -920
0.088533, 420, -2006, 466, 593, 251, -920
0.088667, 420, -2006, 466, 593, 251, -920
0.088801, 420, -2006, 466, 593, 251, -920
0.088935, 420, -2006, 466, 593, 251, -920
0.089069, -30, -2107, 244, 709, 325, -1144
0.089204, -30, -2107, 244, 709, 325, -1144
0.089338, -30, -2107, 244, 709, 325, -1144
0.089472, -30, -2107, 244, 709, 325, -1144
0.089606, -30, -2107, 244, 709, 325, -1144
0.089740, -30, -2107, 244, 709, 325, -1144
0.089875, -30, -2107, 244, 709, 325, -1144
0.090009, -509, -2099, -12, 782, 365, -1003
0.090143, -509, -2099, -12, 782, 365, -1003
0.090277, -509, -2099, -12, 782, 365, -1003
0.090411, -509, -2099, -12, 782, 365, -1003
0.090546, -509, -2099, -12, 782, 365, -1003
0.090680, -509, -2099, -12, 782, 365, -1003
0.090814, -509, -2099, -12, 782, 365, -1003
0.090948, -509, -2099, -12, 782, 365, -1003
0.091083, -475, -2026, 7, 846, 312, -634
0.091217, -475, -2026, 7, 846, 312, -634
0.091351, -475, -2026, 7, 846, 312, -634
0.091485, -475, -2026, 7, 846, 312, -634
0.091619, -475, -2026, 7, 846, 312, -634
0.091754, -475, -2026, 7, 846, 312, -634
0.091888, -475, -2026, 7, 846, 312, -634
0.092023, -85, -2076, -112, 837, 164, -450
0.092157, -85, -2076, -112, 837, 164, -450
0.092291, -85, -2076, -112, 837, 164, -450
0.092425, -85, -2076, -112, 837, 164, -450
0.092559, -85, -2076, -112, 837, 164, -450
0.092693, -85, -2076, -112, 837, 164, -450
0.092828, -85, -2076, -112, 837, 164, -450
0.092962, -85, -2076, -112, 837, 164, -450
0.093096, -217, -2087, -504, 630, -30, -487
0.093230, -217, -2087, -504, 630, -30, -487
0.093370, -217, -2087, -504, 630, -30, -487
0.093504, -217, -2087, -504, 630, -30, -487
0.093639, -217, -2087, -504, 630, -30, -487
0.093773, -217, -2087, -504, 630, -30, -487
0.093907, -217, -2087, -504, 630, -30, -487
0.094041, -786, -2026, -467, 371, -201, -295
0.094176, -786, -2026, -467, 371, -201, -295
0.094310, -786, -2026, -467, 371, -201, -295
0.094444, -786, -2026, -467, 371, -201, -295
0.094578, -786, -2026, -467, 371, -201, -295
0.094713, -786, -2026, -467, 371, -201, -295
0.094847, -786, -2026, -467, 371, -201, -295
0.094981, -786, -2026, -467, 371, -201, -295
0.095115, -911, -2004, -101, 237, -285, 232
0.095249, -911, -2004, -101, 237, -285, 232
0.095384, -911, -2004, -101, 237, -285, 232
0.095518, -911, -2004, -101, 237, -285, 232
0.095652, -911, -2004, -101, 237, -285, 232
0.095787, -911, -2004, -101, 237, -285, 232
0.095921, -911, -2004, -101, 237, -285, 232
0.096055, -911, -2004, -101, 237, -285, 232
0.096189, -439, -2015, 68, 148, -354, 637
0.096323, -439, -2015, 68, 148, -354, 637
0.096458, -439, -2015, 68, 148, -354, 637
0.096592, -439, -2015, 68, 148, -354, 637
0.096726, -439, -2015, 68, 148, -354, 637
0.096860, -439, -2015, 68, 148, -354, 637
0.096994, -439, -2015, 68, 148, -354, 637
0.097129, -87, -2033, -1, 91, -461, 675
0.097263, -87, -2033, -1, 91, -461, 675
0.097397, -87, -2033, -1, 91, -461, 675
0.097531, -87, -2033, -1, 91, -461, 675
0.097665, -87, -2033, -1, 91, -461, 675
0.097800, -87, -2033, -1, 91, -461, 675
0.097934, -87, -2033, -1, 91, -461, 675
0.098068, -87, -2033, -1, 91, -461, 675
0.098202, 151, -2055, -284, 32, -520, 551
0.098337, 151, -2055, -284, 32, -520, 551
0.098471, 151, -2055, -284, 32, -520, 551
0.098605, 151, -2055, -284, 32, -520, 551
0.098739, 151, -2055, -284, 32, -520, 551
0.098873, 151, -2055, -284, 32, -520, 551
0.099008, 151, -2055, -284, 32, -520, 551
0.099142, 591, -2074, -324, -116, -520, 299
0.099276, 591, -2074, -324, -116, -520, 299
0.099410, 591, -2074, -324, -116, -520, 299
0.099544, 591, -2074, -324, -116, -520, 299
0.099679, 591, -2074, -324, -116, -520, 299
0.099813, 591, -2074, -324, -116, -520, 299
0.099947, 591, -2074, -324, -116, -520, 299
0.100080, 591, -2074, -324, -116, -520, 299
0.100214, 736, -2072, 51, -193, -482, -161
0.100347, 736, -2072, 51, -193, -482, -161
0.100481, 736, -2072, 51, -193, -482, -161
0.100615, 736, -2072, 51, -193, -482, -161
0.100748, 736, -2072, 51, -193, -482, -161
0.100882, 736, -2072, 51, -193, -482, -161
0.101015, 736, -2072, 51, -193, -482, -161
0.101149, 437, -2042, 301, -128, -326, -590
0.101282, 437, -2042, 301, -128, -326, -590
0.101416, 437, -2042, 301, -128, -326, -590
0.101549, 437, -2042, 301, -128, -326, -590
0.101683, 437, -2042, 301, -128, -326, -590
0.101816, 437, -2042, 301, -128, -326, -590
0.101950, 437, -2042, 301, -128, -326, -590
0.102083, 437, -2042, 301, -128, -326, -590
0.102217, 132, -2048, 268, -52, -85, -774
0.102350, 132, -2048, 268, -52, -85, -774
0.102484, 132, -2048, 268, -52, -85, -774
0.102617, 132, -2048, 268, -52, -85, -774
0.102751, 132, -2048, 268, -52, -85, -774
0.102884, 132, -2048, 268, -52, -85, -774
0.103018, 132, -2048, 268, -52, -85, -774
0.103151, 132, -2048, 268, -52, -85, -774
0.103285, -56, -2097, 116, -6, 108, -793
0.103418, -56, -2097, 116, -6, 108, -793
0.103552, -56, -2097, 116, -6, 108, -793
0.103685, -56, -2097, 116, -6, 108, -793
0.103816, -56, -2097, 116, -6, 108, -793
0.103951, -56, -2097, 116, -6, 108, -793
0.104085, -56, -2097, 116, -6, 108, -793
0.104219, -270, -2079, 21, 43, 195, -732
0.104354, -270, -2079, 21, 43, 195, -732
0.104488, -270, -2079, 21, 43, 195, -732
0.104634, -270, -2079, 21, 43, 195, -732
0.104768, -270, -2079, 21, 43, 195, -732
0.104903, -270, -2079, 21, 43, 195, -732
0.105037, -270, -2079, 21, 43, 195, -732
0.105171, -270, -2079, 21, 43, 195, -732
0.105306, -425, -2035, 43, 52, 166, -570
0.105440, -425, -2035, 43, 52, 166, -570
0.105574, -425, -2035, 43, 52, 166, -570
0.105708, -425, -2035, 43, 52, 166, -570
0.105843, -425, -2035, 43, 52, 166, -570
0.105977, -425, -2035, 43, 52, 166, -570
0.106111, -425, -2035, 43, 52, 166, -570
0.106252, -189, -2029, 343, 117, 37, -404
0.106391, -189, -2029, 343, 117, 37, -404
0.106525, -189, -2029, 343, 117, 37, -404
0.106659, -189, -2029, 343, 117, 37, -404
0.106793, -189, -2029, 343, 117, 37, -404
0.106928, -189, -2029, 343, 117, 37, -404
0.107062, -189, -2029, 343, 117, 37, -404
0.107196, -189, -2029, 343, 117, 37, -404
0.107330, 102, -2043, 422, 364, -86, -447
0.107465, 102, -2043, 422, 364, -86, -447
0.107599, 102, -2043, 422, 364, -86, -447
0.107733, 102, -2043, 422, 364, -86, -447
0.107868, 102, -2043, 422, 364, -86, -447
0.108002, 102, -2043, 422, 364, -86, -447
0.108136, 102, -2043, 422, 364, -86, -447
0.108270, -39, -2078, -331, 387, -109, -576
0.108404, -39, -2078, -331, 387, -109, -576
0.108539, -39, -2078, -331, 387, -109, -576
0.108675, -39, -2078, -331, 387, -109, -576
0.108810, -39, -2078, -331, 387, -109, -576
0.108944, -39, -2078, -331, 387, -109, -576
0.109075, -39, -2078, -331, 387, -109, -576
0.109210, -39, -2078, -331, 387, -109, -576
0.109344, -159, -2092, -841, -8, -142, -533
0.109479, -159, -2092, -841, -8, -142, -533
0.109613, -159, -2092, -841, -8, -142, -533
0.109748, -159, -2092, -841, -8, -142, -533
0.109883, -159, -2092, -841, -8, -142, -533
0.110019, -159, -2092, -841, -8, -142, -533
0.110156, -159, -2092, -841, -8, -142, -533
0.110303, -81, -2051, -390, -299, -226, -427
0.110452, -81, -2051, -390, -299, -226, -427
0.110590, -81, -2051, -390, -299, -226, -427
0.110728, -81, -2051, -390, -299, -226, -427
0.110865, -81, -2051, -390, -299, -226, -427
0.111000, -81, -2051, -390, -299, -226, -427
0.111135, -81, -2051, -390, -299, -226, -427
0.111269, -47, -1996, 47, -341, -219, -387
0.111403, -47, -1996, 47, -341, -219, -387
0.111538, -47, -1996, 47, -341, -219, -387
0.111672, -47, -1996, 47, -341, -219, -387
0.111808, -47, -1996, 47, -341, -219, -387
0.111943, -47, -1996, 47, -341, -219, -387
0.112077, -47, -1996, 47, -341, -219, -387
0.112211, -47, -1996, 47, -341, -219, -387
0.112346, 135, -2022, 13, -429, -175, -431
0.112480, 135, -2022, 13, -429, -175, -431
0.112614, 135, -2022, 13, -429, -175, -431
0.112749, 135, -2022, 13, -429, -175, -431
0.112883, 135, -2022, 13, -429, -175, -431
0.113017, 135, -2022, 13, -429, -175, -431
0.113151, 135, -2022, 13, -429, -175, -431
0.113285, 135, -2022, 13, -429, -175, -431
0.113419, 207, -2092, 15, -516, -184, -614
0.113554, 207, -2092, 15, -516, -184, -614
0.113688, 207, -2092, 15, -516, -184, -614
0.113822, 207, -2092, 15, -516, -184, -614
0.113956, 207, -2092, 15, -516, -184, -614
0.114091, 207, -2092, 15, -516, -184, -614
0.114225, 207, -2092, 15, -516, -184, -614
0.114359, -28, -2096, 158, -448, -136, -752
0.114493, -28, -2096, 158, -448, -136, -752
0.114649, -28, -2096, 158, -448, -136, -752
0.114787, -28, -2096, 158, -448, -136, -752
0.114935, -28, -2096, 158, -448, -136, -752
0.115072, -28, -2096, 158, -448, -136, -752
0.115207, -28, -2096, 158, -448, -136, -752
0.115341, 76, -2056, 357, -293, -55, -760
0.115476, 76, -2056, 357, -293, -55, -760
0.115610, 76, -2056, 357, -293, -55, -760
0.115747, 76, -2056, 357, -293, -55, -760
0.115881, 76, -2056, 357, -293, -55, -760
0.116015, 76, -2056, 357, -293, -55, -760
0.116149, 76, -2056, 357, -293, -55, -760
0.116284, 76, -2056, 357, -293, -55, -760
0.116418, 445, -2060, 452, -98, -58, -941
0.116552, 445, -2060, 452, -98, -58, -941
0.116686, 445, -2060, 452, -98, -58, -941
0.116820, 445, -2060, 452, -98, -58, -941
0.116955, 445, -2060, 452, -98, -58, -941
0.117089, 445, -2060, 452, -98, -58, -941
0.117223, 445, -2060, 452, -98, -58, -941
0.117357, 388, -2101, 269, 96, -56, -1302
0.117491, 388, -2101, 269, 96, -56, -1302
0.117626, 388, -2101, 269, 96, -56, -1302
0.117760, 388, -2101, 269, 96, -56, -1302
0.117894, 388, -2101, 269, 96, -56, -1302
0.118028, 388, -2101, 269, 96, -56, -1302
0.118162, 388, -2101, 269, 96, -56, -1302
0.118297, 388, -2101, 269, 96, -56, -1302
0.118431, -107, -2087, 82, 239, 20, -1479
0.118565, -107, -2087, 82, 239, 20, -1479
0.118699, -107, -2087, 82, 239, 20, -1479
0.118834, -107, -2087, 82, 239, 20, -1479
0.118968, -107, -2087, 82, 239, 20, -1479
0.119133, -107, -2087, 82, 239, 20, -1479
0.119274, -107, -2087, 82, 239, 20, -1479
0.119408, -584, -2022, 43, 333, 104, -1281
0.119543, -584, -2022, 43, 333, 104, -1281
0.119677, -584, -2022, 43, 333, 104, -1281
0.119812, -584, -2022, 43, 333, 104, -1281
0.119946, -584, -2022, 43, 333, 104, -1281
0.120080, -584, -2022, 43, 333, 104, -1281
0.120214, -584, -2022, 43, 333, 104, -1281
0.120348, -584, -2022, 43, 333, 104, -1281
0.120483, -505, -2013, 113, 370, 144, -901
0.120617, -505, -2013, 113, 370, 144, -901
0.120751, -505, -2013, 113, 370, 144, -901
0.120885, -505, -2013, 113, 370, 144, -901
0.121019, -505, -2013, 113, 370, 144, -901
0.121154, -505, -2013, 113, 370, 144, -901
0.121289, -505, -2013, 113, 370, 144, -901
0.121423, 6, -2041, 513, 500, 102, -757
0.121557, 6, -2041, 513, 500, 102, -757
0.121692, 6, -2041, 513, 500, 102, -757
0.121826, 6, -2041, 513, 500, 102, -757
0.121969, 6, -2041, 513, 500, 102, -757
0.122111, 6, -2041, 513, 500, 102, -757
0.122248, 6, -2041, 513, 500, 102, -757
0.122383, 6, -2041, 513, 500, 102, -757
0.122517, 232, -2048, 766, 891, 62, -959
0.122652, 232, -2048, 766, 891, 62, -959
0.122786, 232, -2048, 766, 891, 62, -959
0.122920, 232, -2048, 766, 891, 62, -959
0.123054, 232, -2048, 766, 891, 62, -959
0.123188, 232, -2048, 766, 891, 62, -959
0.123323, 232, -2048, 766, 891, 62, -959
0.123457, -154, -2078, -125, 1092, 130, -1159
0.123591, -154, -2078, -125, 1092, 130, -1159
0.123726, -154, -2078, -125, 1092, 130, -1159
0.123860, -154, -2078, -125, 1092, 130, -1159
0.123995, -154, -2078, -125, 1092, 130, -1159
0.124129, -154, -2078, -125, 1092, 130, -1159
0.124263, -154, -2078, -125, 1092, 130, -1159
0.124397, -154, -2078, -125, 1092, 130, -1159
0.124532, -549, -2061, -1170, 660, 131, -1000
0.124666, -549, -2061, -1170, 660, 131, -1000
0.124800, -549, -2061, -1170, 660, 131, -1000
0.124935, -549, -2061, -1170, 660, 131, -1000
0.125069, -549, -2061, -1170, 660, 131, -1000
0.125203, -549, -2061, -1170, 660, 131, -1000
0.125337, -549, -2061, -1170, 660, 131, -1000
0.125472, -136, -2047, -869, 114, -48, -725
0.125606, -136, -2047, -869, 114, -48, -725
0.125740, -136, -2047, -869, 114, -48, -725
0.125874, -136, -2047, -869, 114, -48, -725
0.126009, -136, -2047, -869, 114, -48, -725
0.126143, -136, -2047, -869, 114, -48, -725
0.126277, -136, -2047, -869, 114, -48, -725
0.126411, -136, -2047, -869, 114, -48, -725
0.126545, 340, -2077, -82, -76, -157, -833
0.126680, 340, -2077, -82, -76, -157, -833
0.126814, 340, -2077, -82, -76, -157, -833
0.126948, 340, -2077, -82, -76, -157, -833
0.127082, 340, -2077, -82, -76, -157, -833
0.127216, 340, -2077, -82, -76, -157, -833
0.127351, 340, -2077, -82, -76, -157, -833
0.127485, 60, -2045, 170, -120, -124, -1127
0.127619, 60, -2045, 170, -120, -124, -1127
0.127754, 60, -2045, 170, -120, -124, -1127
0.127888, 60, -2045, 170, -120, -124, -1127
0.128021, 60, -2045, 170, -120, -124, -1127
0.128155, 60, -2045, 170, -120, -124, -1127
0.128288, 60, -2045, 170, -120, -124, -1127
0.128421, 60, -2045, 170, -120, -124, -1127
0.128555, -506, -2049, 3, -175, -74, -1133
0.128689, -506, -2049, 3, -175, -74, -1133
0.128823, -506, -2049, 3, -175, -74, -1133
0.128957, -506, -2049, 3, -175, -74, -1133
0.129091, -506, -2049, 3, -175, -74, -1133
0.129225, -506, -2049, 3, -175, -74, -1133
0.129359, -506, -2049, 3, -175, -74, -1133
0.129493, -506, -2049, 3, -175, -74, -1133
0.129627, -789, -2073, -213, -277, -13, -795
0.129761, -789, -2073, -213, -277, -13, -795
0.129895, -789, -2073, -213, -277, -13, -795
0.130029, -789, -2073, -213, -277, -13, -795
0.130163, -789, -2073, -213, -277, -13, -795
0.130297, -789, -2073, -213, -277, -13, -795
0.130431, -789, -2073, -213, -277, -13, -795
0.130565, -483, -2038, -84, -392, -26, -432
0.130699, -483, -2038, -84, -392, -26, -432
0.130833, -483, -2038, -84, -392, -26, -432
0.130967, -483, -2038, -84, -392, -26, -432
0.131101, -483, -2038, -84, -392, -26, -432
0.131235, -483, -2038, -84, -392, -26, -432
0.131369, -483, -2038, -84, -392, -26, -432
0.131503, -483, -2038, -84, -392, -26, -432
0.131637, 77, -2027, 239, -384, -171, -397
0.131771, 77, -2027, 239, -384, -171, -397
0.131924, 77, -2027, 239, -384, -171, -397
0.132059, 77, -2027, 239, -384, -171, -397
0.132194, 77, -2027, 239, -384, -171, -397
0.132328, 77, -2027, 239, -384, -171, -397
0.132462, 77, -2027, 239, -384, -171, -397
0.132596, 335, -2031, 423, -238, -278, -668
0.132731, 335, -2031, 423, -238, -278, -668
0.132865, 335, -2031, 423, -238, -278, -668
0.132999, 335, -2031, 423, -238, -278, -668
0.133133, 335, -2031, 423, -238, -278, -668
0.133267, 335, -2031, 423, -238, -278, -668
0.133401, 335, -2031, 423, -238, -278, -668
0.133536, 335, -2031, 423, -238, -278, -668
0.133670, -48, -2030, 357, -54, -196, -907
0.133804, -48, -2030, 357, -54, -196, -907
0.133938, -48, -2030, 357, -54, -196, -907
0.134072, -48, -2030, 357, -54, -196, -907
0.134207, -48, -2030, 357, -54, -196, -907
0.134341, -48, -2030, 357, -54, -196, -907
0.134475, -48, -2030, 357, -54, -196, -907
0.134609, -598, -2056, 162, 42, 7, -766
0.134743, -598, -2056, 162, 42, 7, -766
0.134878, -598, -2056, 162, 42, 7, -766
0.135012, -598, -2056, 162, 42, 7, -766
0.135146, -598, -2056, 162, 42, 7, -766
0.135280, -598, -2056, 162, 42, 7, -766
0.135414, -598, -2056, 162, 42, 7, -766
0.135548, -598, -2056, 162, 42, 7, -766
0.135683, -346, -2097, 229, 149, 142, -423
0.135818, -346, -2097, 229, 149, 142, -423
0.135952, -346, -2097, 229, 149, 142, -423
0.136086, -346, -2097, 229, 149, 142, -423
0.136220, -346, -2097, 229, 149, 142, -423
0.136354, -346, -2097, 229, 149, 142, -423
0.136488, -346, -2097, 229, 149, 142, -423
0.136623, 134, -2078, 435, 416, 170, -414
0.136757, 134, -2078, 435, 416, 170, -414
0.136891, 134, -2078, 435, 416, 170, -414
0.137025, 134, -2078, 435, 416, 170, -414
0.137159, 134, -2078, 435, 416, 170, -414
0.137293, 134, -2078, 435, 416, 170, -414
0.137428, 134, -2078, 435, 416, 170, -414
0.137562, 134, -2078, 435, 416, 170, -414
0.137696, -225, -2029, 192, 631, 201, -596
0.137830, -225, -2029, 192, 631, 201, -596
0.137964, -225, -2029, 192, 631, 201, -596
0.138098, -225, -2029, 192, 631, 201, -596
0.138233, -225, -2029, 192, 631, 201, -596
0.138367, -225, -2029, 192, 631, 201, -596
0.138501, -225, -2029, 192, 631, 201, -596
0.138635, -1005, -2045, -469, 496, 234, -374
0.138770, -1005, -2045, -469, 496, 234, -374
0.138904, -1005, -2045, -469, 496, 234, -374
0.139038, -1005, -2045, -469, 496, 234, -374
0.139172, -1005, -2045, -469, 496, 234, -374
0.139306, -1005, -2045, -469, 496, 234, -374
0.139441, -1005, -2045, -469, 496, 234, -374
0.139575, -1005, -2045, -469, 496, 234, -374
0.139709, -946, -2050, -746, 101, 149, 230
0.139844, -946, -2050, -746, 101, 149, 230
0.139978, -946, -2050, -746, 101, 149, 230
0.140112, -946, -2050, -746, 101, 149, 230
0.140246, -946, -2050, -746, 101, 149, 230
0.140381, -946, -2050, -746, 101, 149, 230
0.140515, -946, -2050, -746, 101, 149, 230
0.140649, -946, -2050, -746, 101, 149, 230
0.140783, -210, -2013, -431, -215, -59, 553
0.140917, -210, -2013, -431, -215, -59, 553
0.141051, -210, -2013, -431, -215, -59, 553
0.141186, -210, -2013, -431, -215, -59, 553
0.141320, -210, -2013, -431, -215, -59, 553
0.141454, -210, -2013, -431, -215, -59, 553
0.141589, -210, -2013, -431, -215, -59, 553
0.141723, -65, -2027, -84, -400, -216, 451
0.141857, -65, -2027, -84, -400, -216, 451
0.141991, -65, -2027, -84, -400, -216, 451
0.142125, -65, -2027, -84, -400, -216, 451
0.142260, -65, -2027, -84, -400, -216, 451
0.142394, -65, -2027, -84, -400, -216, 451
0.142528, -65, -2027, -84, -400, -216, 451
0.142662, -65, -2027, -84, -400, -216, 451
0.142796, 99, -2058, 350, -424, -254, 343
0.142931, 99, -2058, 350, -424, -254, 343
0.143065, 99, -2058, 350, -424, -254, 343
0.143199, 99, -2058, 350, -424, -254, 343
0.143333, 99, -2058, 350, -424, -254, 343
0.143467, 99, -2058, 350, -424, -254, 343
0.143602, 99, -2058, 350, -424, -254, 343
0.143736, 901, -2045, 844, -101, -185, 38
0.143876, 901, -2045, 844, -101, -185, 38
0.144011, 901, -2045, 844, -101, -185, 38
0.144145, 901, -2045, 844, -101, -185, 38
0.144279, 901, -2045, 844, -101, -185, 38
0.144413, 901, -2045, 844, -101, -185, 38
0.144547, 901, -2045, 844, -101, -185, 38
0.144687, 901, -2045, 844, -101, -185, 38
0.144822, 1287, -2050, 1021, 440, 52, -711
0.144956, 1287, -2050, 1021, 440, 52, -711
0.145090, 1287, -2050, 1021, 440, 52, -711
0.145225, 1287, -2050, 1021, 440, 52, -711
0.145359, 1287, -2050, 1021, 440, 52, -711
0.145493, 1287, -2050, 1021, 440, 52, -711
0.145627, 1287, -2050, 1021, 440, 52, -711
0.145761, 630, -2108, 300, 813, 402, -1436
0.145896, 630, -2108, 300, 813, 402, -1436
0.146030, 630, -2108, 300, 813, 402, -1436
0.146164, 630, -2108, 300, 813, 402, -1436
0.146298, 630, -2108, 300, 813, 402, -1436
0.146432, 630, -2108, 300, 813, 402, -1436
0.146566, 630, -2108, 300, 813, 402, -1436
0.146701, 630, -2108, 300, 813, 402, -1436
0.146835, -680, -2122, -1038, 580, 667, -1480
0.146969, -680, -2122, -1038, 580, 667, -1480
0.147103, -680, -2122, -1038, 580, 667, -1480
0.147237, -680, -2122, -1038, 580, 667, -1480
0.147371, -680, -2122, -1038, 580, 667, -1480
0.147506, -680, -2122, -1038, 580, 667, -1480
0.147640, -680, -2122, -1038, 580, 667, -1480
0.147774, -1228, -2046, -1240, -56, 689, -742
0.147909, -1228, -2046, -1240, -56, 689, -742
0.148043, -1228, -2046, -1240, -56, 689, -742
0.148177, -1228, -2046, -1240, -56, 689, -742
0.148311, -1228, -2046, -1240, -56, 689, -742
0.148446, -1228, -2046, -1240, -56, 689, -742
0.148580, -1228, -2046, -1240, -56, 689, -742
0.148714, -1228, -2046, -1240, -56, 689, -742
0.148848, -458, -2017, -377, -455, 542, -52
0.148982, -458, -2017, -377, -455, 542, -52
0.149116, -458, -2017, -377, -455, 542, -52
0.149251, -458, -2017, -377, -455, 542, -52
0.149385, -458, -2017, -377, -455, 542, -52
0.149519, -458, -2017, -377, -455, 542, -52
0.149653, -458, -2017, -377, -455, 542, -52
0.149787, 61, -2058, 267, -573, 401, -38
0.149921, 61, -2058, 267, -573, 401, -38
0.150055, 61, -2058, 267, -573, 401, -38
0.150190, 61, -2058, 267, -573, 401, -38
0.150324, 61, -2058, 267, -573, 401, -38
0.150458, 61, -2058, 267, -573, 401, -38
0.150592, 61, -2058, 267, -573, 401, -38
0.150726, 61, -2058, 267, -573, 401, -38
0.150860, -187, -2050, 383, -527, 305, -212
0.150994, -187, -2050, 383, -527, 305, -212
0.151129, -187, -2050, 383, -527, 305, -212
0.151263, -187, -2050, 383, -527, 305, -212
0.151397, -187, -2050, 383, -527, 305, -212
0.151531, -187, -2050, 383, -527, 305, -212
0.151665, -187, -2050, 383, -527, 305, -212
0.151800, -187, -2050, 383, -527, 305, -212
0.151933, 24, -2040, 225, -406, 294, -211
0.152067, 24, -2040, 225, -406, 294, -211
0.152200, 24, -2040, 225, -406, 294, -211
0.152334, 24, -2040, 225, -406, 294, -211
0.152467, 24, -2040, 225, -406, 294, -211
0.152601, 24, -2040, 225, -406, 294, -211
0.152734, 24, -2040, 225, -406, 294, -211
0.152868, 446, -2082, -3, -360, 359, -390
0.153001, 446, -2082, -3, -360, 359, -390
0.153135, 446, -2082, -3, -360, 359, -390
0.153268, 446, -2082, -3, -360, 359, -390
0.153401, 446, -2082, -3, -360, 359, -390
0.153535, 446, -2082, -3, -360, 359, -390
0.153668, 446, -2082, -3, -360, 359, -390
0.153802, 446, -2082, -3, -360, 359, -390
0.153935, 296, -2070, -259, -432, 381, -704
0.154069, 296, -2070, -259, -432, 381, -704
0.154202, 296, -2070, -259, -432, 381, -704
0.154335, 296, -2070, -259, -432, 381, -704
0.154469, 296, -2070, -259, -432, 381, -704
0.154602, 296, -2070, -259, -432, 381, -704
0.154736, 296, -2070, -259, -432, 381, -704
0.154869, 52, -2027, -233, -543, 350, -838
0.155003, 52, -2027, -233, -543, 350, -838
0.155136, 52, -2027, -233, -543, 350, -838
0.155269, 52, -2027, -233, -543, 350, -838
0.155403, 52, -2027, -233, -543, 350, -838
0.155537, 52, -2027, -233, -543, 350, -838
0.155671, 52, -2027, -233, -543, 350, -838
0.155806, 52, -2027, -233, -543, 350, -838
0.155940, -285, -2035, -40, -597, 388, -802
0.156074, -285, -2035, -40, -597, 388, -802
0.156208, -285, -2035, -40, -597, 388, -802
0.156343, -285, -2035, -40, -597, 388, -802
0.156477, -285, -2035, -40, -597, 388, -802
0.156611, -285, -2035, -40, -597, 388, -802
0.156745, -285, -2035, -40, -597, 388, -802
0.156879, -740, -2034, 71, -609, 498, -547
0.157014, -740, -2034, 71, -609, 498, -547
0.157148, -740, -2034, 71, -609, 498, -547
0.157287, -740, -2034, 71, -609, 498, -547
0.157421, -740, -2034, 71, -609, 498, -547
0.157556, -740, -2034, 71, -609, 498, -547
0.157690, -740, -2034, 71, -609, 498, -547
0.157824, -740, -2034, 71, -609, 498, -547
0.157958, -805, -2034, 135, -572, 542, -120
0.158092, -805, -2034, 135, -572, 542, -120
0.158226, -805, -2034, 135, -572, 542, -120
0.158361, -805, -2034, 135, -572, 542, -120
0.158495, -805, -2034, 135, -572, 542, -120
0.158629, -805, -2034, 135, -572, 542, -120
0.158763, -805, -2034, 135, -572, 542, -120
0.158897, -805, -2034, 135, -572, 542, -120
0.159031, -467, -2062, 212, -494, 488, 203
0.159165, -467, -2062, 212, -494, 488, 203
0.159300, -467, -2062, 212, -494, 488, 203
0.159434, -467, -2062, 212, -494, 488, 203
0.159568, -467, -2062, 212, -494, 488, 203
0.159702, -467, -2062, 212, -494, 488, 203
0.159837, -467, -2062, 212, -494, 488, 203
0.159970, 237, -2050, 553, -286, 386, 191
0.160104, 237, -2050, 553, -286, 386, 191
0.160237, 237, -2050, 553, -286, 386, 191
0.160371, 237, -2050, 553, -286, 386, 191
0.160504, 237, -2050, 553, -286, 386, 191
0.160638, 237, -2050, 553, -286, 386, 191
0.160771, 237, -2050, 553, -286, 386, 191
0.160904, 237, -2050, 553, -286, 386, 191
0.161038, 708, -2017, 847, 144, 319, -265
0.161172, 708, -2017, 847, 144, 319, -265
0.161306, 708, -2017, 847, 144, 319, -265
0.161440, 708, -2017, 847, 144, 319, -265
0.161573, 708, -2017, 847, 144, 319, -265
0.161708, 708, -2017, 847, 144, 319, -265
0.161842, 708, -2017, 847, 144, 319, -265
0.161976, 117, -2094, 316, 463, 402, -752
0.162111, 117, -2094, 316, 463, 402, -752
0.162244, 117, -2094, 316, 463, 402, -752
0.162378, 117, -2094, 316, 463, 402, -752
0.162511, 117, -2094, 316, 463, 402, -752
0.162644, 117, -2094, 316, 463, 402, -752
0.162778, 117, -2094, 316, 463, 402, -752
0.162911, 117, -2094, 316, 463, 402, -752
0.163044, -714, -2165, -426, 396, 517, -664
0.163178, -714, -2165, -426, 396, 517, -664
0.163311, -714, -2165, -426, 396, 517, -664
0.163445, -714, -2165, -426, 396, 517, -664
0.163578, -714, -2165, -426, 396, 517, -664
0.163712, -714, -2165, -426, 396, 517, -664
0.163843, -714, -2165, -426, 396, 517, -664
0.163977, -685, -2067, -308, 281, 494, -182
0.164111, -685, -2067, -308, 281, 494, -182
0.164245, -685, -2067, -308, 281, 494, -182
0.164379, -685, -2067, -308, 281, 494, -182
0.164513, -685, -2067, -308, 281, 494, -182
0.164647, -685, -2067, -308, 281, 494, -182
0.164781, -685, -2067, -308, 281, 494, -182
0.164915, -685, -2067, -308, 281, 494, -182
0.165049, -223, -1996, 115, 339, 443, 73
0.165183, -223, -1996, 115, 339, 443, 73
0.165317, -223, -1996, 115, 339, 443, 73
0.165451, -223, -1996, 115, 339, 443, 73
0.165585, -223, -1996, 115, 339, 443, 73
0.165719, -223, -1996, 115, 339, 443, 73
0.165853, -223, -1996, 115, 339, 443, 73
0.165987, -223, -1996, 115, 339, 443, 73
0.166121, -87, -2045, 133, 351, 403, -2
0.166255, -87, -2045, 133, 351, 403, -2
0.166389, -87, -2045, 133, 351, 403, -2
0.166523, -87, -2045, 133, 351, 403, -2
0.166657, -87, -2045, 133, 351, 403, -2
0.166792, -87, -2045, 133, 351, 403, -2
0.166926, -87, -2045, 133, 351, 403, -2
0.167060, -124, -2053, -23, 304, 309, -102
0.167194, -124, -2053, -23, 304, 309, -102
0.167328, -124, -2053, -23, 304, 309, -102
0.167463, -124, -2053, -23, 304, 309, -102
0.167597, -124, -2053, -23, 304, 309, -102
0.167731, -124, -2053, -23, 304, 309, -102
0.167865, -124, -2053, -23, 304, 309, -102
0.167999, -124, -2053, -23, 304, 309, -102
0.168133, -38, -2023, -132, 265, 291, -126
0.168268, -38, -2023, -132, 265, 291, -126
0.168402, -38, -2023, -132, 265, 291, -126
0.168536, -38, -2023, -132, 265, 291, -126
0.168670, -38, -2023, -132, 265, 291, -126
0.168804, -38, -2023, -132, 265, 291, -126
0.168938, -38, -2023, -132, 265, 291, -126
0.169072, -39, -2047, -84, 170, 364, -161
0.169207, -39, -2047, -84, 170, 364, -161
0.169341, -39, -2047, -84, 170, 364, -161
0.169475, -39, -2047, -84, 170, 364, -161
0.169609, -39, -2047, -84, 170, 364, -161
0.169743, -39, -2047, -84, 170, 364, -161
0.169877, -39, -2047, -84, 170, 364, -161
0.170012, -39, -2047, -84, 170, 364, -161
0.170146, -176, -2072, 124, 141, 370, -164
0.170294, -176, -2072, 124, 141, 370, -164
0.170429, -176, -2072, 124, 141, 370, -164
0.170564, -176, -2072, 124, 141, 370, -164
0.170698, -176, -2072, 124, 141, 370, -164
0.170832, -176, -2072, 124, 141, 370, -164
0.170966, -176, -2072, 124, 141, 370, -164
0.171100, -318, -2050, 158, 242, 343, -72
0.171235, -318, -2050, 158, 242, 343, -72
0.171369, -318, -2050, 158, 242, 343, -72
0.171503, -318, -2050, 158, 242, 343, -72
0.171637, -318, -2050, 158, 242, 343, -72
0.171772, -318, -2050, 158, 242, 343, -72
0.171906, -318, -2050, 158, 242, 343, -72
0.172040, -318, -2050, 158, 242, 343, -72
0.172174, -554, -2013, -310, 180, 364, 113
0.172308, -554, -2013, -310, 180, 364, 113
0.172443, -554, -2013, -310, 180, 364, 113
0.172577, -554, -2013, -310, 180, 364, 113
0.172711, -554, -2013, -310, 180, 364, 113
0.172845, -554, -2013, -310, 180, 364, 113
0.172979, -554, -2013, -310, 180, 364, 113
0.173113, -776, -2017, -843, -258, 319, 414
0.173248, -776, -2017, -843, -258, 319, 414
0.173382, -776, -2017, -843, -258, 319, 414
0.173516, -776, -2017, -843, -258, 319, 414
0.173650, -776, -2017, -843, -258, 319, 414
0.173784, -776, -2017, -843, -258, 319, 414
0.173918, -776, -2017, -843, -258, 319, 414
0.174052, -776, -2017, -843, -258, 319, 414
0.174187, -476, -2049, -559, -711, 131, 733
0.174321, -476, -2049, -559, -711, 131, 733
0.174455, -476, -2049, -559, -711, 131, 733
0.174589, -476, -2049, -559, -711, 131, 733
0.174723, -476, -2049, -559, -711, 131, 733
0.174857, -476, -2049, -559, -711, 131, 733
0.174992, -476, -2049, -559, -711, 131, 733
0.175126, 257, -2058, 159, -788, -39, 734
0.175260, 257, -2058, 159, -788, -39, 734
0.175394, 257, -2058, 159, -788, -39, 734
0.175528, 257, -2058, 159, -788, -39, 734
0.175663, 257, -2058, 159, -788, -39, 734
0.175797, 257, -2058, 159, -788, -39, 734
0.175931, 257, -2058, 159, -788, -39, 734
0.176066, 257, -2058, 159, -788, -39, 734
0.176200, 467, -2080, 450, -649, -56, 341
0.176334, 467, -2080, 450, -649, -56, 341
0.176468, 467, -2080, 450, -649, -56, 341
0.176602, 467, -2080, 450, -649, -56, 341
0.176736, 467, -2080, 450, -649, -56, 341
0.176870, 467, -2080, 450, -649, -56, 341
0.177004, 467, -2080, 450, -649, -56, 341
0.177139, 467, -2080, 450, -649, -56, 341
0.177273, 43, -2092, 348, -492, 34, 29
0.177407, 43, -2092, 348, -492, 34, 29
0.177541, 43, -2092, 348, -492, 34, 29
0.177675, 43, -2092, 348, -492, 34, 29
0.177810, 43, -2092, 348, -492, 34, 29
0.177944, 43, -2092, 348, -492, 34, 29
0.178078, 43, -2092, 348, -492, 34, 29
0.178212, -145, -2059, 116, -363, 173, 44
0.178346, -145, -2059, 116, -363, 173, 44
0.178480, -145, -2059, 116, -363, 173, 44
0.178614, -145, -2059, 116, -363, 173, 44
0.178749, -145, -2059, 116, -363, 173, 44
0.178883, -145, -2059, 116, -363, 173, 44
0.179017, -145, -2059, 116, -363, 173, 44
0.179151, -145, -2059, 116, -363, 173, 44
0.179285, -39, -2034, 88, -305, 296, 108
0.179419, -39, -2034, 88, -305, 296, 108
0.179553, -39, -2034, 88, -305, 296, 108
0.179688, -39, -2034, 88, -305, 296, 108
0.179822, -39, -2034, 88, -305, 296, 108
0.179956, -39, -2034, 88, -305, 296, 108
0.180090, -39, -2034, 88, -305, 296, 108
0.180224, 144, -2009, 493, -150, 325, 53
0.180359, 144, -2009, 493, -150, 325, 53
0.180493, 144, -2009, 493, -150, 325, 53
0.180627, 144, -2009, 493, -150, 325, 53
0.180761, 144, -2009, 493, -150, 325, 53
0.180895, 144, -2009, 493, -150, 325, 53
0.181029, 144, -2009, 493, -150, 325, 53
0.181164, 144, -2009, 493, -150, 325, 53
0.181298, 471, -2021, 825, 250, 336, -184
0.181432, 471, -2021, 825, 250, 336, -184
0.181566, 471, -2021, 825, 250, 336, -184
0.181701, 471, -2021, 825, 250, 336, -184
0.181835, 471, -2021, 825, 250, 336, -184
0.181969, 471, -2021, 825, 250, 336, -184
0.182103, 471, -2021, 825, 250, 336, -184
0.182237, 244, -2091, 141, 537, 457, -538
0.182371, 244, -2091, 141, 537, 457, -538
0.182505, 244, -2091, 141, 537, 457, -538
0.182640, 244, -2091, 141, 537, 457, -538
0.182774, 244, -2091, 141, 537, 457, -538
0.182908, 244, -2091, 141, 537, 457, -538
0.183042, 244, -2091, 141, 537, 457, -538
0.183176, 244, -2091, 141, 537, 457, -538
0.183315, -605, -2115, -933, 287, 560, -548
0.183451, -605, -2115, -933, 287, 560, -548
0.183586, -605, -2115, -933, 287, 560, -548
0.183720, -605, -2115, -933, 287, 560, -548
0.183854, -605, -2115, -933, 287, 560, -548
0.183988, -605, -2115, -933, 287, 560, -548
0.184123, -605, -2115, -933, 287, 560, -548
0.184257, -823, -2064, -778, -158, 482, -73
0.184391, -823, -2064, -778, -158, 482, -73
0.184525, -823, -2064, -778, -158, 482, -73
0.184660, -823, -2064, -778, -158, 482, -73
0.184794, -823, -2064, -778, -158, 482, -73
0.184928, -823, -2064, -778, -158, 482, -73
0.185062, -823, -2064, -778, -158, 482, -73
0.185196, -823, -2064, -778, -158, 482, -73
0.185330, -140, -2014, 210, -250, 344, 273
0.185464, -140, -2014, 210, -250, 344, 273
0.185599, -140, -2014, 210, -250, 344, 273
0.185733, -140, -2014, 210, -250, 344, 273
0.185867, -140, -2014, 210, -250, 344, 273
0.186001, -140, -2014, 210, -250, 344, 273
0.186135, -140, -2014, 210, -250, 344, 273
0.186269, -140, -2014, 210, -250, 344, 273
0.186403, 314, -2027, 692, -58, 270, 76
0.186538, 314, -2027, 692, -58, 270, 76
0.186672, 314, -2027, 692, -58, 270, 76
0.186806, 314, -2027, 692, -58, 270, 76
0.186941, 314, -2027, 692, -58, 270, 76
0.187075, 314, -2027, 692, -58, 270, 76
0.187209, 314, -2027, 692, -58, 270, 76
0.187343, -132, -2070, 435, 145, 241, -234
0.187477, -132, -2070, 435, 145, 241, -234
0.187612, -132, -2070, 435, 145, 241, -234
0.187746, -132, -2070, 435, 145, 241, -234
0.187880, -132, -2070, 435, 145, 241, -234
0.188014, -132, -2070, 435, 145, 241, -234
0.188148, -132, -2070, 435, 145, 241, -234
0.188283, -132, -2070, 435, 145, 241, -234
0.188417, -764, -2051, -150, 224, 266, -93
0.188551, -764, -2051, -150, 224, 266, -93
0.188685, -764, -2051, -150, 224, 266, -93
0.188819, -764, -2051, -150, 224, 266, -93
0.188953, -764, -2051, -150, 224, 266, -93
0.189088, -764, -2051, -150, 224, 266, -93
0.189222, -764, -2051, -150, 224, 266, -93
0.189356, -593, -2006, -497, 79, 258, 343
0.189490, -593, -2006, -497, 79, 258, 343
0.189624, -593, -2006, -497, 79, 258, 343
0.189758, -593, -2006, -497, 79, 258, 343
0.189892, -593, -2006, -497, 79, 258, 343
0.190027, -593, -2006, -497, 79, 258, 343
0.190161, -593, -2006, -497, 79, 258, 343
0.190295, -593, -2006, -497, 79, 258, 343
0.190429, 82, -2031, -368, -163, 92, 472
0.190563, 82, -2031, -368, -163, 92, 472
0.190697, 82, -2031, -368, -163, 92, 472
0.190831, 82, -2031, -368, -163, 92, 472
0.190966, 82, -2031, -368, -163, 92, 472
0.191100, 82, -2031, -368, -163, 92, 472
0.191234, 82, -2031, -368, -163, 92, 472
0.191368, 163, -2092, -288, -345, -90, 217
0.191502, 163, -2092, -288, -345, -90, 217
0.191637, 163, -2092, -288, -345, -90, 217
0.191771, 163, -2092, -288, -345, -90, 217
0.191905, 163, -2092, -288, -345, -90, 217
0.192039, 163, -2092, -288, -345, -90, 217
0.192174, 163, -2092, -288, -345, -90, 217
0.192308, 163, -2092, -288, -345, -90, 217
0.192442, -322, -2092, -291, -550, -115, 103
0.192576, -322, -2092, -291, -550, -115, 103
0.192710, -322, -2092, -291, -550, -115, 103
0.192844, -322, -2092, -291, -550, -115, 103
0.192979, -322, -2092, -291, -550, -115, 103
0.193113, -322, -2092, -291, -550, -115, 103
0.193247, -322, -2092, -291, -550, -115, 103
0.193381, -555, -2041, 49, -678, -25, 330
0.193515, -555, -2041, 49, -678, -25, 330
0.193650, -555, -2041, 49, -678, -25, 330
0.193784, -555, -2041, 49, -678, -25, 330
0.193918, -555, -2041, 49, -678, -25, 330
0.194052, -555, -2041, 49, -678, -25, 330
0.194186, -555, -2041, 49, -678, -25, 330
0.194320, -555, -2041, 49, -678, -25, 330
0.194454, -223, -2014, 469, -572, 90, 567
0.194589, -223, -2014, 469, -572, 90, 567
0.194723, -223, -2014, 469, -572, 90, 567
0.194857, -223, -2014, 469, -572, 90, 567
0.194991, -223, -2014, 469, -572, 90, 567
0.195125, -223, -2014, 469, -572, 90, 567
0.195259, -223, -2014, 469, -572, 90, 567
0.195394, -223, -2014, 469, -572, 90, 567
0.195528, 314, -2034, 603, -300, 162, 460
0.195662, 314, -2034, 603, -300, 162, 460
0.195797, 314, -2034, 603, -300, 162, 460
0.195931, 314, -2034, 603, -300, 162, 460
0.196065, 314, -2034, 603, -300, 162, 460
0.196203, 314, -2034, 603, -300, 162, 460
0.196338, 314, -2034, 603, -300, 162, 460
0.196472, 304, -2058, 165, -82, 174, 77
0.196606, 304, -2058, 165, -82, 174, 77
0.196740, 304, -2058, 165, -82, 174, 77
0.196875, 304, -2058, 165, -82, 174, 77
0.197009, 304, -2058, 165, -82, 174, 77
0.197143, 304, -2058, 165, -82, 174, 77
0.197277, 304, -2058, 165, -82, 174, 77
0.197411, 304, -2058, 165, -82, 174, 77
0.197545, -137, -2068, -435, -183, 173, -116
0.197680, -137, -2068, -435, -183, 173, -116
0.197814, -137, -2068, -435, -183, 173, -116
0.197948, -137, -2068, -435, -183, 173, -116
0.198082, -137, -2068, -435, -183, 173, -116
0.198217, -137, -2068, -435, -183, 173, -116
0.198351, -137, -2068, -435, -183, 173, -116
0.198485, -62, -2077, -225, -396, 153, -29
0.198619, -62, -2077, -225, -396, 153, -29
0.198753, -62, -2077, -225, -396, 153, -29
0.198888, -62, -2077, -225, -396, 153, -29
0.199022, -62, -2077, -225, -396, 153, -29
0.199156, -62, -2077, -225, -396, 153, -29
0.199290, -62, -2077, -225, -396, 153, -29
0.199424, -62, -2077, -225, -396, 153, -29
0.199558, 426, -2079, 462, -306, 153, -111
0.199693, 426, -2079, 462, -306, 153, -111
0.199827, 426, -2079, 462, -306, 153, -111
0.199961, 426, -2079, 462, -306, 153, -111
0.200096, 426, -2079, 462, -306, 153, -111
0.200230, 426, -2079, 462, -306, 153, -111
0.200364, 426, -2079, 462, -306, 153, -111
0.200498, 419, -2074, 688, 2, 256, -468
0.200632, 419, -2074, 688, 2, 256, -468
0.200766, 419, -2074, 688, 2, 256, -468
0.200901, 419, -2074, 688, 2, 256, -468
0.201035, 419, -2074, 688, 2, 256, -468
0.201169, 419, -2074, 688, 2, 256, -468
0.201303, 419, -2074, 688, 2, 256, -468
0.201437, 419, -2074, 688, 2, 256, -468
0.201571, -121, -2046, 449, 266, 428, -666
0.201705, -121, -2046, 449, 266, 428, -666
0.201840, -121, -2046, 449, 266, 428, -666
0.201974, -121, -2046, 449, 266, 428, -666
0.202108, -121, -2046, 449, 266, 428, -666
0.202242, -121, -2046, 449, 266, 428, -666
0.202376, -121, -2046, 449, 266, 428, -666
0.202510, -461, -2031, 109, 402, 563, -497
0.202645, -461, -2031, 109, 402, 563, -497
0.202779, -461, -2031, 109, 402, 563, -497
0.202913, -461, -2031, 109, 402, 563, -497
0.203047, -461, -2031, 109, 402, 563, -497
0.203181, -461, -2031, 109, 402, 563, -497
0.203315, -461, -2031, 109, 402, 563, -497
0.203449, -461, -2031, 109, 402, 563, -497
0.203583, -458, -2061, -132, 389, 575, -212
0.203718, -458, -2061, -132, 389, 575, -212
0.203852, -458, -2061, -132, 389, 575, -212
0.203986, -458, -2061, -132, 389, 575, -212
0.204120, -458, -2061, -132, 389, 575, -212
0.204255, -458, -2061, -132, 389, 575, -212
0.204389, -458, -2061, -132, 389, 575, -212
0.204523, -318, -2048, -156, 309, 429, -7
0.204657, -318, -2048, -156, 309, 429, -7
0.204791, -318, -2048, -156, 309, 429, -7
0.204925, -318, -2048, -156, 309, 429, -7
0.205060, -318, -2048, -156, 309, 429, -7
0.205194, -318, -2048, -156, 309, 429, -7
0.205328, -318, -2048, -156, 309, 429, -7
0.205462, -318, -2048, -156, 309, 429, -7
0.205596, 83, -2035, -84, 259, 216, 34
0.205731, 83, -2035, -84, 259, 216, 34
0.205865, 83, -2035, -84, 259, 216, 34
0.205999, 83, -2035, -84, 259, 216, 34
0.206133, 83, -2035, -84, 259, 216, 34
0.206267, 83, -2035, -84, 259, 216, 34
0.206402, 83, -2035, -84, 259, 216, 34
0.206536, 83, -2035, -84, 259, 216, 34
0.206670, 284, -2084, -52, 224, 94, -158
0.206804, 284, -2084, -52, 224, 94, -158
0.206938, 284, -2084, -52, 224, 94, -158
0.207072, 284, -2084, -52, 224, 94, -158
0.207207, 284, -2084, -52, 224, 94, -158
0.207341, 284, -2084, -52, 224, 94, -158
0.207475, 284, -2084, -52, 224, 94, -158
0.207609, -144, -2087, -261, 140, 109, -302
0.207744, -144, -2087, -261, 140, 109, -302
0.207878, -144, -2087, -261, 140, 109, -302
0.208012, -144, -2087, -261, 140, 109, -302
0.208147, -144, -2087, -261, 140, 109, -302
0.208281, -144, -2087, -261, 140, 109, -302
0.208415, -144, -2087, -261, 140, 109, -302
0.208549, -144, -2087, -261, 140, 109, -302
0.208683, -497, -2037, -669, -133, 157, -103
0.208818, -497, -2037, -669, -133, 157, -103
0.208952, -497, -2037, -669, -133, 157, -103
0.209086, -497, -2037, -669, -133, 157, -103
0.209225, -497, -2037, -669, -133, 157, -103
0.209359, -497, -2037, -669, -133, 157, -103
0.209493, -497, -2037, -669, -133, 157, -103
0.209628, -98, -2029, -578, -524, 108, 159
0.209762, -98, -2029, -578, -524, 108, 159
0.209896, -98, -2029, -578, -524, 108, 159
0.210030, -98, -2029, -578, -524, 108, 159
0.210164, -98, -2029, -578, -524, 108, 159
0.210298, -98, -2029, -578, -524, 108, 159
0.210433, -98, -2029, -578, -524, 108, 159
0.210567, -98, -2029, -578, -524, 108, 159
0.210701, 354, -2045, 22, -713, 1, 38
0.210835, 354, -2045, 22, -713, 1, 38
0.210969, 354, -2045, 22, -713, 1, 38
0.211103, 354, -2045, 22, -713, 1, 38
0.211238, 354, -2045, 22, -713, 1, 38
0.211372, 354, -2045, 22, -713, 1, 38
0.211506, 354, -2045, 22, -713, 1, 38
0.211640, 54, -2044, 393, -644, -4, -247
0.211775, 54, -2044, 393, -644, -4, -247
0.211909, 54, -2044, 393, -644, -4, -247
0.212043, 54, -2044, 393, -644, -4, -247
0.212177, 54, -2044, 393, -644, -4, -247
0.212312, 54, -2044, 393, -644, -4, -247
0.212446, 54, -2044, 393, -644, -4, -247
0.212580, 54, -2044, 393, -644, -4, -247
0.212714, -387, -2050, 278, -538, 69, -225
0.212849, -387, -2050, 278, -538, 69, -225
0.212983, -387, -2050, 278, -538, 69, -225
0.213117, -387, -2050, 278, -538, 69, -225
0.213251, -387, -2050, 278, -538, 69, -225
0.213385, -387, -2050, 278, -538, 69, -225
0.213519, -387, -2050, 278, -538, 69, -225
0.213654, -263, -2067, 80, -485, 91, -20
0.213788, -263, -2067, 80, -485, 91, -20
0.213922, -263, -2067, 80, -485, 91, -20
0.214056, -263, -2067, 80, -485, 91, -20
0.214191, -263, -2067, 80, -485, 91, -20
0.214325, -263, -2067, 80, -485, 91, -20
0.214459, -263, -2067, 80, -485, 91, -20
0.214593, -263, -2067, 80, -485, 91, -20
0.214727, 63, -2063, 146, -384, 51, 5
0.214862, 63, -2063, 146, -384, 51, 5
0.214996, 63, -2063, 146, -384, 51, 5
0.215130, 63, -2063, 146, -384, 51, 5
0.215264, 63, -2063, 146, -384, 51, 5
0.215398, 63, -2063, 146, -384, 51, 5
0.215532, 63, -2063, 146, -384, 51, 5
0.215666, 63, -2063, 146, -384, 51, 5
0.215800, 174, -2048, 362, -194, 29, -149
0.215934, 174, -2048, 362, -194, 29, -149
0.216068, 174, -2048, 362, -194, 29, -149
0.216202, 174, -2048, 362, -194, 29, -149
0.216336, 174, -2048, 362, -194, 29, -149
0.216470, 174, -2048, 362, -194, 29, -149
0.216604, 174, -2048, 362, -194, 29, -149
0.216738, 312, -2048, 471, 28, 61, -347
0.216872, 312, -2048, 471, 28, 61, -347
0.217006, 312, -2048, 471, 28, 61, -347
0.217140, 312, -2048, 471, 28, 61, -347
0.217274, 312, -2048, 471, 28, 61, -347
0.217408, 312, -2048, 471, 28, 61, -347
0.217543, 312, -2048, 471, 28, 61, -347
0.217677, 312, -2048, 471, 28, 61, -347
0.217811, 469, -2082, 271, 212, 158, -620
0.217945, 469, -2082, 271, 212, 158, -620
0.218079, 469, -2082, 271, 212, 158, -620
0.218213, 469, -2082, 271, 212, 158, -620
0.218348, 469, -2082, 271, 212, 158, -620
0.218482, 469, -2082, 271, 212, 158, -620
0.218616, 469, -2082, 271, 212, 158, -620
0.218750, 261, -2117, -116, 271, 305, -888
0.218884, 261, -2117, -116, 271, 305, -888
0.219018, 261, -2117, -116, 271, 305, -888
0.219153, 261, -2117, -116, 271, 305, -888
0.219287, 261, -2117, -116, 271, 305, -888
0.219421, 261, -2117, -116, 271, 305, -888
0.219555, 261, -2117, -116, 271, 305, -888
0.219689, 261, -2117, -116, 271, 305, -888
0.219823, -240, -2085, -386, 162, 425, -912
0.219958, -240, -2085, -386, 162, 425, -912
0.220092, -240, -2085, -386, 162, 425, -912
0.220226, -240, -2085, -386, 162, 425, -912
0.220360, -240, -2085, -386, 162, 425, -912
0.220494, -240, -2085, -386, 162, 425, -912
0.220628, -240, -2085, -386, 162, 425, -912
0.220762, -525, -2024, -342, -42, 454, -646
0.220897, -525, -2024, -342, -42, 454, -646
0.221031, -525, -2024, -342, -42, 454, -646
0.221165, -525, -2024, -342, -42, 454, -646
0.221299, -525, -2024, -342, -42, 454, -646
0.221433, -525, -2024, -342, -42, 454, -646
0.221567, -525, -2024, -342, -42, 454, -646
0.221701, -525, -2024, -342, -42, 454, -646
0.221836, -453, -2000, -117, -209, 382, -331
0.221970, -453, -2000, -117, -209, 382, -331
0.222104, -453, -2000, -117, -209, 382, -331
0.222238, -453, -2000, -117, -209, 382, -331
0.222379, -453, -2000, -117, -209, 382, -331
0.222514, -453, -2000, -117, -209, 382, -331
0.222648, -453, -2000, -117, -209, 382, -331
0.222782, -340, -2016, 21, -302, 239, -156
0.222916, -340, -2016, 21, -302, 239, -156
0.223050, -340, -2016, 21, -302, 239, -156
0.223184, -340, -2016, 21, -302, 239, -156
0.223319, -340, -2016, 21, -302, 239, -156
0.223453, -340, -2016, 21, -302, 239, -156
0.223587, -340, -2016, 21, -302, 239, -156
0.223721, -340, -2016, 21, -302, 239, -156
0.223856, -193, -2031, 231, -311, 85, -92
0.223990, -193, -2031, 231, -311, 85, -92
0.224124, -193, -2031, 231, -311, 85, -92
0.224258, -193, -2031, 231, -311, 85, -92
0.224392, -193, -2031, 231, -311, 85, -92
0.224526, -193, -2031, 231, -311, 85, -92
0.224661, -193, -2031, 231, -311, 85, -92
0.224795, 150, -2029, 594, -111, -2, -135
0.224929, 150, -2029, 594, -111, -2, -135
0.225063, 150, -2029, 594, -111, -2, -135
0.225197, 150, -2029, 594, -111, -2, -135
0.225331, 150, -2029, 594, -111, -2, -135
0.225466, 150, -2029, 594, -111, -2, -135
0.225600, 150, -2029, 594, -111, -2, -135
0.225734, 150, -2029, 594, -111, -2, -135
0.225868, 546, -2071, 548, 239, 21, -377
0.226002, 546, -2071, 548, 239, 21, -377
0.226136, 546, -2071, 548, 239, 21, -377
0.226271, 546, -2071, 548, 239, 21, -377
0.226405, 546, -2071, 548, 239, 21, -377
0.226539, 546, -2071, 548, 239, 21, -377
0.226673, 546, -2071, 548, 239, 21, -377
0.226807, 546, -2071, 548, 239, 21, -377
0.226941, 525, -2143, -72, 392, 94, -765
0.227075, 525, -2143, -72, 392, 94, -765
0.227209, 525, -2143, -72, 392, 94, -765
0.227344, 525, -2143, -72, 392, 94, -765
0.227478, 525, -2143, -72, 392, 94, -765
0.227612, 525, -2143, -72, 392, 94, -765
0.227746, 525, -2143, -72, 392, 94, -765
0.227880, 12, -2126, -480, 263, 181, -958
0.228015, 12, -2126, -480, 263, 181, -958
0.228149, 12, -2126, -480, 263, 181, -958
0.228283, 12, -2126, -480, 263, 181, -958
0.228417, 12, -2126, -480, 263, 181, -958
0.228551, 12, -2126, -480, 263, 181, -958
0.228686, 12, -2126, -480, 263, 181, -958
0.228820, 12, -2126, -480, 263, 181, -958
0.228954, -214, -2061, -150, 128, 294, -797
0.229088, -214, -2061, -150, 128, 294, -797
0.229222, -214, -2061, -150, 128, 294, -797
0.229356, -214, -2061, -150, 128, 294, -797
0.229491, -214, -2061, -150, 128, 294, -797
0.229625, -214, -2061, -150, 128, 294, -797
0.229759, -214, -2061, -150, 128, 294, -797
0.229893, 17, -2027, 377, 182, 407, -650
0.230027, 17, -2027, 377, 182, 407, -650
0.230161, 17, -2027, 377, 182, 407, -650
0.230296, 17, -2027, 377, 182, 407, -650
0.230430, 17, -2027, 377, 182, 407, -650
0.230564, 17, -2027, 377, 182, 407, -650
0.230698, 17, -2027, 377, 182, 407, -650
0.230832, 17, -2027, 377, 182, 407, -650
0.230967, 226, -2025, 405, 332, 477, -745
0.231101, 226, -2025, 405, 332, 477, -745
0.231235, 226, -2025, 405, 332, 477, -745
0.231369, 226, -2025, 405, 332, 477, -745
0.231503, 226, -2025, 405, 332, 477, -745
0.231637, 226, -2025, 405, 332, 477, -745
0.231772, 226, -2025, 405, 332, 477, -745
0.231906, 242, -2089, -94, 356, 504, -945
0.232040, 242, -2089, -94, 356, 504, -945
0.232175, 242, -2089, -94, 356, 504, -945
0.232308, 242, -2089, -94, 356, 504, -945
0.232442, 242, -2089, -94, 356, 504, -945
0.232575, 242, -2089, -94, 356, 504, -945
0.232709, 242, -2089, -94, 356, 504, -945
0.232842, 242, -2089, -94, 356, 504, -945
0.232976, 26, -2114, -544, 157, 489, -1056
0.233109, 26, -2114, -544, 157, 489, -1056
0.233243, 26, -2114, -544, 157, 489, -1056
0.233376, 26, -2114, -544, 157, 489, -1056
0.233510, 26, -2114, -544, 157, 489, -1056
0.233643, 26, -2114, -544, 157, 489, -1056
0.233776, 26, -2114, -544, 157, 489, -1056
0.233910, 26, -2114, -544, 157, 489, -1056
0.234043, -128, -2022, -411, -100, 403, -993
0.234177, -128, -2022, -411, -100, 403, -993
0.234310, -128, -2022, -411, -100, 403, -993
0.234444, -128, -2022, -411, -100, 403, -993
0.234577, -128, -2022, -411, -100, 403, -993
0.234711, -128, -2022, -411, -100, 403, -993
0.234844, -128, -2022, -411, -100, 403, -993
0.234977, -102, -1984, -72, -268, 293, -888
0.235111, -102, -1984, -72, -268, 293, -888
0.235244, -102, -1984, -72, -268, 293, -888
0.235383, -102, -1984, -72, -268, 293, -888
0.235517, -102, -1984, -72, -268, 293, -888
0.235650, -102, -1984, -72, -268, 293, -888
0.235785, -102, -1984, -72, -268, 293, -888
0.235919, -102, -1984, -72, -268, 293, -888
0.236053, -28, -2034, 90, -381, 234, -838
0.236188, -28, -2034, 90, -381, 234, -838
0.236322, -28, -2034, 90, -381, 234, -838
0.236456, -28, -2034, 90, -381, 234, -838
0.236590, -28, -2034, 90, -381, 234, -838
0.236725, -28, -2034, 90, -381, 234, -838
0.236859, -28, -2034, 90, -381, 234, -838
0.236993, 138, -2080, 220, -360, 217, -855
0.237127, 138, -2080, 220, -360, 217, -855
0.237261, 138, -2080, 220, -360, 217, -855
0.237396, 138, -2080, 220, -360, 217, -855
0.237530, 138, -2080, 220, -360, 217, -855
0.237664, 138, -2080, 220, -360, 217, -855
0.237798, 138, -2080, 220, -360, 217, -855
0.237932, 138, -2080, 220, -360, 217, -855
0.238066, 244, -2090, 207, -202, 265, -973
0.238201, 244, -2090, 207, -202, 265, -973
0.238335, 244, -2090, 207, -202, 265, -973
0.238469, 244, -2090, 207, -202, 265, -973
0.238603, 244, -2090, 207, -202, 265, -973
0.238737, 244, -2090, 207, -202, 265, -973
0.238871, 244, -2090, 207, -202, 265, -973
0.239005, 239, -2074, 29, -127, 362, -1114
0.239140, 239, -2074, 29, -127, 362, -1114
0.239274, 239, -2074, 29, -127, 362, -1114
0.239408, 239, -2074, 29, -127, 362, -1114
0.239542, 239, -2074, 29, -127, 362, -1114
0.239676, 239, -2074, 29, -127, 362, -1114
0.239811, 239, -2074, 29, -127, 362, -1114
0.239945, 239, -2074, 29, -127, 362, -1114
0.240079, 255, -2073, 10, -130, 408, -1231
0.240214, 255, -2073, 10, -130, 408, -1231
0.240348, 255, -2073, 10, -130, 408, -1231
0.240482, 255, -2073, 10, -130, 408, -1231
0.240616, 255, -2073, 10, -130, 408, -1231
0.240750, 255, -2073, 10, -130, 408, -1231
0.240884, 255, -2073, 10, -130, 408, -1231
0.241018, 134, -2074, 163, -38, 428, -1336
0.241153, 134, -2074, 163, -38, 428, -1336
0.241287, 134, -2074, 163, -38, 428, -1336
0.241421, 134, -2074, 163, -38, 428, -1336
0.241555, 134, -2074, 163, -38, 428, -1336
0.241689, 134, -2074, 163, -38, 428, -1336
0.241824, 134, -2074, 163, -38, 428, -1336
0.241958, 134, -2074, 163, -38, 428, -1336
0.242092, -185, -2106, 7, 33, 483, -1327
0.242226, -185, -2106, 7, 33, 483, -1327
0.242360, -185, -2106, 7, 33, 483, -1327
0.242494, -185, -2106, 7, 33, 483, -1327
0.242629, -185, -2106, 7, 33, 483, -1327
0.242763, -185, -2106, 7, 33, 483, -1327
0.242897, -185, -2106, 7, 33, 483, -1327
0.243031, -185, -2106, 7, 33, 483, -1327
0.243165, -420, -2101, -485, -152, 479, -1149
0.243299, -420, -2101, -485, -152, 479, -1149
0.243433, -420, -2101, -485, -152, 479, -1149
0.243567, -420, -2101, -485, -152, 479, -1149
0.243701, -420, -2101, -485, -152, 479, -1149
0.243836, -420, -2101, -485, -152, 479, -1149
0.243970, -420, -2101, -485, -152, 479, -1149
0.244104, -350, -2009, -613, -494, 363, -897
0.244239, -350, -2009, -613, -494, 363, -897
0.244373, -350, -2009, -613, -494, 363, -897
0.244507, -350, -2009, -613, -494, 363, -897
0.244641, -350, -2009, -613, -494, 363, -897
0.244775, -350, -2009, -613, -494, 363, -897
0.244909, -350, -2009, -613, -494, 363, -897
0.245044, -350, -2009, -613, -494, 363, -897
0.245178, -77, -1993, -213, -734, 241, -756
0.245312, -77, -1993, -213, -734, 241, -756
0.245446, -77, -1993, -213, -734, 241, -756
0.245580, -77, -1993, -213, -734, 241, -756
0.245714, -77, -1993, -213, -734, 241, -756
0.245848, -77, -1993, -213, -734, 241, -756
0.245983, -77, -1993, -213, -734, 241, -756
0.246117, 69, -2057, 248, -793, 172, -804
0.246251, 69, -2057, 248, -793, 172, -804
0.246385, 69, -2057, 248, -793, 172, -804
0.246520, 69, -2057, 248, -793, 172, -804
0.246654, 69, -2057, 248, -793, 172, -804
0.246788, 69, -2057, 248, -793, 172, -804
0.246922, 69, -2057, 248, -793, 172, -804
0.247056, 69, -2057, 248, -793, 172, -804
0.247190, -13, -2074, 547, -645, 135, -887
0.247325, -13, -2074, 547, -645, 135, -887
0.247459, -13, -2074, 547, -645, 135, -887
0.247593, -13, -2074, 547, -645, 135, -887
0.247727, -13, -2074, 547, -645, 135, -887
0.247861, -13, -2074, 547, -645, 135, -887
0.248000, -13, -2074, 547, -645, 135, -887
0.248135, -13, -2042, 721, -297, 170, -876
0.248269, -13, -2042, 721, -297, 170, -876
0.248403, -13, -2042, 721, -297, 170, -876
0.248537, -13, -2042, 721, -297, 170, -876
0.248671, -13, -2042, 721, -297, 170, -876
0.248805, -13, -2042, 721, -297, 170, -876
0.248939, -13, -2042, 721, -297, 170, -876
0.249074, -13, -2042, 721, -297, 170, -876
0.249208, 302, -2036, 614, 94, 273, -911
0.249342, 302, -2036, 614, 94, 273, -911
0.249476, 302, -2036, 614, 94, 273, -911
0.249611, 302, -2036, 614, 94, 273, -911
0.249745, 302, -2036, 614, 94, 273, -911
0.249879, 302, -2036, 614, 94, 273, -911
0.250013, 302, -2036, 614, 94, 273, -911
0.250147, 529, -2074, 61, 296, 365, -1164
0.250282, 529, -2074, 61, 296, 365, -1164
0.250416, 529, -2074, 61, 296, 365, -1164
0.250550, 529, -2074, 61, 296, 365, -1164
0.250684, 529, -2074, 61, 296, 365, -1164
0.250818, 529, -2074, 61, 296, 365, -1164
0.250952, 529, -2074, 61, 296, 365, -1164
0.251087, 529, -2074, 61, 296, 365, -1164
0.251221, 125, -2096, -575, 163, 407, -1422
0.251355, 125, -2096, -575, 163, 407, -1422
0.251489, 125, -2096, -575, 163, 407, -1422
0.251623, 125, -2096, -575, 163, 407, -1422
0.251758, 125, -2096, -575, 163, 407, -1422
0.251892, 125, -2096, -575, 163, 407, -1422
0.252026, 125, -2096, -575, 163, 407, -1422
0.252160, -503, -2059, -598, -139, 425, -1295
0.252295, -503, -2059, -598, -139, 425, -1295
0.252429, -503, -2059, -598, -139, 425, -1295
0.252563, -503, -2059, -598, -139, 425, -1295
0.252697, -503, -2059, -598, -139, 425, -1295
0.252831, -503, -2059, -598, -139, 425, -1295
0.252965, -503, -2059, -598, -139, 425, -1295
0.253100, -503, -2059, -598, -139, 425, -1295
0.253234, -489, -2012, 76, -276, 446, -868
0.253368, -489, -2012, 76, -276, 446, -868
0.253502, -489, -2012, 76, -276, 446, -868
0.253636, -489, -2012, 76, -276, 446, -868
0.253770, -489, -2012, 76, -276, 446, -868
0.253905, -489, -2012, 76, -276, 446, -868
0.254039, -489, -2012, 76, -276, 446, -868
0.254173, -489, -2012, 76, -276, 446, -868
0.254307, 28, -2045, 574, -133, 452, -669
0.254441, 28, -2045, 574, -133, 452, -669
0.254575, 28, -2045, 574, -133, 452, -669
0.254709, 28, -2045, 574, -133, 452, -669
0.254844, 28, -2045, 574, -133, 452, -669
0.254978, 28, -2045, 574, -133, 452, -669
0.255112, 28, -2045, 574, -133, 452, -669
0.255246, 289, -2091, 133, 17, 451, -845
0.255381, 289, -2091, 133, 17, 451, -845
0.255515, 289, -2091, 133, 17, 451, -845
0.255649, 289, -2091, 133, 17, 451, -845
0.255783, 289, -2091, 133, 17, 451, -845
0.255917, 289, -2091, 133, 17, 451, -845
0.256050, 289, -2091, 133, 17, 451, -845
0.256184, 289, -2091, 133, 17, 451, -845
0.256317, 210, -2075, -637, -175, 420, -1076
0.256451, 210, -2075, -637, -175, 420, -1076
0.256584, 210, -2075, -637, -175, 420, -1076
0.256718, 210, -2075, -637, -175, 420, -1076
0.256851, 210, -2075, -637, -175, 420, -1076
0.256985, 210, -2075, -637, -175, 420, -1076
0.257118, 210, -2075, -637, -175, 420, -1076
0.257251, -58, -2057, -685, -559, 332, -1150
0.257385, -58, -2057, -685, -559, 332, -1150
0.257518, -58, -2057, -685, -559, 332, -1150
0.257652, -58, -2057, -685, -559, 332, -1150
0.257785, -58, -2057, -685, -559, 332, -1150
0.257919, -58, -2057, -685, -559, 332, -1150
0.258052, -58, -2057, -685, -559, 332, -1150
0.258185, -58, -2057, -685, -559, 332, -1150
0.258319, -323, -2043, -231, -793, 239, -1008
0.258452, -323, -2043, -231, -793, 239, -1008
0.258586, -323, -2043, -231, -793, 239, -1008
0.258719, -323, -2043, -231, -793, 239, -1008
0.258852, -323, -2043, -231, -793, 239, -1008
0.258986, -323, -2043, -231, -793, 239, -1008
0.259119, -323, -2043, -231, -793, 239, -1008
0.259253, -323, -2043, -231, -793, 239, -1008
0.259386, -251, -2063, 142, -868, 154, -783
0.259520, -251, -2063, 142, -868, 154, -783
0.259653, -251, -2063, 142, -868, 154, -783
0.259784, -251, -2063, 142, -868, 154, -783
0.259918, -251, -2063, 142, -868, 154, -783
0.260053, -251, -2063, 142, -868, 154, -783
0.260191, -251, -2063, 142, -868, 154, -783
0.260328, -209, -2083, 325, -826, 105, -663
0.260463, -209, -2083, 325, -826, 105, -663
0.260607, -209, -2083, 325, -826, 105, -663
0.260743, -209, -2083, 325, -826, 105, -663
0.260879, -209, -2083, 325, -826, 105, -663
0.261014, -209, -2083, 325, -826, 105, -663
0.261149, -209, -2083, 325, -826, 105, -663
0.261284, -337, -2047, 299, -688, 158, -526
0.261421, -337, -2047, 299, -688, 158, -526
0.261555, -337, -2047, 299, -688, 158, -526
0.261690, -337, -2047, 299, -688, 158, -526
0.261828, -337, -2047, 299, -688, 158, -526
0.261964, -337, -2047, 299, -688, 158, -526
0.262099, -337, -2047, 299, -688, 158, -526
0.262234, -337, -2047, 299, -688, 158, -526
0.262369, 41, -2030, 415, -496, 231, -376
0.262513, 41, -2030, 415, -496, 231, -376
0.262661, 41, -2030, 415, -496, 231, -376
0.262796, 41, -2030, 415, -496, 231, -376
0.262933, 41, -2030, 415, -496, 231, -376
0.263068, 41, -2030, 415, -496, 231, -376
0.263203, 41, -2030, 415, -496, 231, -376
0.263338, 736, -2078, 678, -166, 242, -581
0.263473, 736, -2078, 678, -166, 242, -581
0.263607, 736, -2078, 678, -166, 242, -581
0.263751, 736, -2078, 678, -166, 242, -581
0.263886, 736, -2078, 678, -166, 242, -581
0.264020, 736, -2078, 678, -166, 242, -581
0.264154, 736, -2078, 678, -166, 242, -581
0.264288, 736, -2078, 678, -166, 242, -581
0.264422, 592, -2121, 363, 150, 301, -1085
0.264557, 592, -2121, 363, 150, 301, -1085
0.264691, 592, -2121, 363, 150, 301, -1085
0.264825, 592, -2121, 363, 150, 301, -1085
0.264960, 592, -2121, 363, 150, 301, -1085
0.265094, 592, -2121, 363, 150, 301, -1085
0.265228, 592, -2121, 363, 150, 301, -1085
0.265362, -151, -2079, 2, 241, 432, -1252
0.265496, -151, -2079, 2, 241, 432, -1252
0.265630, -151, -2079, 2, 241, 432, -1252
0.265765, -151, -2079, 2, 241, 432, -1252
0.265899, -151, -2079, 2, 241, 432, -1252
0.266033, -151, -2079, 2, 241, 432, -1252
0.266167, -151, -2079, 2, 241, 432, -1252
0.266301, -151, -2079, 2, 241, 432, -1252
0.266436, -233, -2009, 251, 385, 529, -984
0.266570, -233, -2009, 251, 385, 529, -984
0.266704, -233, -2009, 251, 385, 529, -984
0.266838, -233, -2009, 251, 385, 529, -984
0.266972, -233, -2009, 251, 385, 529, -984
0.267106, -233, -2009, 251, 385, 529, -984
0.267241, -233, -2009, 251, 385, 529, -984
0.267375, 138, -2029, 144, 553, 608, -855
0.267510, 138, -2029, 144, 553, 608, -855
0.267657, 138, -2029, 144, 553, 608, -855
0.267796, 138, -2029, 144, 553, 608, -855
0.267931, 138, -2029, 144, 553, 608, -855
0.268066, 138, -2029, 144, 553, 608, -855
0.268201, 138, -2029, 144, 553, 608, -855
0.268339, 138, -2029, 144, 553, 608, -855
0.268478, 33, -2086, -577, 340, 618, -978
0.268622, 33, -2086, -577, 340, 618, -978
0.268756, 33, -2086, -577, 340, 618, -978
0.268891, 33, -2086, -577, 340, 618, -978
0.269025, 33, -2086, -577, 340, 618, -978
0.269163, 33, -2086, -577, 340, 618, -978
0.269304, 33, -2086, -577, 340, 618, -978
0.269443, -384, -2059, -1033, -161, 487, -941
0.269583, -384, -2059, -1033, -161, 487, -941
0.269730, -384, -2059, -1033, -161, 487, -941
0.269871, -384, -2059, -1033, -161, 487, -941
0.270012, -384, -2059, -1033, -161, 487, -941
0.270149, -384, -2059, -1033, -161, 487, -941
0.270283, -384, -2059, -1033, -161, 487, -941
0.270417, -449, -2027, -599, -588, 327, -658
0.270551, -449, -2027, -599, -588, 327, -658
0.270685, -449, -2027, -599, -588, 327, -658
0.270819, -449, -2027, -599, -588, 327, -658
0.270953, -449, -2027, -599, -588, 327, -658
0.271087, -449, -2027, -599, -588, 327, -658
0.271221, -449, -2027, -599, -588, 327, -658
0.271355, -449, -2027, -599, -588, 327, -658
0.271489, -216, -2062, 190, -725, 207, -449
0.271624, -216, -2062, 190, -725, 207, -449
0.271758, -216, -2062, 190, -725, 207, -449
0.271892, -216, -2062, 190, -725, 207, -449
0.272026, -216, -2062, 190, -725, 207, -449
0.272160, -216, -2062, 190, -725, 207, -449
0.272350, -216, -2062, 190, -725, 207, -449
0.272493, -76, -2084, 366, -674, 87, -459
0.272638, -76, -2084, 366, -674, 87, -459
0.272775, -76, -2084, 366, -674, 87, -459
0.272909, -76, -2084, 366, -674, 87, -459
0.273043, -76, -2084, 366, -674, 87, -459
0.273177, -76, -2084, 366, -674, 87, -459
0.273311, -76, -2084, 366, -674, 87, -459
0.273445, 35, -2057, 359, -574, -10, -534
0.273614, 35, -2057, 359, -574, -10, -534
0.273755, 35, -2057, 359, -574, -10, -534
0.273889, 35, -2057, 359, -574, -10, -534
0.274023, 35, -2057, 359, -574, -10, -534
0.274157, 35, -2057, 359, -574, -10, -534
0.274291, 35, -2057, 359, -574, -10, -534
0.274425, 35, -2057, 359, -574, -10, -534
0.274559, 624, -2006, 929, -226, -5, -703
0.274693, 624, -2006, 929, -226, -5, -703
0.274827, 624, -2006, 929, -226, -5, -703
0.274961, 624, -2006, 929, -226, -5, -703
0.275095, 624, -2006, 929, -226, -5, -703
0.275229, 624, -2006, 929, -226, -5, -703
0.275363, 624, -2006, 929, -226, -5, -703
0.275497, 1004, -2030, 1030, 389, 168, -1216
0.275631, 1004, -2030, 1030, 389, 168, -1216
0.275765, 1004, -2030, 1030, 389, 168, -1216
0.275899, 1004, -2030, 1030, 389, 168, -1216
0.276033, 1004, -2030, 1030, 389, 168, -1216
0.276167, 1004, -2030, 1030, 389, 168, -1216
0.276301, 1004, -2030, 1030, 389, 168, -1216
0.276435, 1004, -2030, 1030, 389, 168, -1216
0.276569, 163, -2135, -182, 628, 414, -1668
0.276703, 163, -2135, -182, 628, 414, -1668
0.276837, 163, -2135, -182, 628, 414, -1668
0.276971, 163, -2135, -182, 628, 414, -1668
0.277105, 163, -2135, -182, 628, 414, -1668
0.277239, 163, -2135, -182, 628, 414, -1668
0.277373, 163, -2135, -182, 628, 414, -1668
0.277507, -590, -2116, -933, 315, 505, -1433
0.277641, -590, -2116, -933, 315, 505, -1433
0.277775, -590, -2116, -933, 315, 505, -1433
0.277904, -590, -2116, -933, 315, 505, -1433
0.278045, -590, -2116, -933, 315, 505, -1433
0.278189, -590, -2116, -933, 315, 505, -1433
0.278328, -590, -2116, -933, 315, 505, -1433
0.278462, -590, -2116, -933, 315, 505, -1433
0.278596, -164, -2012, -343, 117, 496, -965
0.278731, -164, -2012, -343, 117, 496, -965
0.278865, -164, -2012, -343, 117, 496, -965
0.278999, -164, -2012, -343, 117, 496, -965
0.279133, -164, -2012, -343, 117, 496, -965
0.279267, -164, -2012, -343, 117, 496, -965
0.279405, -164, -2012, -343, 117, 496, -965
0.279542, 267, -2069, 145, 103, 569, -949
0.279682, 267, -2069, 145, 103, 569, -949
0.279817, 267, -2069, 145, 103, 569, -949
0.279951, 267, -2069, 145, 103, 569, -949
0.280085, 267, -2069, 145, 103, 569, -949
0.280219, 267, -2069, 145, 103, 569, -949
0.280353, 267, -2069, 145, 103, 569, -949
0.280487, 267, -2069, 145, 103, 569, -949
0.280621, -214, -2132, 106, 43, 604, -1095
0.280755, -214, -2132, 106, 43, 604, -1095
0.280889, -214, -2132, 106, 43, 604, -1095
0.281023, -214, -2132, 106, 43, 604, -1095
0.281157, -214, -2132, 106, 43, 604, -1095
0.281291, -214, -2132, 106, 43, 604, -1095
0.281425, -214, -2132, 106, 43, 604, -1095
0.281559, -707, -2034, 40, 62, 557, -861
0.281693, -707, -2034, 40, 62, 557, -861
0.281827, -707, -2034, 40, 62, 557, -861
0.281961, -707, -2034, 40, 62, 557, -861
0.282095, -707, -2034, 40, 62, 557, -861
0.282229, -707, -2034, 40, 62, 557, -861
0.282363, -707, -2034, 40, 62, 557, -861
0.282497, -707, -2034, 40, 62, 557, -861
0.282631, -617, -1979, -199, 36, 541, -433
0.282765, -617, -1979, -199, 36, 541, -433
0.282899, -617, -1979, -199, 36, 541, -433
0.283033, -617, -1979, -199, 36, 541, -433
0.283167, -617, -1979, -199, 36, 541, -433
0.283301, -617, -1979, -199, 36, 541, -433
0.283435, -617, -1979, -199, 36, 541, -433
0.283569, -617, -1979, -199, 36, 541, -433
0.283703, -513, -2041, -331, -191, 397, -142
0.283837, -513, -2041, -331, -191, 397, -142
0.283971, -513, -2041, -331, -191, 397, -142
0.284105, -513, -2041, -331, -191, 397, -142
0.284239, -513, -2041, -331, -191, 397, -142
0.284373, -513, -2041, -331, -191, 397, -142
0.284507, -513, -2041, -331, -191, 397, -142
0.284641, -170, -2073, 218, -247, 67, 2
0.284776, -170, -2073, 218, -247, 67, 2
0.284910, -170, -2073, 218, -247, 67, 2
0.285044, -170, -2073, 218, -247, 67, 2
0.285178, -170, -2073, 218, -247, 67, 2
0.285312, -170, -2073, 218, -247, 67, 2
0.285446, -170, -2073, 218, -247, 67, 2
0.285600, -170, -2073, 218, -247, 67, 2
0.285743, 360, -2045, 739, 87, -134, -142
0.285885, 360, -2045, 739, 87, -134, -142
0.286020, 360, -2045, 739, 87, -134, -142
0.286154, 360, -2045, 739, 87, -134, -142
0.286288, 360, -2045, 739, 87, -134, -142
0.286422, 360, -2045, 739, 87, -134, -142
0.286579, 360, -2045, 739, 87, -134, -142
0.286715, 220, -2060, 433, 375, -81, -465
0.286851, 220, -2060, 433, 375, -81, -465
0.286981, 220, -2060, 433, 375, -81, -465
0.287116, 220, -2060, 433, 375, -81, -465
0.287250, 220, -2060, 433, 375, -81, -465
0.287384, 220, -2060, 433, 375, -81, -465
0.287518, 220, -2060, 433, 375, -81, -465
0.287652, -97, -2073, -65, 393, 16, -547
0.287787, -97, -2073, -65, 393, 16, -547
0.287921, -97, -2073, -65, 393, 16, -547
0.288055, -97, -2073, -65, 393, 16, -547
0.288189, -97, -2073, -65, 393, 16, -547
0.288323, -97, -2073, -65, 393, 16, -547
0.288457, -97, -2073, -65, 393, 16, -547
0.288591, -97, -2073, -65, 393, 16, -547
0.288725, -63, -2037, -311, 335, 45, -474
0.288859, -63, -2037, -311, 335, 45, -474
0.288993, -63, -2037, -311, 335, 45, -474
0.289127, -63, -2037, -311, 335, 45, -474
0.289261, -63, -2037, -311, 335, 45, -474
0.289395, -63, -2037, -311, 335, 45, -474
0.289529, -63, -2037, -311, 335, 45, -474
0.289663, -349, -2068, -611, 113, 57, -409
0.289798, -349, -2068, -611, 113, 57, -409
0.289932, -349, -2068, -611, 113, 57, -409
0.290066, -349, -2068, -611, 113, 57, -409
0.290200, -349, -2068, -611, 113, 57, -409
0.290334, -349, -2068, -611, 113, 57, -409
0.290468, -349, -2068, -611, 113, 57, -409
0.290602, -349, -2068, -611, 113, 57, -409
0.290736, -572, -2092, -517, -273, -7, -136
0.290870, -572, -2092, -517, -273, -7, -136
0.291004, -572, -2092, -517, -273, -7, -136
0.291138, -572, -2092, -517, -273, -7, -136
0.291272, -572, -2092, -517, -273, -7, -136
0.291406, -572, -2092, -517, -273, -7, -136
0.291540, -572, -2092, -517, -273, -7, -136
0.291674, -572, -2092, -517, -273, -7, -136
0.291808, -44, -2050, 42, -418, -150, 126
0.291943, -44, -2050, 42, -418, -150, 126
0.292077, -44, -2050, 42, -418, -150, 126
0.292211, -44, -2050, 42, -418, -150, 126
0.292346, -44, -2050, 42, -418, -150, 126
0.292480, -44, -2050, 42, -418, -150, 126
0.292614, -44, -2050, 42, -418, -150, 126
0.292748, 544, -2021, 498, -255, -180, -40
0.292882, 544, -2021, 498, -255, -180, -40
0.293017, 544, -2021, 498, -255, -180, -40
0.293151, 544, -2021, 498, -255, -180, -40
0.293285, 544, -2021, 498, -255, -180, -40
0.293419, 544, -2021, 498, -255, -180, -40
0.293553, 544, -2021, 498, -255, -180, -40
0.293688, 544, -2021, 498, -255, -180, -40
0.293822, 642, -2037, 510, 0, -70, -495
0.293956, 642, -2037, 510, 0, -70, -495
0.294090, 642, -2037, 510, 0, -70, -495
0.294225, 642, -2037, 510, 0, -70, -495
0.294359, 642, -2037, 510, 0, -70, -495
0.294493, 642, -2037, 510, 0, -70, -495
0.294627, 642, -2037, 510, 0, -70, -495
0.294761, 150, -2097, -84, 92, 71, -824
0.294895, 150, -2097, -84, 92, 71, -824
0.295030, 150, -2097, -84, 92, 71, -824
0.295164, 150, -2097, -84, 92, 71, -824
0.295299, 150, -2097, -84, 92, 71, -824
0.295433, 150, -2097, -84, 92, 71, -824
0.295568, 150, -2097, -84, 92, 71, -824
0.295702, 150, -2097, -84, 92, 71, -824
0.295837, -602, -2132, -456, -68, 187, -668
0.295971, -602, -2132, -456, -68, 187, -668
0.296106, -602, -2132, -456, -68, 187, -668
0.296240, -602, -2132, -456, -68, 187, -668
0.296374, -602, -2132, -456, -68, 187, -668
0.296508, -602, -2132, -456, -68, 187, -668
0.296642, -602, -2132, -456, -68, 187, -668
0.296776, -666, -2081, -19, -139, 197, -145
0.296911, -666, -2081, -19, -139, 197, -145
0.297045, -666, -2081, -19, -139, 197, -145
0.297179, -666, -2081, -19, -139, 197, -145
0.297313, -666, -2081, -19, -139, 197, -145
0.297448, -666, -2081, -19, -139, 197, -145
0.297583, -666, -2081, -19, -139, 197, -145
0.297717, -666, -2081, -19, -139, 197, -145
0.297851, -124, -2010, 426, 20, 134, 168
0.297985, -124, -2010, 426, 20, 134, 168
0.298119, -124, -2010, 426, 20, 134, 168
0.298253, -124, -2010, 426, 20, 134, 168
0.298388, -124, -2010, 426, 20, 134, 168
0.298522, -124, -2010, 426, 20, 134, 168
0.298656, -124, -2010, 426, 20, 134, 168
0.298790, 101, -2038, 107, 126, 100, 82
0.298924, 101, -2038, 107, 126, 100, 82
0.299059, 101, -2038, 107, 126, 100, 82
0.299194, 101, -2038, 107, 126, 100, 82
0.299328, 101, -2038, 107, 126, 100, 82
0.299462, 101, -2038, 107, 126, 100, 82
0.299604, 101, -2038, 107, 126, 100, 82
0.299738, 101, -2038, 107, 126, 100, 82
0.299879, -191, -2091, -500, -23, 81, -18
0.300014, -191, -2091, -500, -23, 81, -18
0.300148, -191, -2091, -500, -23, 81, -18
0.300282, -191, -2091, -500, -23, 81, -18
0.300416, -191, -2091, -500, -23, 81, -18
0.300552, -191, -2091, -500, -23, 81, -18
0.300686, -191, -2091, -500, -23, 81, -18
0.300820, -504, -2073, -467, -252, 41, 154
0.300954, -504, -2073, -467, -252, 41, 154
0.301089, -504, -2073, -467, -252, 41, 154
0.301223, -504, -2073, -467, -252, 41, 154
0.301357, -504, -2073, -467, -252, 41, 154
0.301491, -504, -2073, -467, -252, 41, 154
0.301625, -504, -2073, -467, -252, 41, 154
0.301760, -504, -2073, -467, -252, 41, 154
0.301894, -170, -2034, 243, -276, -15, 417
0.302028, -170, -2034, 243, -276, -15, 417
0.302162, -170, -2034, 243, -276, -15, 417
0.302296, -170, -2034, 243, -276, -15, 417
0.302431, -170, -2034, 243, -276, -15, 417
0.302565, -170, -2034, 243, -276, -15, 417
0.302699, -170, -2034, 243, -276, -15, 417
0.302833, -170, -2034, 243, -276, -15, 417
0.302967, 787, -2000, 1146, 97, -64, 269
0.303102, 787, -2000, 1146, 97, -64, 269
0.303236, 787, -2000, 1146, 97, -64, 269
0.303370, 787, -2000, 1146, 97, -64, 269
0.303504, 787, -2000, 1146, 97, -64, 269
0.303639, 787, -2000, 1146, 97, -64, 269
0.303773, 787, -2000, 1146, 97, -64, 269
0.303910, 1058, -2041, 1232, 792, 19, -437
0.304045, 1058, -2041, 1232, 792, 19, -437
0.304181, 1058, -2041, 1232, 792, 19, -437
0.304316, 1058, -2041, 1232, 792, 19, -437
0.304450, 1058, -2041, 1232, 792, 19, -437
0.304584, 1058, -2041, 1232, 792, 19, -437
0.304718, 1058, -2041, 1232, 792, 19, -437
0.304852, 1058, -2041, 1232, 792, 19, -437
0.304986, -112, -2148, -279, 1060, 279, -937
0.305121, -112, -2148, -279, 1060, 279, -937
0.305256, -112, -2148, -279, 1060, 279, -937
0.305385, -112, -2148, -279, 1060, 279, -937
0.305519, -112, -2148, -279, 1060, 279, -937
0.305654, -112, -2148, -279, 1060, 279, -937
0.305788, -112, -2148, -279, 1060, 279, -937
0.305922, -922, -2118, -1314, 568, 384, -556
0.306056, -922, -2118, -1314, 568, 384, -556
0.306191, -922, -2118, -1314, 568, 384, -556
0.306325, -922, -2118, -1314, 568, 384, -556
0.306459, -922, -2118, -1314, 568, 384, -556
0.306593, -922, -2118, -1314, 568, 384, -556
0.306727, -922, -2118, -1314, 568, 384, -556
0.306861, -922, -2118, -1314, 568, 384, -556
0.306995, -190, -1988, -362, 247, 190, -6
0.307130, -190, -1988, -362, 247, 190, -6
0.307264, -190, -1988, -362, 247, 190, -6
0.307398, -190, -1988, -362, 247, 190, -6
0.307532, -190, -1988, -362, 247, 190, -6
0.307667, -190, -1988, -362, 247, 190, -6
0.307802, -190, -1988, -362, 247, 190, -6
0.307936, 312, -1995, 347, 360, 53, -104
0.308070, 312, -1995, 347, 360, 53, -104
0.308204, 312, -1995, 347, 360, 53, -104
0.308338, 312, -1995, 347, 360, 53, -104
0.308472, 312, -1995, 347, 360, 53, -104
0.308607, 312, -1995, 347, 360, 53, -104
0.308741, 312, -1995, 347, 360, 53, -104
0.308875, 312, -1995, 347, 360, 53, -104
0.309009, -253, -2118, -123, 250, 29, -346
0.309143, -253, -2118, -123, 250, 29, -346
0.309277, -253, -2118, -123, 250, 29, -346
0.309412, -253, -2118, -123, 250, 29, -346
0.309546, -253, -2118, -123, 250, 29, -346
0.309680, -253, -2118, -123, 250, 29, -346
0.309814, -253, -2118, -123, 250, 29, -346
0.309948, -676, -2117, -350, 6, -56, -129
0.310082, -676, -2117, -350, 6, -56, -129
0.310217, -676, -2117, -350, 6, -56, -129
0.310351, -676, -2117, -350, 6, -56, -129
0.310485, -676, -2117, -350, 6, -56, -129
0.310619, -676, -2117, -350, 6, -56, -129
0.310753, -676, -2117, -350, 6, -56, -129
0.310888, -676, -2117, -350, 6, -56, -129
0.311022, -247, -1977, 159, 40, -71, 237
0.311156, -247, -1977, 159, 40, -71, 237
0.311290, -247, -1977, 159, 40, -71, 237
0.311424, -247, -1977, 159, 40, -71, 237
0.311558, -247, -1977, 159, 40, -71, 237
0.311693, -247, -1977, 159, 40, -71, 237
0.311827, -247, -1977, 159, 40, -71, 237
0.311961, 507, -1930, 863, 336, -23, 175
0.312096, 507, -1930, 863, 336, -23, 175
0.312230, 507, -1930, 863, 336, -23, 175
0.312364, 507, -1930, 863, 336, -23, 175
0.312498, 507, -1930, 863, 336, -23, 175
0.312644, 507, -1930, 863, 336, -23, 175
0.312779, 507, -1930, 863, 336, -23, 175
0.312914, 507, -1930, 863, 336, -23, 175
0.313048, 682, -2042, 762, 737, -27, -325
0.313182, 682, -2042, 762, 737, -27, -325
0.313317, 682, -2042, 762, 737, -27, -325
0.313451, 682, -2042, 762, 737, -27, -325
0.313585, 682, -2042, 762, 737, -27, -325
0.313719, 682, -2042, 762, 737, -27, -325
0.313853, 682, -2042, 762, 737, -27, -325
0.313987, 682, -2042, 762, 737, -27, -325
0.314122, 7, -2177, -429, 803, 16, -682
0.314256, 7, -2177, -429, 803, 16, -682
0.314390, 7, -2177, -429, 803, 16, -682
0.314524, 7, -2177, -429, 803, 16, -682
0.314659, 7, -2177, -429, 803, 16, -682
0.314793, 7, -2177, -429, 803, 16, -682
0.314927, 7, -2177, -429, 803, 16, -682
0.315061, -752, -2143, -1062, 400, 72, -439
0.315195, -752, -2143, -1062, 400, 72, -439
0.315330, -752, -2143, -1062, 400, 72, -439
0.315464, -752, -2143, -1062, 400, 72, -439
0.315598, -752, -2143, -1062, 400, 72, -439
0.315732, -752, -2143, -1062, 400, 72, -439
0.315867, -752, -2143, -1062, 400, 72, -439
0.316001, -752, -2143, -1062, 400, 72, -439
0.316135, -613, -1998, -450, 105, 3, 103
0.316270, -613, -1998, -450, 105, 3, 103
0.316404, -613, -1998, -450, 105, 3, 103
0.316538, -613, -1998, -450, 105, 3, 103
0.316672, -613, -1998, -450, 105, 3, 103
0.316806, -613, -1998, -450, 105, 3, 103
0.316940, -613, -1998, -450, 105, 3, 103
0.317075, -34, -1996, 190, 42, -104, 293
0.317209, -34, -1996, 190, 42, -104, 293
0.317343, -34, -1996, 190, 42, -104, 293
0.317477, -34, -1996, 190, 42, -104, 293
0.317612, -34, -1996, 190, 42, -104, 293
0.317746, -34, -1996, 190, 42, -104, 293
0.317880, -34, -1996, 190, 42, -104, 293
0.318014, -34, -1996, 190, 42, -104, 293
0.318148, -79, -2072, 173, -2, -174, 126
0.318283, -79, -2072, 173, -2, -174, 126
0.318418, -79, -2072, 173, -2, -174, 126
0.318553, -79, -2072, 173, -2, -174, 126
0.318687, -79, -2072, 173, -2, -174, 126
0.318821, -79, -2072, 173, -2, -174, 126
0.318955, -79, -2072, 173, -2, -174, 126
0.319089, -455, -2068, -244, -100, -217, 123
0.319224, -455, -2068, -244, -100, -217, 123
0.319358, -455, -2068, -244, -100, -217, 123
0.319492, -455, -2068, -244, -100, -217, 123
0.319626, -455, -2068, -244, -100, -217, 123
0.319761, -455, -2068, -244, -100, -217, 123
0.319895, -455, -2068, -244, -100, -217, 123
0.320029, -455, -2068, -244, -100, -217, 123
0.320164, -238, -2037, -217, -242, -235, 337
0.320298, -238, -2037, -217, -242, -235, 337
0.320432, -238, -2037, -217, -242, -235, 337
0.320566, -238, -2037, -217, -242, -235, 337
0.320700, -238, -2037, -217, -242, -235, 337
0.320835, -238, -2037, -217, -242, -235, 337
0.320969, -238, -2037, -217, -242, -235, 337
0.321103, 348, -2022, 286, -203, -257, 315
0.321237, 348, -2022, 286, -203, -257, 315
0.321372, 348, -2022, 286, -203, -257, 315
0.321506, 348, -2022, 286, -203, -257, 315
0.321640, 348, -2022, 286, -203, -257, 315
0.321774, 348, -2022, 286, -203, -257, 315
0.321908, 348, -2022, 286, -203, -257, 315
0.322043, 348, -2022, 286, -203, -257, 315
0.322177, 444, -2039, 425, -4, -253, -34
0.322311, 444, -2039, 425, -4, -253, -34
0.322445, 444, -2039, 425, -4, -253, -34
0.322579, 444, -2039, 425, -4, -253, -34
0.322713, 444, -2039, 425, -4, -253, -34
0.322847, 444, -2039, 425, -4, -253, -34
0.322981, 444, -2039, 425, -4, -253, -34
0.323115, 70, -2096, 7, 69, -171, -283
0.323250, 70, -2096, 7, 69, -171, -283
0.323384, 70, -2096, 7, 69, -171, -283
0.323518, 70, -2096, 7, 69, -171, -283
0.323652, 70, -2096, 7, 69, -171, -283
0.323786, 70, -2096, 7, 69, -171, -283
0.323921, 70, -2096, 7, 69, -171, -283
0.324055, 70, -2096, 7, 69, -171, -283
0.324189, 24, -2104, -193, -6, -61, -273
0.324323, 24, -2104, -193, -6, -61, -273
0.324457, 24, -2104, -193, -6, -61, -273
0.324592, 24, -2104, -193, -6, -61, -273
0.324726, 24, -2104, -193, -6, -61, -273
0.324860, 24, -2104, -193, -6, -61, -273
0.324994, 24, -2104, -193, -6, -61, -273
0.325128, 24, -2104, -193, -6, -61, -273
0.325262, 470, -2016, 418, 130, 32, -359
0.325397, 470, -2016, 418, 130, 32, -359
0.325531, 470, -2016, 418, 130, 32, -359
0.325679, 470, -2016, 418, 130, 32, -359
0.325815, 470, -2016, 418, 130, 32, -359
0.325949, 470, -2016, 418, 130, 32, -359
0.326083, 470, -2016, 418, 130, 32, -359
0.326217, 587, -1984, 915, 571, 178, -739
0.326352, 587, -1984, 915, 571, 178, -739
0.326486, 587, -1984, 915, 571, 178, -739
0.326621, 587, -1984, 915, 571, 178, -739
0.326755, 587, -1984, 915, 571, 178, -739
0.326895, 587, -1984, 915, 571, 178, -739
0.327036, 587, -1984, 915, 571, 178, -739
0.327172, -97, -2099, 147, 810, 379, -1021
0.327307, -97, -2099, 147, 810, 379, -1021
0.327442, -97, -2099, 147, 810, 379, -1021
0.327576, -97, -2099, 147, 810, 379, -1021
0.327710, -97, -2099, 147, 810, 379, -1021
0.327845, -97, -2099, 147, 810, 379, -1021
0.327979, -97, -2099, 147, 810, 379, -1021
0.328114, -97, -2099, 147, 810, 379, -1021
0.328252, -883, -2164, -945, 524, 450, -742
0.328391, -883, -2164, -945, 524, 450, -742
0.328527, -883, -2164, -945, 524, 450, -742
0.328662, -883, -2164, -945, 524, 450, -742
0.328796, -883, -2164, -945, 524, 450, -742
0.328941, -883, -2164, -945, 524, 450, -742
0.329088, -883, -2164, -945, 524, 450, -742
0.329234, -819, -2074, -804, 123, 295, -113
0.329378, -819, -2074, -804, 123, 295, -113
0.329513, -819, -2074, -804, 123, 295, -113
0.329648, -819, -2074, -804, 123, 295, -113
0.329782, -819, -2074, -804, 123, 295, -113
0.329917, -819, -2074, -804, 123, 295, -113
0.330051, -819, -2074, -804, 123, 295, -113
0.330187, -819, -2074, -804, 123, 295, -113
0.330321, -23, -1976, 251, 64, 65, 196
0.330457, -23, -1976, 251, 64, 65, 196
0.330591, -23, -1976, 251, 64, 65, 196
0.330725, -23, -1976, 251, 64, 65, 196
0.330858, -23, -1976, 251, 64, 65, 196
0.330993, -23, -1976, 251, 64, 65, 196
0.331128, -23, -1976, 251, 64, 65, 196
0.331263, 481, -1989, 800, 318, -84, -77
0.331398, 481, -1989, 800, 318, -84, -77
0.331532, 481, -1989, 800, 318, -84, -77
0.331666, 481, -1989, 800, 318, -84, -77
0.331801, 481, -1989, 800, 318, -84, -77
0.331938, 481, -1989, 800, 318, -84, -77
0.332073, 481, -1989, 800, 318, -84, -77
0.332208, 481, -1989, 800, 318, -84, -77
0.332352, 111, -2103, 29, 457, -102, -471
0.332505, 111, -2103, 29, 457, -102, -471
0.332642, 111, -2103, 29, 457, -102, -471
0.332777, 111, -2103, 29, 457, -102, -471
0.332910, 111, -2103, 29, 457, -102, -471
0.333049, 111, -2103, 29, 457, -102, -471
0.333194, 111, -2103, 29, 457, -102, -471
0.333337, -400, -2149, -709, 221, -72, -445
0.333477, -400, -2149, -709, 221, -72, -445
0.333611, -400, -2149, -709, 221, -72, -445
0.333745, -400, -2149, -709, 221, -72, -445
0.333878, -400, -2149, -709, 221, -72, -445
0.334012, -400, -2149, -709, 221, -72, -445
0.334145, -400, -2149, -709, 221, -72, -445
0.334279, -329, -2043, -291, 37, -91, -138
0.334412, -329, -2043, -291, 37, -91, -138
0.334546, -329, -2043, -291, 37, -91, -138
0.334679, -329, -2043, -291, 37, -91, -138
0.334813, -329, -2043, -291, 37, -91, -138
0.334946, -329, -2043, -291, 37, -91, -138
0.335080, -329, -2043, -291, 37, -91, -138
0.335213, -329, -2043, -291, 37, -91, -138
0.335346, -49, -1961, 188, 73, -102, 25
0.335480, -49, -1961, 188, 73, -102, 25
0.335614, -49, -1961, 188, 73, -102, 25
0.335752, -49, -1961, 188, 73, -102, 25
0.335885, -49, -1961, 188, 73, -102, 25
0.336019, -49, -1961, 188, 73, -102, 25
0.336152, -49, -1961, 188, 73, -102, 25
0.336286, -49, -1961, 188, 73, -102, 25
0.336419, 226, -1999, 396, 150, -109, -44
0.336553, 226, -1999, 396, 150, -109, -44
0.336686, 226, -1999, 396, 150, -109, -44
0.336819, 226, -1999, 396, 150, -109, -44
0.336953, 226, -1999, 396, 150, -109, -44
0.337086, 226, -1999, 396, 150, -109, -44
0.337220, 226, -1999, 396, 150, -109, -44
0.337353, 332, -2075, 271, 301, -89, -284
0.337487, 332, -2075, 271, 301, -89, -284
0.337620, 332, -2075, 271, 301, -89, -284
0.337753, 332, -2075, 271, 301, -89, -284
0.337887, 332, -2075, 271, 301, -89, -284
0.338020, 332, -2075, 271, 301, -89, -284
0.338153, 332, -2075, 271, 301, -89, -284
0.338287, 332, -2075, 271, 301, -89, -284
0.338420, -38, -2084, -197, 331, 50, -454
0.338554, -38, -2084, -197, 331, 50, -454
0.338687, -38, -2084, -197, 331, 50, -454
0.338821, -38, -2084, -197, 331, 50, -454
0.338977, -38, -2084, -197, 331, 50, -454
0.339112, -38, -2084, -197, 331, 50, -454
0.339245, -38, -2084, -197, 331, 50, -454
0.339380, -373, -2069, -325, 210, 149, -317
0.339514, -373, -2069, -325, 210, 149, -317
0.339648, -373, -2069, -325, 210, 149, -317
0.339782, -373, -2069, -325, 210, 149, -317
0.339915, -373, -2069, -325, 210, 149, -317
0.340049, -373, -2069, -325, 210, 149, -317
0.340182, -373, -2069, -325, 210, 149, -317
0.340315, -373, -2069, -325, 210, 149, -317
0.340449, -427, -2094, -297, 99, 82, -63
0.340582, -427, -2094, -297, 99, 82, -63
0.340716, -427, -2094, -297, 99, 82, -63
0.340849, -427, -2094, -297, 99, 82, -63
0.340983, -427, -2094, -297, 99, 82, -63
0.341116, -427, -2094, -297, 99, 82, -63
0.341249, -427, -2094, -297, 99, 82, -63
0.341383, -378, -2058, -62, -1, -63, 136
0.341516, -378, -2058, -62, -1, -63, 136
0.341650, -378, -2058, -62, -1, -63, 136
0.341783, -378, -2058, -62, -1, -63, 136
0.341917, -378, -2058, -62, -1, -63, 136
0.342050, -378, -2058, -62, -1, -63, 136
0.342183, -378, -2058, -62, -1, -63, 136
0.342317, -378, -2058, -62, -1, -63, 136
0.342450, 187, -2002, 594, 123, -177, 176
0.342584, 187, -2002, 594, 123, -177, 176
0.342717, 187, -2002, 594, 123, -177, 176
0.342851, 187, -2002, 594, 123, -177, 176
0.342984, 187, -2002, 594, 123, -177, 176
0.343117, 187, -2002, 594, 123, -177, 176
0.343251, 187, -2002, 594, 123, -177, 176
0.343384, 725, -2035, 681, 483, -141, -206
0.343518, 725, -2035, 681, 483, -141, -206
0.343651, 725, -2035, 681, 483, -141, -206
0.343785, 725, -2035, 681, 483, -141, -206
0.343919, 725, -2035, 681, 483, -141, -206
0.344052, 725, -2035, 681, 483, -141, -206
0.344186, 725, -2035, 681, 483, -141, -206
0.344319, 725, -2035, 681, 483, -141, -206
0.344452, 307, -2103, -145, 589, 0, -705
0.344587, 307, -2103, -145, 589, 0, -705
0.344720, 307, -2103, -145, 589, 0, -705
0.344854, 307, -2103, -145, 589, 0, -705
0.344987, 307, -2103, -145, 589, 0, -705
0.345121, 307, -2103, -145, 589, 0, -705
0.345254, 307, -2103, -145, 589, 0, -705
0.345387, 307, -2103, -145, 589, 0, -705
0.345521, -233, -2100, -719, 335, 62, -750
0.345655, -233, -2100, -719, 335, 62, -750
0.345788, -233, -2100, -719, 335, 62, -750
0.345921, -233, -2100, -719, 335, 62, -750
0.346055, -233, -2100, -719, 335, 62, -750
0.346188, -233, -2100, -719, 335, 62, -750
0.346322, -233, -2100, -719, 335, 62, -750
0.346455, -305, -2046, -545, 64, 54, -499
0.346589, -305, -2046, -545, 64, 54, -499
0.346722, -305, -2046, -545, 64, 54, -499
0.346856, -305, -2046, -545, 64, 54, -499
0.346989, -305, -2046, -545, 64, 54, -499
0.347122, -305, -2046, -545, 64, 54, -499
0.347256, -305, -2046, -545, 64, 54, -499
0.347389, -305, -2046, -545, 64, 54, -499
0.347523, -234, -2034, -39, -102, 42, -300
0.347656, -234, -2034, -39, -102, 42, -300
0.347790, -234, -2034, -39, -102, 42, -300
0.347924, -234, -2034, -39, -102, 42, -300
0.348057, -234, -2034, -39, -102, 42, -300
0.348191, -234, -2034, -39, -102, 42, -300
0.348324, -234, -2034, -39, -102, 42, -300
0.348458, -164, -2044, 300, -95, -10, -228
0.348591, -164, -2044, 300, -95, -10, -228
0.348725, -164, -2044, 300, -95, -10, -228
0.348858, -164, -2044, 300, -95, -10, -228
0.348992, -164, -2044, 300, -95, -10, -228
0.349125, -164, -2044, 300, -95, -10, -228
0.349259, -164, -2044, 300, -95, -10, -228
0.349393, -164, -2044, 300, -95, -10, -228
0.349527, -281, -2057, 159, 9, -54, -183
0.349661, -281, -2057, 159, 9, -54, -183
0.349795, -281, -2057, 159, 9, -54, -183
0.349930, -281, -2057, 159, 9, -54, -183
0.350064, -281, -2057, 159, 9, -54, -183
0.350198, -281, -2057, 159, 9, -54, -183
0.350332, -281, -2057, 159, 9, -54, -183
0.350465, -281, -2057, 159, 9, -54, -183
0.350600, -205, -2055, -72, -8, -59, -72
0.350733, -205, -2055, -72, -8, -59, -72
0.350868, -205, -2055, -72, -8, -59, -72
0.351001, -205, -2055, -72, -8, -59, -72
0.351136, -205, -2055, -72, -8, -59, -72
0.351269, -205, -2055, -72, -8, -59, -72
0.351403, -205, -2055, -72, -8, -59, -72
0.351537, 62, -2044, -187, -77, -109, -55
0.351671, 62, -2044, -187, -77, -109, -55
0.351804, 62, -2044, -187, -77, -109, -55
0.351945, 62, -2044, -187, -77, -109, -55
0.352079, 62, -2044, -187, -77, -109, -55
0.352213, 62, -2044, -187, -77, -109, -55
0.352346, 62, -2044, -187, -77, -109, -55
0.352479, 62, -2044, -187, -77, -109, -55
0.352613, -65, -2063, -289, -179, -209, -118
0.352746, -65, -2063, -289, -179, -209, -118
0.352880, -65, -2063, -289, -179, -209, -118
0.353013, -65, -2063, -289, -179, -209, -118
0.353147, -65, -2063, -289, -179, -209, -118
0.353280, -65, -2063, -289, -179, -209, -118
0.353414, -65, -2063, -289, -179, -209, -118
0.353547, -158, -2066, -37, -282, -301, -65
0.353681, -158, -2066, -37, -282, -301, -65
0.353814, -158, -2066, -37, -282, -301, -65
0.353947, -158, -2066, -37, -282, -301, -65
0.354081, -158, -2066, -37, -282, -301, -65
0.354214, -158, -2066, -37, -282, -301, -65
0.354348, -158, -2066, -37, -282, -301, -65
0.354481, -158, -2066, -37, -282, -301, -65
0.354615, 307, -2038, 488, -136, -320, -68
0.354748, 307, -2038, 488, -136, -320, -68
0.354882, 307, -2038, 488, -136, -320, -68
0.355015, 307, -2038, 488, -136, -320, -68
0.355149, 307, -2038, 488, -136, -320, -68
0.355282, 307, -2038, 488, -136, -320, -68
0.355410, 307, -2038, 488, -136, -320, -68
0.355546, 307, -2038, 488, -136, -320, -68
0.355679, 563, -2033, 691, 218, -198, -382
0.355815, 563, -2033, 691, 218, -198, -382
0.355949, 563, -2033, 691, 218, -198, -382
0.356083, 563, -2033, 691, 218, -198, -382
0.356217, 563, -2033, 691, 218, -198, -382
0.356351, 563, -2033, 691, 218, -198, -382
0.356485, 563, -2033, 691, 218, -198, -382
0.356619, -94, -2066, 221, 473, 1, -655
0.356753, -94, -2066, 221, 473, 1, -655
0.356887, -94, -2066, 221, 473, 1, -655
0.357021, -94, -2066, 221, 473, 1, -655
0.357155, -94, -2066, 221, 473, 1, -655
0.357289, -94, -2066, 221, 473, 1, -655
0.357423, -94, -2066, 221, 473, 1, -655
0.357557, -94, -2066, 221, 473, 1, -655
0.357691, -767, -2080, -651, 360, 97, -416
0.357825, -767, -2080, -651, 360, 97, -416
0.357959, -767, -2080, -651, 360, 97, -416
0.358093, -767, -2080, -651, 360, 97, -416
0.358227, -767, -2080, -651, 360, 97, -416
0.358361, -767, -2080, -651, 360, 97, -416
0.358495, -767, -2080, -651, 360, 97, -416
0.358628, -532, -2070, -934, -68, -10, 72
0.358763, -532, -2070, -934, -68, -10, 72
0.358897, -532, -2070, -934, -68, -10, 72
0.359031, -532, -2070, -934, -68, -10, 72
0.359165, -532, -2070, -934, -68, -10, 72
0.359299, -532, -2070, -934, -68, -10, 72
0.359433, -532, -2070, -934, -68, -10, 72
0.359567, -532, -2070, -934, -68, -10, 72
0.359701, 192, -2057, -210, -343, -240, 203
0.359835, 192, -2057, -210, -343, -240, 203
0.359969, 192, -2057, -210, -343, -240, 203
0.360103, 192, -2057, -210, -343, -240, 203
0.360237, 192, -2057, -210, -343, -240, 203
0.360371, 192, -2057, -210, -343, -240, 203
0.360505, 192, -2057, -210, -343, -240, 203
0.360639, 435, -2035, 486, -249, -383, -124
0.360773, 435, -2035, 486, -249, -383, -124
0.360907, 435, -2035, 486, -249, -383, -124
0.361041, 435, -2035, 486, -249, -383, -124
0.361175, 435, -2035, 486, -249, -383, -124
0.361309, 435, -2035, 486, -249, -383, -124
0.361443, 435, -2035, 486, -249, -383, -124
0.361577, 435, -2035, 486, -249, -383, -124
0.361710, -1, -2061, 365, -98, -325, -408
0.361845, -1, -2061, 365, -98, -325, -408
0.361979, -1, -2061, 365, -98, -325, -408
0.362113, -1, -2061, 365, -98, -325, -408
0.362247, -1, -2061, 365, -98, -325, -408
0.362381, -1, -2061, 365, -98, -325, -408
0.362515, -1, -2061, 365, -98, -325, -408
0.362648, -136, -2081, 156, -12, -205, -354
0.362783, -136, -2081, 156, -12, -205, -354
0.362917, -136, -2081, 156, -12, -205, -354
0.363050, -136, -2081, 156, -12, -205, -354
0.363184, -136, -2081, 156, -12, -205, -354
0.363318, -136, -2081, 156, -12, -205, -354
0.363452, -136, -2081, 156, -12, -205, -354
0.363586, -136, -2081, 156, -12, -205, -354
0.363720, 14, -2030, 115, 156, -131, -290
0.363854, 14, -2030, 115, 156, -131, -290
0.363989, 14, -2030, 115, 156, -131, -290
0.364122, 14, -2030, 115, 156, -131, -290
0.364255, 14, -2030, 115, 156, -131, -290
0.364389, 14, -2030, 115, 156, -131, -290
0.364522, 14, -2030, 115, 156, -131, -290
0.364664, 14, -2030, 115, 156, -131, -290
0.364798, -173, -1992, -12, 226, -97, -275
0.364932, -173, -1992, -12, 226, -97, -275
0.365065, -173, -1992, -12, 226, -97, -275
0.365198, -173, -1992, -12, 226, -97, -275
0.365332, -173, -1992, -12, 226, -97, -275
0.365465, -173, -1992, -12, 226, -97, -275
0.365599, -173, -1992, -12, 226, -97, -275
0.365732, -45, -2037, 106, 203, -150, -202
0.365866, -45, -2037, 106, 203, -150, -202
0.365999, -45, -2037, 106, 203, -150, -202
0.366133, -45, -2037, 106, 203, -150, -202
0.366266, -45, -2037, 106, 203, -150, -202
0.366399, -45, -2037, 106, 203, -150, -202
0.366533, -45, -2037, 106, 203, -150, -202
0.366666, -45, -2037, 106, 203, -150, -202
0.366800, -67, -2112, -11, 246, -196, -245
0.366933, -67, -2112, -11, 246, -196, -245
0.367067, -67, -2112, -11, 246, -196, -245
0.367200, -67, -2112, -11, 246, -196, -245
0.367333, -67, -2112, -11, 246, -196, -245
0.367467, -67, -2112, -11, 246, -196, -245
0.367600, -67, -2112, -11, 246, -196, -245
0.367734, -538, -2079, -374, 130, -161, -122
0.367871, -538, -2079, -374, 130, -161, -122
0.368005, -538, -2079, -374, 130, -161, -122
0.368139, -538, -2079, -374, 130, -161, -122
0.368273, -538, -2079, -374, 130, -161, -122
0.368407, -538, -2079, -374, 130, -161, -122
0.368541, -538, -2079, -374, 130, -161, -122
0.368675, -538, -2079, -374, 130, -161, -122
0.368809, -79, -2049, -195, -41, -212, 170
0.368943, -79, -2049, -195, -41, -212, 170
0.369077, -79, -2049, -195, -41, -212, 170
0.369211, -79, -2049, -195, -41, -212, 170
0.369345, -79, -2049, -195, -41, -212, 170
0.369479, -79, -2049, -195, -41, -212, 170
0.369613, -79, -2049, -195, -41, -212, 170
0.369747, 530, -2098, 187, 23, -281, 14
0.369881, 530, -2098, 187, 23, -281, 14
0.370015, 530, -2098, 187, 23, -281, 14
0.370149, 530, -2098, 187, 23, -281, 14
0.370283, 530, -2098, 187, 23, -281, 14
0.370417, 530, -2098, 187, 23, -281, 14
0.370551, 530, -2098, 187, 23, -281, 14
0.370685, 530, -2098, 187, 23, -281, 14
0.370819, 107, -2061, 344, 228, -223, -339
0.370953, 107, -2061, 344, 228, -223, -339
0.371087, 107, -2061, 344, 228, -223, -339
0.371221, 107, -2061, 344, 228, -223, -339
0.371355, 107, -2061, 344, 228, -223, -339
0.371489, 107, -2061, 344, 228, -223, -339
0.371623, 107, -2061, 344, 228, -223, -339
0.371758, 107, -2061, 344, 228, -223, -339
0.371892, -447, -2024, -42, 305, -157, -311
0.372026, -447, -2024, -42, 305, -157, -311
0.372160, -447, -2024, -42, 305, -157, -311
0.372294, -447, -2024, -42, 305, -157, -311
0.372428, -447, -2024, -42, 305, -157, -311
0.372562, -447, -2024, -42, 305, -157, -311
0.372696, -447, -2024, -42, 305, -157, -311
0.372830, -786, -2075, -712, -4, -195, 26
0.372964, -786, -2075, -712, -4, -195, 26
0.373098, -786, -2075, -712, -4, -195, 26
0.373232, -786, -2075, -712, -4, -195, 26
0.373366, -786, -2075, -712, -4, -195, 26
0.373500, -786, -2075, -712, -4, -195, 26
0.373634, -786, -2075, -712, -4, -195, 26
0.373768, -786, -2075, -712, -4, -195, 26
0.373902, -825, -2072, -509, -395, -352, 501
0.374036, -825, -2072, -509, -395, -352, 501
0.374170, -825, -2072, -509, -395, -352, 501
0.374304, -825, -2072, -509, -395, -352, 501
0.374438, -825, -2072, -509, -395, -352, 501
0.374572, -825, -2072, -509, -395, -352, 501
0.374706, -825, -2072, -509, -395, -352, 501
0.374840, -342, -2022, 151, -431, -522, 840
0.374974, -342, -2022, 151, -431, -522, 840
0.375108, -342, -2022, 151, -431, -522, 840
0.375242, -342, -2022, 151, -431, -522, 840
0.375376, -342, -2022, 151, -431, -522, 840
0.375510, -342, -2022, 151, -431, -522, 840
0.375644, -342, -2022, 151, -431, -522, 840
0.375778, -342, -2022, 151, -431, -522, 840
0.375912, 82, -2029, 316, -340, -602, 815
0.376047, 82, -2029, 316, -340, -602, 815
0.376181, 82, -2029, 316, -340, -602, 815
0.376315, 82, -2029, 316, -340, -602, 815
0.376449, 82, -2029, 316, -340, -602, 815
0.376583, 82, -2029, 316, -340, -602, 815
0.376717, 82, -2029, 316, -340, -602, 815
0.376851, 362, -2037, 297, -263, -630, 575
0.376985, 362, -2037, 297, -263, -630, 575
0.377119, 362, -2037, 297, -263, -630, 575
0.377253, 362, -2037, 297, -263, -630, 575
0.377398, 362, -2037, 297, -263, -630, 575
0.377533, 362, -2037, 297, -263, -630, 575
0.377667, 362, -2037, 297, -263, -630, 575
0.377801, 362, -2037, 297, -263, -630, 575
0.377935, 611, -2037, 230, -90, -536, 241
0.378070, 611, -2037, 230, -90, -536, 241
0.378204, 611, -2037, 230, -90, -536, 241
0.378338, 611, -2037, 230, -90, -536, 241
0.378472, 611, -2037, 230, -90, -536, 241
0.378606, 611, -2037, 230, -90, -536, 241
0.378739, 611, -2037, 230, -90, -536, 241
0.378873, 588, -2070, 71, 43, -291, -128
0.379008, 588, -2070, 71, 43, -291, -128
0.379142, 588, -2070, 71, 43, -291, -128
0.379276, 588, -2070, 71, 43, -291, -128
0.379410, 588, -2070, 71, 43, -291, -128
0.379544, 588, -2070, 71, 43, -291, -128
0.379678, 588, -2070, 71, 43, -291, -128
0.379812, 588, -2070, 71, 43, -291, -128
0.379946, 486, -2074, -23, 77, -87, -442
0.380080, 486, -2074, -23, 77, -87, -442
0.380214, 486, -2074, -23, 77, -87, -442
0.380348, 486, -2074, -23, 77, -87, -442
0.380482, 486, -2074, -23, 77, -87, -442
0.380616, 486, -2074, -23, 77, -87, -442
0.380750, 486, -2074, -23, 77, -87, -442
0.380884, 486, -2074, -23, 77, -87, -442
0.381018, 345, -2055, -85, 55, 32, -686
0.381152, 345, -2055, -85, 55, 32, -686
