Time, ax, ay, az, gx, gy, gz
0.000016, 571, -2099, 81, -278, -404, -356
0.000207, 571, -2099, 81, -278, -404, -356
0.000350, 571, -2099, 81, -278, -404, -356
0.000488, 571, -2099, 81, -278, -404, -356
0.000626, 571, -2099, 81, -278, -404, -356
0.000763, 571, -2099, 81, -278, -404, -356
0.000903, 420, -2060, 94, -311, -212, -752
0.001045, 420, -2060, 94, -311, -212, -752
0.001183, 420, -2060, 94, -311, -212, -752
0.001321, 420, -2060, 94, -311, -212, -752
0.001459, 420, -2060, 94, -311, -212, -752
0.001596, 420, -2060, 94, -311, -212, -752
0.001733, 420, -2060, 94, -311, -212, -752
0.001870, -14, -2030, 163, -312, -63, -955
0.002008, -14, -2030, 163, -312, -63, -955
0.002146, -14, -2030, 163, -312, -63, -955
0.002283, -14, -2030, 163, -312, -63, -955
0.002421, -14, -2030, 163, -312, -63, -955
0.002558, -14, -2030, 163, -312, -63, -955
0.002695, -14, -2030, 163, -312, -63, -955
0.002832, -14, -2030, 163, -312, -63, -955
0.002970, -214, -2054, 248, -245, 14, -899
0.003111, -214, -2054, 248, -245, 14, -899
0.003250, -214, -2054, 248, -245, 14, -899
0.003388, -214, -2054, 248, -245, 14, -899
0.003525, -214, -2054, 248, -245, 14, -899
0.003663, -214, -2054, 248, -245, 14, -899
0.003800, -214, -2054, 248, -245, 14, -899
0.003938, -256, -2072, 184, -158, -34, -813
0.004081, -256, -2072, 184, -158, -34, -813
0.004220, -256, -2072, 184, -158, -34, -813
0.004358, -256, -2072, 184, -158, -34, -813
0.004495, -256, -2072, 184, -158, -34, -813
0.004633, -256, -2072, 184, -158, -34, -813
0.004771, -256, -2072, 184, -158, -34, -813
0.004908, -256, -2072, 184, -158, -34, -813
0.005046, -612, -2041, 60, -125, -200, -704
0.005187, -612, -2041, 60, -125, -200, -704
0.005328, -612, -2041, 60, -125, -200, -704
0.005467, -612, -2041, 60, -125, -200, -704
0.005604, -612, -2041, 60, -125, -200, -704
0.005742, -612, -2041, 60, -125, -200, -704
0.005880, -612, -2041, 60, -125, -200, -704
0.006017, -937, -2009, -56, -136, -411, -347
0.006158, -937, -2009, -56, -136, -411, -347
0.006296, -937, -2009, -56, -136, -411, -347
0.006436, -937, -2009, -56, -136, -411, -347
0.006572, -937, -2009, -56, -136, -411, -347
0.006711, -937, -2009, -56, -136, -411, -347
0.006849, -937, -2009, -56, -136, -411, -347
0.006986, -699, -2013, -91, -196, -632, 106
0.007129, -699, -2013, -91, -196, -632, 106
0.007267, -699, -2013, -91, -196, -632, 106
0.007404, -699, -2013, -91, -196, -632, 106
0.007542, -699, -2013, -91, -196, -632, 106
0.007679, -699, -2013, -91, -196, -632, 106
0.007817, -699, -2013, -91, -196, -632, 106
0.007954, -166, -2036, -5, -274, -855, 261
0.008093, -166, -2036, -5, -274, -855, 261
0.008231, -166, -2036, -5, -274, -855, 261
0.008368, -166, -2036, -5, -274, -855, 261
0.008505, -166, -2036, -5, -274, -855, 261
0.008643, -166, -2036, -5, -274, -855, 261
0.008780, -166, -2036, -5, -274, -855, 261
0.008917, -166, -2036, -5, -274, -855, 261
0.009054, 107, -2043, 24, -317, -987, 105
0.009195, 107, -2043, 24, -317, -987, 105
0.009332, 107, -2043, 24, -317, -987, 105
0.009469, 107, -2043, 24, -317, -987, 105
0.009607, 107, -2043, 24, -317, -987, 105
0.009744, 107, -2043, 24, -317, -987, 105
0.009881, 107, -2043, 24, -317, -987, 105
0.010018, 229, -2054, -23, -365, -956, -109
0.010159, 229, -2054, -23, -365, -956, -109
0.010296, 229, -2054, -23, -365, -956, -109
0.010434, 229, -2054, -23, -365, -956, -109
0.010571, 229, -2054, -23, -365, -956, -109
0.010708, 229, -2054, -23, -365, -956, -109
0.010845, 229, -2054, -23, -365, -956, -109
0.010982, 229, -2054, -23, -365, -956, -109
0.011120, 473, -2096, -54, -442, -814, -376
0.011261, 473, -2096, -54, -442, -814, -376
0.011398, 473, -2096, -54, -442, -814, -376
0.011536, 473, -2096, -54, -442, -814, -376
0.011673, 473, -2096, -54, -442, -814, -376
0.011810, 473, -2096, -54, -442, -814, -376
0.011947, 473, -2096, -54, -442, -814, -376
0.012085, 392, -2113, 153, -456, -606, -731
0.012225, 392, -2113, 153, -456, -606, -731
0.012364, 392, -2113, 153, -456, -606, -731
0.012501, 392, -2113, 153, -456, -606, -731
0.012639, 392, -2113, 153, -456, -606, -731
0.012776, 392, -2113, 153, -456, -606, -731
0.012914, 392, -2113, 153, -456, -606, -731
0.013186, -107, -2068, 405, -325, -356, -920
0.013338, -107, -2068, 405, -325, -356, -920
0.013477, -107, -2068, 405, -325, -356, -920
0.013616, -107, -2068, 405, -325, -356, -920
0.013754, -107, -2068, 405, -325, -356, -920
0.013893, -107, -2068, 405, -325, -356, -920
0.014031, -107, -2068, 405, -325, -356, -920
0.014169, -419, -2035, 365, -179, -158, -805
0.014311, -419, -2035, 365, -179, -158, -805
0.014449, -419, -2035, 365, -179, -158, -805
0.014586, -419, -2035, 365, -179, -158, -805
0.014723, -419, -2035, 365, -179, -158, -805
0.014860, -419, -2035, 365, -179, -158, -805
0.014999, -419, -2035, 365, -179, -158, -805
0.015137, -290, -2048, 281, -83, -118, -628
0.015279, -290, -2048, 281, -83, -118, -628
0.015417, -290, -2048, 281, -83, -118, -628
0.015555, -290, -2048, 281, -83, -118, -628
0.015693, -290, -2048, 281, -83, -118, -628
0.015831, -290, -2048, 281, -83, -118, -628
0.015968, -290, -2048, 281, -83, -118, -628
0.016107, -114, -2062, 128, 21, -209, -633
0.016248, -114, -2062, 128, 21, -209, -633
0.016387, -114, -2062, 128, 21, -209, -633
0.016525, -114, -2062, 128, 21, -209, -633
0.016662, -114, -2062, 128, 21, -209, -633
0.016800, -114, -2062, 128, 21, -209, -633
0.016937, -114, -2062, 128, 21, -209, -633
0.017074, -26, -2067, -157, 11, -340, -745
0.017211, -26, -2067, -157, 11, -340, -745
0.017353, -26, -2067, -157, 11, -340, -745
0.017491, -26, -2067, -157, 11, -340, -745
0.017629, -26, -2067, -157, 11, -340, -745
0.017766, -26, -2067, -157, 11, -340, -745
0.017903, -26, -2067, -157, 11, -340, -745
0.018041, -26, -2067, -157, 11, -340, -745
0.018179, 93, -2075, -300, -161, -452, -873
0.018321, 93, -2075, -300, -161, -452, -873
0.018459, 93, -2075, -300, -161, -452, -873
0.018596, 93, -2075, -300, -161, -452, -873
0.018735, 93, -2075, -300, -161, -452, -873
0.018872, 93, -2075, -300, -161, -452, -873
0.019009, 93, -2075, -300, -161, -452, -873
0.019146, 1, -2062, -197, -336, -506, -997
0.019288, 1, -2062, -197, -336, -506, -997
0.019426, 1, -2062, -197, -336, -506, -997
0.019565, 1, -2062, -197, -336, -506, -997
0.019702, 1, -2062, -197, -336, -506, -997
0.019839, 1, -2062, -197, -336, -506, -997
0.019977, 1, -2062, -197, -336, -506, -997
0.020114, -275, -2048, 26, -420, -476, -986
0.020253, -275, -2048, 26, -420, -476, -986
0.020391, -275, -2048, 26, -420, -476, -986
0.020528, -275, -2048, 26, -420, -476, -986
0.020666, -275, -2048, 26, -420, -476, -986
0.020803, -275, -2048, 26, -420, -476, -986
0.020941, -275, -2048, 26, -420, -476, -986
0.021079, -275, -2048, 26, -420, -476, -986
0.021216, -449, -2070, 259, -425, -405, -811
0.021358, -449, -2070, 259, -425, -405, -811
0.021496, -449, -2070, 259, -425, -405, -811
0.021633, -449, -2070, 259, -425, -405, -811
0.021771, -449, -2070, 259, -425, -405, -811
0.021908, -449, -2070, 259, -425, -405, -811
0.022045, -449, -2070, 259, -425, -405, -811
0.022183, -462, -2053, 317, -362, -367, -598
0.022324, -462, -2053, 317, -362, -367, -598
0.022463, -462, -2053, 317, -362, -367, -598
0.022600, -462, -2053, 317, -362, -367, -598
0.022737, -462, -2053, 317, -362, -367, -598
0.022874, -462, -2053, 317, -362, -367, -598
0.023012, -462, -2053, 317, -362, -367, -598
0.023149, -462, -2053, 317, -362, -367, -598
0.023287, -456, -1996, 161, -317, -368, -421
0.023428, -456, -1996, 161, -317, -368, -421
0.023566, -456, -1996, 161, -317, -368, -421
0.023705, -456, -1996, 161, -317, -368, -421
0.023842, -456, -1996, 161, -317, -368, -421
0.023979, -456, -1996, 161, -317, -368, -421
0.024117, -456, -1996, 161, -317, -368, -421
0.024255, -339, -2004, 96, -321, -407, -272
0.024397, -339, -2004, 96, -321, -407, -272
0.024535, -339, -2004, 96, -321, -407, -272
0.024672, -339, -2004, 96, -321, -407, -272
0.024811, -339, -2004, 96, -321, -407, -272
0.024948, -339, -2004, 96, -321, -407, -272
0.025086, -339, -2004, 96, -321, -407, -272
0.025223, 63, -2048, 40, -318, -470, -271
0.025365, 63, -2048, 40, -318, -470, -271
0.025503, 63, -2048, 40, -318, -470, -271
0.025642, 63, -2048, 40, -318, -470, -271
0.025779, 63, -2048, 40, -318, -470, -271
0.025916, 63, -2048, 40, -318, -470, -271
0.026149, 63, -2048, 40, -318, -470, -271
0.026297, 260, -2083, -46, -366, -511, -520
0.026439, 260, -2083, -46, -366, -511, -520
0.026577, 260, -2083, -46, -366, -511, -520
0.026716, 260, -2083, -46, -366, -511, -520
0.026854, 260, -2083, -46, -366, -511, -520
0.026992, 260, -2083, -46, -366, -511, -520
0.027131, 260, -2083, -46, -366, -511, -520
0.027268, 25, -2085, 28, -413, -490, -749
0.027409, 25, -2085, 28, -413, -490, -749
0.027548, 25, -2085, 28, -413, -490, -749
0.027686, 25, -2085, 28, -413, -490, -749
0.027823, 25, -2085, 28, -413, -490, -749
0.027961, 25, -2085, 28, -413, -490, -749
0.028100, 25, -2085, 28, -413, -490, -749
0.028238, 54, -2043, 20, -404, -393, -784
0.028376, 54, -2043, 20, -404, -393, -784
0.028514, 54, -2043, 20, -404, -393, -784
0.028652, 54, -2043, 20, -404, -393, -784
0.028791, 54, -2043, 20, -404, -393, -784
0.028929, 54, -2043, 20, -404, -393, -784
0.029067, 54, -2043, 20, -404, -393, -784
0.029206, 54, -2043, 20, -404, -393, -784
0.029343, 371, -2041, -102, -475, -271, -899
0.029485, 371, -2041, -102, -475, -271, -899
0.029623, 371, -2041, -102, -475, -271, -899
0.029762, 371, -2041, -102, -475, -271, -899
0.029899, 371, -2041, -102, -475, -271, -899
0.030037, 371, -2041, -102, -475, -271, -899
0.030175, 371, -2041, -102, -475, -271, -899
0.030314, 398, -2094, -134, -618, -162, -1197
0.030456, 398, -2094, -134, -618, -162, -1197
0.030594, 398, -2094, -134, -618, -162, -1197
0.030732, 398, -2094, -134, -618, -162, -1197
0.030870, 398, -2094, -134, -618, -162, -1197
0.031008, 398, -2094, -134, -618, -162, -1197
0.031145, 398, -2094, -134, -618, -162, -1197
0.031283, 83, -2109, -51, -727, -53, -1437
0.031420, 83, -2109, -51, -727, -53, -1437
0.031559, 83, -2109, -51, -727, -53, -1437
0.031696, 83, -2109, -51, -727, -53, -1437
0.031835, 83, -2109, -51, -727, -53, -1437
0.031972, 83, -2109, -51, -727, -53, -1437
0.032111, 83, -2109, -51, -727, -53, -1437
0.032249, 83, -2109, -51, -727, -53, -1437
0.032386, -346, -2056, 212, -736, 33, -1412
0.032528, -346, -2056, 212, -736, 33, -1412
0.032667, -346, -2056, 212, -736, 33, -1412
0.032805, -346, -2056, 212, -736, 33, -1412
0.032942, -346, -2056, 212, -736, 33, -1412
0.033080, -346, -2056, 212, -736, 33, -1412
0.033218, -346, -2056, 212, -736, 33, -1412
0.033355, -391, -2037, 424, -611, 34, -1195
0.033497, -391, -2037, 424, -611, 34, -1195
0.033635, -391, -2037, 424, -611, 34, -1195
0.033773, -391, -2037, 424, -611, 34, -1195
0.033911, -391, -2037, 424, -611, 34, -1195
0.034048, -391, -2037, 424, -611, 34, -1195
0.034186, -391, -2037, 424, -611, 34, -1195
0.034323, -207, -2088, 334, -463, -59, -1078
0.034461, -207, -2088, 334, -463, -59, -1078
0.034599, -207, -2088, 334, -463, -59, -1078
0.034737, -207, -2088, 334, -463, -59, -1078
0.034876, -207, -2088, 334, -463, -59, -1078
0.035013, -207, -2088, 334, -463, -59, -1078
0.035150, -207, -2088, 334, -463, -59, -1078
0.035288, -207, -2088, 334, -463, -59, -1078
0.035426, -274, -2080, 122, -375, -193, -1053
0.035568, -274, -2080, 122, -375, -193, -1053
0.035706, -274, -2080, 122, -375, -193, -1053
0.035845, -274, -2080, 122, -375, -193, -1053
0.035982, -274, -2080, 122, -375, -193, -1053
0.036120, -274, -2080, 122, -375, -193, -1053
0.036256, -274, -2080, 122, -375, -193, -1053
0.036394, -194, -2021, -33, -349, -298, -967
0.036536, -194, -2021, -33, -349, -298, -967
0.036675, -194, -2021, -33, -349, -298, -967
0.036813, -194, -2021, -33, -349, -298, -967
0.036950, -194, -2021, -33, -349, -298, -967
0.037089, -194, -2021, -33, -349, -298, -967
0.037227, -194, -2021, -33, -349, -298, -967
0.037364, -132, -1994, -75, -398, -358, -931
0.037502, -132, -1994, -75, -398, -358, -931
0.037640, -132, -1994, -75, -398, -358, -931
0.037778, -132, -1994, -75, -398, -358, -931
0.037915, -132, -1994, -75, -398, -358, -931
0.038052, -132, -1994, -75, -398, -358, -931
0.038191, -132, -1994, -75, -398, -358, -931
0.038328, -132, -1994, -75, -398, -358, -931
0.038466, -369, -1995, -81, -477, -392, -859
0.038608, -369, -1995, -81, -477, -392, -859
0.038747, -369, -1995, -81, -477, -392, -859
0.038885, -369, -1995, -81, -477, -392, -859
0.039115, -369, -1995, -81, -477, -392, -859
0.039263, -369, -1995, -81, -477, -392, -859
0.039402, -221, -2023, -171, -583, -385, -675
0.039543, -221, -2023, -171, -583, -385, -675
0.039682, -221, -2023, -171, -583, -385, -675
0.039820, -221, -2023, -171, -583, -385, -675
0.039959, -221, -2023, -171, -583, -385, -675
0.040098, -221, -2023, -171, -583, -385, -675
0.040233, -221, -2023, -171, -583, -385, -675
0.040369, -221, -2023, -171, -583, -385, -675
0.040504, 269, -2069, -179, -728, -348, -693
0.040640, 269, -2069, -179, -728, -348, -693
0.040779, 269, -2069, -179, -728, -348, -693
0.040917, 269, -2069, -179, -728, -348, -693
0.041055, 269, -2069, -179, -728, -348, -693
0.041193, 269, -2069, -179, -728, -348, -693
0.041331, 269, -2069, -179, -728, -348, -693
0.041470, 357, -2109, 59, -809, -281, -994
0.041611, 357, -2109, 59, -809, -281, -994
0.041749, 357, -2109, 59, -809, -281, -994
0.041887, 357, -2109, 59, -809, -281, -994
0.042026, 357, -2109, 59, -809, -281, -994
0.042164, 357, -2109, 59, -809, -281, -994
0.042302, 357, -2109, 59, -809, -281, -994
0.042440, -8, -2074, 248, -747, -149, -1222
0.042582, -8, -2074, 248, -747, -149, -1222
0.042720, -8, -2074, 248, -747, -149, -1222
0.042858, -8, -2074, 248, -747, -149, -1222
0.042996, -8, -2074, 248, -747, -149, -1222
0.043134, -8, -2074, 248, -747, -149, -1222
0.043273, -8, -2074, 248, -747, -149, -1222
0.043411, -8, -2074, 248, -747, -149, -1222
0.043549, -312, -2009, 252, -643, 1, -1170
0.043690, -312, -2009, 252, -643, 1, -1170
0.043829, -312, -2009, 252, -643, 1, -1170
0.043967, -312, -2009, 252, -643, 1, -1170
0.044106, -312, -2009, 252, -643, 1, -1170
0.044245, -312, -2009, 252, -643, 1, -1170
0.044383, -312, -2009, 252, -643, 1, -1170
0.044522, -283, -2036, 278, -554, 54, -1004
0.044663, -283, -2036, 278, -554, 54, -1004
0.044802, -283, -2036, 278, -554, 54, -1004
0.044940, -283, -2036, 278, -554, 54, -1004
0.045079, -283, -2036, 278, -554, 54, -1004
0.045241, -283, -2036, 278, -554, 54, -1004
0.045380, -283, -2036, 278, -554, 54, -1004
0.045518, -150, -2082, 320, -420, -2, -943
0.045660, -150, -2082, 320, -420, -2, -943
0.045798, -150, -2082, 320, -420, -2, -943
0.045936, -150, -2082, 320, -420, -2, -943
0.046075, -150, -2082, 320, -420, -2, -943
0.046213, -150, -2082, 320, -420, -2, -943
0.046351, -150, -2082, 320, -420, -2, -943
0.046490, -53, -2064, 424, -208, -90, -981
0.046631, -53, -2064, 424, -208, -90, -981
0.046770, -53, -2064, 424, -208, -90, -981
0.046908, -53, -2064, 424, -208, -90, -981
0.047046, -53, -2064, 424, -208, -90, -981
0.047184, -53, -2064, 424, -208, -90, -981
0.047323, -53, -2064, 424, -208, -90, -981
0.047461, -53, -2064, 424, -208, -90, -981
0.047599, 136, -2039, 574, 89, -151, -1090
0.047741, 136, -2039, 574, 89, -151, -1090
0.047879, 136, -2039, 574, 89, -151, -1090
0.048017, 136, -2039, 574, 89, -151, -1090
0.048156, 136, -2039, 574, 89, -151, -1090
0.048295, 136, -2039, 574, 89, -151, -1090
0.048433, 136, -2039, 574, 89, -151, -1090
0.048571, 188, -2041, 626, 452, -150, -1296
0.048713, 188, -2041, 626, 452, -150, -1296
0.048851, 188, -2041, 626, 452, -150, -1296
0.048989, 188, -2041, 626, 452, -150, -1296
0.049128, 188, -2041, 626, 452, -150, -1296
0.049266, 188, -2041, 626, 452, -150, -1296
0.049404, 188, -2041, 626, 452, -150, -1296
0.049542, 123, -2071, 463, 793, -102, -1487
0.049684, 123, -2071, 463, 793, -102, -1487
0.049822, 123, -2071, 463, 793, -102, -1487
0.049960, 123, -2071, 463, 793, -102, -1487
0.050099, 123, -2071, 463, 793, -102, -1487
0.050237, 123, -2071, 463, 793, -102, -1487
0.050375, 123, -2071, 463, 793, -102, -1487
0.050514, 123, -2071, 463, 793, -102, -1487
0.050652, 63, -2081, 0, 921, -27, -1622
0.050793, 63, -2081, 0, 921, -27, -1622
0.050932, 63, -2081, 0, 921, -27, -1622
0.051070, 63, -2081, 0, 921, -27, -1622
0.051208, 63, -2081, 0, 921, -27, -1622
0.051347, 63, -2081, 0, 921, -27, -1622
0.051485, 63, -2081, 0, 921, -27, -1622
0.051622, -288, -2042, -458, 766, 45, -1643
0.051764, -288, -2042, -458, 766, 45, -1643
0.051902, -288, -2042, -458, 766, 45, -1643
0.052041, -288, -2042, -458, 766, 45, -1643
0.052277, -288, -2042, -458, 766, 45, -1643
0.052426, -288, -2042, -458, 766, 45, -1643
0.052563, -529, -2036, -555, 455, 58, -1423
0.052702, -529, -2036, -555, 455, 58, -1423
0.052840, -529, -2036, -555, 455, 58, -1423
0.052978, -529, -2036, -555, 455, 58, -1423
0.053116, -529, -2036, -555, 455, 58, -1423
0.053254, -529, -2036, -555, 455, 58, -1423
0.053393, -529, -2036, -555, 455, 58, -1423
0.053531, -529, -2036, -555, 455, 58, -1423
0.053669, -275, -2065, -350, 154, 3, -1184
0.053809, -275, -2065, -350, 154, 3, -1184
0.053943, -275, -2065, -350, 154, 3, -1184
0.054077, -275, -2065, -350, 154, 3, -1184
0.054211, -275, -2065, -350, 154, 3, -1184
0.054345, -275, -2065, -350, 154, 3, -1184
0.054479, -275, -2065, -350, 154, 3, -1184
0.054613, -97, -2058, -168, -52, -72, -1160
0.054748, -97, -2058, -168, -52, -72, -1160
0.054882, -97, -2058, -168, -52, -72, -1160
0.055016, -97, -2058, -168, -52, -72, -1160
0.055150, -97, -2058, -168, -52, -72, -1160
0.055284, -97, -2058, -168, -52, -72, -1160
0.055418, -97, -2058, -168, -52, -72, -1160
0.055552, -97, -2058, -168, -52, -72, -1160
0.055686, -274, -2030, -62, -207, -107, -1182
0.055820, -274, -2030, -62, -207, -107, -1182
0.055955, -274, -2030, -62, -207, -107, -1182
0.056089, -274, -2030, -62, -207, -107, -1182
0.056223, -274, -2030, -62, -207, -107, -1182
0.056357, -274, -2030, -62, -207, -107, -1182
0.056491, -274, -2030, -62, -207, -107, -1182
0.056626, -385, -2002, 39, -318, -81, -1053
0.056760, -385, -2002, 39, -318, -81, -1053
0.056894, -385, -2002, 39, -318, -81, -1053
0.057028, -385, -2002, 39, -318, -81, -1053
0.057162, -385, -2002, 39, -318, -81, -1053
0.057297, -385, -2002, 39, -318, -81, -1053
0.057431, -385, -2002, 39, -318, -81, -1053
0.057565, -385, -2002, 39, -318, -81, -1053
0.057699, -172, -2019, 41, -382, -52, -902
0.057833, -172, -2019, 41, -382, -52, -902
0.057967, -172, -2019, 41, -382, -52, -902
0.058101, -172, -2019, 41, -382, -52, -902
0.058236, -172, -2019, 41, -382, -52, -902
0.058370, -172, -2019, 41, -382, -52, -902
0.058504, -172, -2019, 41, -382, -52, -902
0.058638, -116, -2083, 252, -364, -98, -911
0.058772, -116, -2083, 252, -364, -98, -911
0.058907, -116, -2083, 252, -364, -98, -911
0.059041, -116, -2083, 252, -364, -98, -911
0.059175, -116, -2083, 252, -364, -98, -911
0.059308, -116, -2083, 252, -364, -98, -911
0.059442, -116, -2083, 252, -364, -98, -911
0.059575, -116, -2083, 252, -364, -98, -911
0.059709, -529, -2068, 638, -100, -167, -875
0.059842, -529, -2068, 638, -100, -167, -875
0.059976, -529, -2068, 638, -100, -167, -875
0.060111, -529, -2068, 638, -100, -167, -875
0.060245, -529, -2068, 638, -100, -167, -875
0.060379, -529, -2068, 638, -100, -167, -875
0.060513, -529, -2068, 638, -100, -167, -875
0.060647, -529, -2068, 638, -100, -167, -875
0.060781, -599, -2026, 587, 260, -176, -598
0.060916, -599, -2026, 587, 260, -176, -598
0.061050, -599, -2026, 587, 260, -176, -598
0.061184, -599, -2026, 587, 260, -176, -598
0.061318, -599, -2026, 587, 260, -176, -598
0.061452, -599, -2026, 587, 260, -176, -598
0.061587, -599, -2026, 587, 260, -176, -598
0.061721, -42, -2040, 146, 409, -201, -432
0.061855, -42, -2040, 146, 409, -201, -432
0.061992, -42, -2040, 146, 409, -201, -432
0.062128, -42, -2040, 146, 409, -201, -432
0.062263, -42, -2040, 146, 409, -201, -432
0.062397, -42, -2040, 146, 409, -201, -432
0.062531, -42, -2040, 146, 409, -201, -432
0.062665, -42, -2040, 146, 409, -201, -432
0.062799, 265, -2071, -96, 402, -265, -645
0.062934, 265, -2071, -96, 402, -265, -645
0.063068, 265, -2071, -96, 402, -265, -645
0.063203, 265, -2071, -96, 402, -265, -645
0.063333, 265, -2071, -96, 402, -265, -645
0.063468, 265, -2071, -96, 402, -265, -645
0.063602, 265, -2071, -96, 402, -265, -645
0.063736, -3, -2072, 14, 426, -222, -908
0.063870, -3, -2072, 14, 426, -222, -908
0.064005, -3, -2072, 14, 426, -222, -908
0.064139, -3, -2072, 14, 426, -222, -908
0.064273, -3, -2072, 14, 426, -222, -908
0.064408, -3, -2072, 14, 426, -222, -908
0.064542, -3, -2072, 14, 426, -222, -908
0.064676, -3, -2072, 14, 426, -222, -908
0.064839, -363, -2010, -41, 436, -59, -867
0.064980, -363, -2010, -41, 436, -59, -867
0.065118, -363, -2010, -41, 436, -59, -867
0.065252, -363, -2010, -41, 436, -59, -867
0.065387, -363, -2010, -41, 436, -59, -867
0.065521, -363, -2010, -41, 436, -59, -867
0.065655, -363, -2010, -41, 436, -59, -867
0.065789, -196, -1991, -467, 196, 34, -683
0.065923, -196, -1991, -467, 196, 34, -683
0.066058, -196, -1991, -467, 196, 34, -683
0.066192, -196, -1991, -467, 196, 34, -683
0.066326, -196, -1991, -467, 196, 34, -683
0.066460, -196, -1991, -467, 196, 34, -683
0.066594, -196, -1991, -467, 196, 34, -683
0.066729, -196, -1991, -467, 196, 34, -683
0.066863, 196, -2068, -641, -248, 11, -763
0.066997, 196, -2068, -641, -248, 11, -763
0.067131, 196, -2068, -641, -248, 11, -763
0.067266, 196, -2068, -641, -248, 11, -763
0.067400, 196, -2068, -641, -248, 11, -763
0.067534, 196, -2068, -641, -248, 11, -763
0.067668, 196, -2068, -641, -248, 11, -763
0.067802, 44, -2100, -284, -542, 8, -1016
0.067937, 44, -2100, -284, -542, 8, -1016
0.068072, 44, -2100, -284, -542, 8, -1016
0.068206, 44, -2100, -284, -542, 8, -1016
0.068341, 44, -2100, -284, -542, 8, -1016
0.068475, 44, -2100, -284, -542, 8, -1016
0.068609, 44, -2100, -284, -542, 8, -1016
0.068743, 44, -2100, -284, -542, 8, -1016
0.068877, -209, -2072, 107, -623, 60, -1077
0.069011, -209, -2072, 107, -623, 60, -1077
0.069146, -209, -2072, 107, -623, 60, -1077
0.069280, -209, -2072, 107, -623, 60, -1077
0.069414, -209, -2072, 107, -623, 60, -1077
0.069548, -209, -2072, 107, -623, 60, -1077
0.069683, -209, -2072, 107, -623, 60, -1077
0.069817, -254, -2050, 273, -633, 94, -999
0.069951, -254, -2050, 273, -633, 94, -999
0.070085, -254, -2050, 273, -633, 94, -999
0.070219, -254, -2050, 273, -633, 94, -999
0.070354, -254, -2050, 273, -633, 94, -999
0.070488, -254, -2050, 273, -633, 94, -999
0.070622, -254, -2050, 273, -633, 94, -999
0.070756, -254, -2050, 273, -633, 94, -999
0.070890, -387, -2007, 241, -578, 87, -890
0.071025, -387, -2007, 241, -578, 87, -890
0.071159, -387, -2007, 241, -578, 87, -890
0.071293, -387, -2007, 241, -578, 87, -890
0.071427, -387, -2007, 241, -578, 87, -890
0.071561, -387, -2007, 241, -578, 87, -890
0.071696, -387, -2007, 241, -578, 87, -890
0.071830, -450, -2007, 74, -533, 59, -725
0.071964, -450, -2007, 74, -533, 59, -725
0.072099, -450, -2007, 74, -533, 59, -725
0.072233, -450, -2007, 74, -533, 59, -725
0.072367, -450, -2007, 74, -533, 59, -725
0.072501, -450, -2007, 74, -533, 59, -725
0.072636, -450, -2007, 74, -533, 59, -725
0.072770, -450, -2007, 74, -533, 59, -725
0.072904, -249, -2035, -121, -581, -9, -599
0.073038, -249, -2035, -121, -581, -9, -599
0.073172, -249, -2035, -121, -581, -9, -599
0.073307, -249, -2035, -121, -581, -9, -599
0.073441, -249, -2035, -121, -581, -9, -599
0.073575, -249, -2035, -121, -581, -9, -599
0.073709, -249, -2035, -121, -581, -9, -599
0.073844, 292, -2034, -349, -743, -132, -692
0.073978, 292, -2034, -349, -743, -132, -692
0.074112, 292, -2034, -349, -743, -132, -692
0.074246, 292, -2034, -349, -743, -132, -692
0.074381, 292, -2034, -349, -743, -132, -692
0.074515, 292, -2034, -349, -743, -132, -692
0.074649, 292, -2034, -349, -743, -132, -692
0.074783, 292, -2034, -349, -743, -132, -692
0.074917, 550, -2058, -153, -936, -215, -1098
0.075052, 550, -2058, -153, -936, -215, -1098
0.075186, 550, -2058, -153, -936, -215, -1098
0.075320, 550, -2058, -153, -936, -215, -1098
0.075455, 550, -2058, -153, -936, -215, -1098
0.075590, 550, -2058, -153, -936, -215, -1098
0.075725, 550, -2058, -153, -936, -215, -1098
0.075859, 550, -2058, -153, -936, -215, -1098
0.075993, -120, -2077, 588, -817, -97, -1420
0.076128, -120, -2077, 588, -817, -97, -1420
0.076262, -120, -2077, 588, -817, -97, -1420
0.076396, -120, -2077, 588, -817, -97, -1420
0.076531, -120, -2077, 588, -817, -97, -1420
0.076665, -120, -2077, 588, -817, -97, -1420
0.076799, -120, -2077, 588, -817, -97, -1420
0.076933, -1091, -2056, 1059, -332, 203, -1122
0.077068, -1091, -2056, 1059, -332, 203, -1122
0.077202, -1091, -2056, 1059, -332, 203, -1122
0.077336, -1091, -2056, 1059, -332, 203, -1122
0.077484, -1091, -2056, 1059, -332, 203, -1122
0.077624, -1091, -2056, 1059, -332, 203, -1122
0.077762, -1091, -2056, 1059, -332, 203, -1122
0.077896, -1342, -2002, 800, 134, 390, -350
0.078031, -1342, -2002, 800, 134, 390, -350
0.078165, -1342, -2002, 800, 134, 390, -350
0.078299, -1342, -2002, 800, 134, 390, -350
0.078433, -1342, -2002, 800, 134, 390, -350
0.078568, -1342, -2002, 800, 134, 390, -350
0.078702, -1342, -2002, 800, 134, 390, -350
0.078836, -1342, -2002, 800, 134, 390, -350
0.078970, -807, -1981, 257, 358, 258, 230
0.079104, -807, -1981, 257, 358, 258, 230
0.079238, -807, -1981, 257, 358, 258, 230
0.079372, -807, -1981, 257, 358, 258, 230
0.079506, -807, -1981, 257, 358, 258, 230
0.079640, -807, -1981, 257, 358, 258, 230
0.079774, -807, -1981, 257, 358, 258, 230
0.079909, -807, -1981, 257, 358, 258, 230
0.080043, -269, -2040, -77, 405, -45, 287
0.080177, -269, -2040, -77, 405, -45, 287
0.080312, -269, -2040, -77, 405, -45, 287
0.080446, -269, -2040, -77, 405, -45, 287
0.080580, -269, -2040, -77, 405, -45, 287
0.080714, -269, -2040, -77, 405, -45, 287
0.080848, -269, -2040, -77, 405, -45, 287
0.080983, -109, -2063, -319, 313, -284, 80
0.081117, -109, -2063, -319, 313, -284, 80
0.081251, -109, -2063, -319, 313, -284, 80
0.081385, -109, -2063, -319, 313, -284, 80
0.081519, -109, -2063, -319, 313, -284, 80
0.081654, -109, -2063, -319, 313, -284, 80
0.081788, -109, -2063, -319, 313, -284, 80
0.081922, -109, -2063, -319, 313, -284, 80
0.082056, -22, -2014, -387, 79, -397, -89
0.082190, -22, -2014, -387, 79, -397, -89
0.082325, -22, -2014, -387, 79, -397, -89
0.082459, -22, -2014, -387, 79, -397, -89
0.082593, -22, -2014, -387, 79, -397, -89
0.082727, -22, -2014, -387, 79, -397, -89
0.082861, -22, -2014, -387, 79, -397, -89
0.082995, 311, -2029, -164, -129, -377, -270
0.083130, 311, -2029, -164, -129, -377, -270
0.083264, 311, -2029, -164, -129, -377, -270
0.083398, 311, -2029, -164, -129, -377, -270
0.083532, 311, -2029, -164, -129, -377, -270
0.083667, 311, -2029, -164, -129, -377, -270
0.083801, 311, -2029, -164, -129, -377, -270
0.083935, 311, -2029, -164, -129, -377, -270
0.084070, 280, -2085, 131, -195, -171, -589
0.084204, 280, -2085, 131, -195, -171, -589
0.084339, 280, -2085, 131, -195, -171, -589
0.084473, 280, -2085, 131, -195, -171, -589
0.084607, 280, -2085, 131, -195, -171, -589
0.084741, 280, -2085, 131, -195, -171, -589
0.084875, 280, -2085, 131, -195, -171, -589
0.085010, -437, -2052, 354, -129, 148, -695
0.085144, -437, -2052, 354, -129, 148, -695
0.085278, -437, -2052, 354, -129, 148, -695
0.085412, -437, -2052, 354, -129, 148, -695
0.085546, -437, -2052, 354, -129, 148, -695
0.085681, -437, -2052, 354, -129, 148, -695
0.085815, -437, -2052, 354, -129, 148, -695
0.085949, -437, -2052, 354, -129, 148, -695
0.086083, -760, -1982, 243, -42, 380, -367
0.086218, -760, -1982, 243, -42, 380, -367
0.086352, -760, -1982, 243, -42, 380, -367
0.086486, -760, -1982, 243, -42, 380, -367
0.086620, -760, -1982, 243, -42, 380, -367
0.086754, -760, -1982, 243, -42, 380, -367
0.086888, -760, -1982, 243, -42, 380, -367
0.087023, -553, -1990, -28, -103, 394, -57
0.087157, -553, -1990, -28, -103, 394, -57
0.087291, -553, -1990, -28, -103, 394, -57
0.087425, -553, -1990, -28, -103, 394, -57
0.087560, -553, -1990, -28, -103, 394, -57
0.087694, -553, -1990, -28, -103, 394, -57
0.087828, -553, -1990, -28, -103, 394, -57
0.087962, -553, -1990, -28, -103, 394, -57
0.088097, -788, -2060, -19, -202, 230, 89
0.088231, -788, -2060, -19, -202, 230, 89
0.088365, -788, -2060, -19, -202, 230, 89
0.088499, -788, -2060, -19, -202, 230, 89
0.088633, -788, -2060, -19, -202, 230, 89
0.088767, -788, -2060, -19, -202, 230, 89
0.088901, -788, -2060, -19, -202, 230, 89
0.089036, -788, -2060, -19, -202, 230, 89
0.089170, -1191, -2062, 150, -184, 23, 454
0.089304, -1191, -2062, 150, -184, 23, 454
0.089438, -1191, -2062, 150, -184, 23, 454
0.089573, -1191, -2062, 150, -184, 23, 454
0.089707, -1191, -2062, 150, -184, 23, 454
0.089841, -1191, -2062, 150, -184, 23, 454
0.089975, -1191, -2062, 150, -184, 23, 454
0.090109, -891, -2018, 305, -91, -186, 982
0.090256, -891, -2018, 305, -91, -186, 982
0.090396, -891, -2018, 305, -91, -186, 982
0.090534, -891, -2018, 305, -91, -186, 982
0.090668, -891, -2018, 305, -91, -186, 982
0.090803, -891, -2018, 305, -91, -186, 982
0.090937, -891, -2018, 305, -91, -186, 982
0.091071, -293, -2029, 440, 62, -409, 1187
0.091206, -293, -2029, 440, 62, -409, 1187
0.091340, -293, -2029, 440, 62, -409, 1187
0.091474, -293, -2029, 440, 62, -409, 1187
0.091608, -293, -2029, 440, 62, -409, 1187
0.091742, -293, -2029, 440, 62, -409, 1187
0.091876, -293, -2029, 440, 62, -409, 1187
0.092011, -293, -2029, 440, 62, -409, 1187
0.092145, -161, -2057, 453, 275, -546, 1067
0.092280, -161, -2057, 453, 275, -546, 1067
0.092414, -161, -2057, 453, 275, -546, 1067
0.092549, -161, -2057, 453, 275, -546, 1067
0.092683, -161, -2057, 453, 275, -546, 1067
0.092817, -161, -2057, 453, 275, -546, 1067
0.092951, -161, -2057, 453, 275, -546, 1067
0.093085, -161, -2057, 453, 275, -546, 1067
0.093219, -334, -2048, 345, 473, -513, 1007
0.093354, -334, -2048, 345, 473, -513, 1007
0.093488, -334, -2048, 345, 473, -513, 1007
0.093622, -334, -2048, 345, 473, -513, 1007
0.093756, -334, -2048, 345, 473, -513, 1007
0.093890, -334, -2048, 345, 473, -513, 1007
0.094024, -334, -2048, 345, 473, -513, 1007
0.094159, -299, -2034, 240, 597, -393, 1099
0.094293, -299, -2034, 240, 597, -393, 1099
0.094427, -299, -2034, 240, 597, -393, 1099
0.094561, -299, -2034, 240, 597, -393, 1099
0.094696, -299, -2034, 240, 597, -393, 1099
0.094830, -299, -2034, 240, 597, -393, 1099
0.094964, -299, -2034, 240, 597, -393, 1099
0.095098, -299, -2034, 240, 597, -393, 1099
0.095232, 25, -2049, 111, 641, -294, 1098
0.095367, 25, -2049, 111, 641, -294, 1098
0.095501, 25, -2049, 111, 641, -294, 1098
0.095635, 25, -2049, 111, 641, -294, 1098
0.095769, 25, -2049, 111, 641, -294, 1098
0.095903, 25, -2049, 111, 641, -294, 1098
0.096037, 25, -2049, 111, 641, -294, 1098
0.096172, 134, -2054, 32, 623, -198, 885
0.096306, 134, -2054, 32, 623, -198, 885
0.096441, 134, -2054, 32, 623, -198, 885
0.096575, 134, -2054, 32, 623, -198, 885
0.096709, 134, -2054, 32, 623, -198, 885
0.096843, 134, -2054, 32, 623, -198, 885
0.096977, 134, -2054, 32, 623, -198, 885
0.097111, 134, -2054, 32, 623, -198, 885
0.097245, -114, -2053, 65, 611, -88, 694
0.097380, -114, -2053, 65, 611, -88, 694
0.097514, -114, -2053, 65, 611, -88, 694
0.097648, -114, -2053, 65, 611, -88, 694
0.097782, -114, -2053, 65, 611, -88, 694
0.097917, -114, -2053, 65, 611, -88, 694
0.098051, -114, -2053, 65, 611, -88, 694
0.098185, -338, -2052, 75, 615, 15, 691
0.098319, -338, -2052, 75, 615, 15, 691
0.098453, -338, -2052, 75, 615, 15, 691
0.098587, -338, -2052, 75, 615, 15, 691
0.098721, -338, -2052, 75, 615, 15, 691
0.098856, -338, -2052, 75, 615, 15, 691
0.098990, -338, -2052, 75, 615, 15, 691
0.099124, -338, -2052, 75, 615, 15, 691
0.099258, -324, -2027, 45, 597, 73, 783
0.099392, -324, -2027, 45, 597, 73, 783
0.099526, -324, -2027, 45, 597, 73, 783
0.099661, -324, -2027, 45, 597, 73, 783
0.099795, -324, -2027, 45, 597, 73, 783
0.099929, -324, -2027, 45, 597, 73, 783
0.100069, -324, -2027, 45, 597, 73, 783
0.100203, 23, -2004, -134, 508, 43, 765
0.100337, 23, -2004, -134, 508, 43, 765
0.100471, 23, -2004, -134, 508, 43, 765
0.100604, 23, -2004, -134, 508, 43, 765
0.100738, 23, -2004, -134, 508, 43, 765
0.100871, 23, -2004, -134, 508, 43, 765
0.101005, 23, -2004, -134, 508, 43, 765
0.101138, 23, -2004, -134, 508, 43, 765
0.101272, 398, -2041, -375, 266, -40, 471
0.101405, 398, -2041, -375, 266, -40, 471
0.101539, 398, -2041, -375, 266, -40, 471
0.101672, 398, -2041, -375, 266, -40, 471
0.101806, 398, -2041, -375, 266, -40, 471
0.101939, 398, -2041, -375, 266, -40, 471
0.102073, 398, -2041, -375, 266, -40, 471
0.102206, 398, -2041, -375, 266, -40, 471
0.102340, 495, -2104, -415, -43, -82, 17
0.102473, 495, -2104, -415, -43, -82, 17
0.102607, 495, -2104, -415, -43, -82, 17
0.102740, 495, -2104, -415, -43, -82, 17
0.102874, 495, -2104, -415, -43, -82, 17
0.103008, 495, -2104, -415, -43, -82, 17
0.103141, 495, -2104, -415, -43, -82, 17
0.103289, 258, -2094, -320, -288, -34, -348
0.103423, 258, -2094, -320, -288, -34, -348
0.103557, 258, -2094, -320, -288, -34, -348
0.103690, 258, -2094, -320, -288, -34, -348
0.103824, 258, -2094, -320, -288, -34, -348
0.103957, 258, -2094, -320, -288, -34, -348
0.104092, 258, -2094, -320, -288, -34, -348
0.104226, 258, -2094, -320, -288, -34, -348
0.104361, -272, -2044, -138, -470, 66, -430
0.104495, -272, -2044, -138, -470, 66, -430
0.104629, -272, -2044, -138, -470, 66, -430
0.104764, -272, -2044, -138, -470, 66, -430
0.104898, -272, -2044, -138, -470, 66, -430
0.105032, -272, -2044, -138, -470, 66, -430
0.105166, -272, -2044, -138, -470, 66, -430
0.105300, -699, -2024, 150, -550, 131, -169
0.105447, -699, -2024, 150, -550, 131, -169
0.105582, -699, -2024, 150, -550, 131, -169
0.105716, -699, -2024, 150, -550, 131, -169
0.105850, -699, -2024, 150, -550, 131, -169
0.105985, -699, -2024, 150, -550, 131, -169
0.106119, -699, -2024, 150, -550, 131, -169
0.106253, -699, -2024, 150, -550, 131, -169
0.106387, -770, -2031, 321, -488, 103, 243
0.106521, -770, -2031, 321, -488, 103, 243
0.106655, -770, -2031, 321, -488, 103, 243
0.106790, -770, -2031, 321, -488, 103, 243
0.106924, -770, -2031, 321, -488, 103, 243
0.107058, -770, -2031, 321, -488, 103, 243
0.107192, -770, -2031, 321, -488, 103, 243
0.107326, -431, -2021, 192, -404, -43, 527
0.107461, -431, -2021, 192, -404, -43, 527
0.107595, -431, -2021, 192, -404, -43, 527
0.107729, -431, -2021, 192, -404, -43, 527
0.107863, -431, -2021, 192, -404, -43, 527
0.107997, -431, -2021, 192, -404, -43, 527
0.108132, -431, -2021, 192, -404, -43, 527
0.108266, -431, -2021, 192, -404, -43, 527
0.108400, 159, -2029, -60, -436, -263, 460
0.108535, 159, -2029, -60, -436, -263, 460
0.108669, 159, -2029, -60, -436, -263, 460
0.108803, 159, -2029, -60, -436, -263, 460
0.108937, 159, -2029, -60, -436, -263, 460
0.109071, 159, -2029, -60, -436, -263, 460
0.109205, 159, -2029, -60, -436, -263, 460
0.109339, 199, -2102, -71, -531, -418, 106
0.109474, 199, -2102, -71, -531, -418, 106
0.109608, 199, -2102, -71, -531, -418, 106
0.109739, 199, -2102, -71, -531, -418, 106
0.109877, 199, -2102, -71, -531, -418, 106
0.110011, 199, -2102, -71, -531, -418, 106
0.110146, 199, -2102, -71, -531, -418, 106
0.110280, 199, -2102, -71, -531, -418, 106
0.110414, -658, -2112, 323, -448, -413, 23
0.110549, -658, -2112, 323, -448, -413, 23
0.110683, -658, -2112, 323, -448, -413, 23
0.110817, -658, -2112, 323, -448, -413, 23
0.110952, -658, -2112, 323, -448, -413, 23
0.111082, -658, -2112, 323, -448, -413, 23
0.111217, -658, -2112, 323, -448, -413, 23
0.111351, -1248, -2009, 707, -99, -311, 583
0.111486, -1248, -2009, 707, -99, -311, 583
0.111620, -1248, -2009, 707, -99, -311, 583
0.111754, -1248, -2009, 707, -99, -311, 583
0.111888, -1248, -2009, 707, -99, -311, 583
0.112022, -1248, -2009, 707, -99, -311, 583
0.112157, -1248, -2009, 707, -99, -311, 583
0.112303, -1248, -2009, 707, -99, -311, 583
0.112447, -833, -1950, 619, 250, -290, 1263
0.112589, -833, -1950, 619, 250, -290, 1263
0.112726, -833, -1950, 619, 250, -290, 1263
0.112861, -833, -1950, 619, 250, -290, 1263
0.112996, -833, -1950, 619, 250, -290, 1263
0.113130, -833, -1950, 619, 250, -290, 1263
0.113267, -833, -1950, 619, 250, -290, 1263
0.113426, -171, -1998, 321, 430, -413, 1438
0.113567, -171, -1998, 321, 430, -413, 1438
0.113711, -171, -1998, 321, 430, -413, 1438
0.113849, -171, -1998, 321, 430, -413, 1438
0.113984, -171, -1998, 321, 430, -413, 1438
0.114119, -171, -1998, 321, 430, -413, 1438
0.114254, -171, -1998, 321, 430, -413, 1438
0.114389, 237, -2068, 68, 511, -533, 1151
0.114523, 237, -2068, 68, 511, -533, 1151
0.114657, 237, -2068, 68, 511, -533, 1151
0.114791, 237, -2068, 68, 511, -533, 1151
0.114926, 237, -2068, 68, 511, -533, 1151
0.115060, 237, -2068, 68, 511, -533, 1151
0.115201, 237, -2068, 68, 511, -533, 1151
0.115340, 237, -2068, 68, 511, -533, 1151
0.115475, 259, -2100, -102, 499, -527, 730
0.115609, 259, -2100, -102, 499, -527, 730
0.115744, 259, -2100, -102, 499, -527, 730
0.115878, 259, -2100, -102, 499, -527, 730
0.116012, 259, -2100, -102, 499, -527, 730
0.116178, 259, -2100, -102, 499, -527, 730
0.116322, 259, -2100, -102, 499, -527, 730
0.116456, -44, -2075, -91, 430, -426, 480
0.116591, -44, -2075, -91, 430, -426, 480
0.116725, -44, -2075, -91, 430, -426, 480
0.116859, -44, -2075, -91, 430, -426, 480
0.116993, -44, -2075, -91, 430, -426, 480
0.117128, -44, -2075, -91, 430, -426, 480
0.117262, -44, -2075, -91, 430, -426, 480
0.117396, -44, -2075, -91, 430, -426, 480
0.117530, -219, -2032, -30, 367, -283, 469
0.117665, -219, -2032, -30, 367, -283, 469
0.117799, -219, -2032, -30, 367, -283, 469
0.117933, -219, -2032, -30, 367, -283, 469
0.118062, -219, -2032, -30, 367, -283, 469
0.118198, -219, -2032, -30, 367, -283, 469
0.118335, -219, -2032, -30, 367, -283, 469
0.118470, -441, -2016, 54, 301, -149, 551
0.118605, -441, -2016, 54, 301, -149, 551
0.118739, -441, -2016, 54, 301, -149, 551
0.118873, -441, -2016, 54, 301, -149, 551
0.119008, -441, -2016, 54, 301, -149, 551
0.119142, -441, -2016, 54, 301, -149, 551
0.119276, -441, -2016, 54, 301, -149, 551
0.119410, -441, -2016, 54, 301, -149, 551
0.119544, -909, -2010, 202, 289, -79, 803
0.119679, -909, -2010, 202, 289, -79, 803
0.119813, -909, -2010, 202, 289, -79, 803
0.119947, -909, -2010, 202, 289, -79, 803
0.120083, -909, -2010, 202, 289, -79, 803
0.120217, -909, -2010, 202, 289, -79, 803
0.120351, -909, -2010, 202, 289, -79, 803
0.120485, -872, -1993, 203, 321, -113, 1234
0.120620, -872, -1993, 203, 321, -113, 1234
0.120754, -872, -1993, 203, 321, -113, 1234
0.120888, -872, -1993, 203, 321, -113, 1234
0.121022, -872, -1993, 203, 321, -113, 1234
0.121157, -872, -1993, 203, 321, -113, 1234
0.121291, -872, -1993, 203, 321, -113, 1234
0.121425, -872, -1993, 203, 321, -113, 1234
0.121559, -296, -2015, 44, 276, -265, 1418
0.121694, -296, -2015, 44, 276, -265, 1418
0.121828, -296, -2015, 44, 276, -265, 1418
0.121962, -296, -2015, 44, 276, -265, 1418
0.122096, -296, -2015, 44, 276, -265, 1418
0.122230, -296, -2015, 44, 276, -265, 1418
0.122365, -296, -2015, 44, 276, -265, 1418
0.122499, -117, -2062, 1, 193, -456, 1236
0.122633, -117, -2062, 1, 193, -456, 1236
0.122767, -117, -2062, 1, 193, -456, 1236
0.122902, -117, -2062, 1, 193, -456, 1236
0.123036, -117, -2062, 1, 193, -456, 1236
0.123170, -117, -2062, 1, 193, -456, 1236
0.123304, -117, -2062, 1, 193, -456, 1236
0.123438, -117, -2062, 1, 193, -456, 1236
0.123573, -209, -2070, 77, 172, -552, 1082
0.123707, -209, -2070, 77, 172, -552, 1082
0.123841, -209, -2070, 77, 172, -552, 1082
0.123974, -209, -2070, 77, 172, -552, 1082
0.124109, -209, -2070, 77, 172, -552, 1082
0.124243, -209, -2070, 77, 172, -552, 1082
0.124377, -209, -2070, 77, 172, -552, 1082
0.124512, -209, -2070, 77, 172, -552, 1082
0.124646, -121, -2057, 126, 171, -512, 1041
0.124780, -121, -2057, 126, 171, -512, 1041
0.124914, -121, -2057, 126, 171, -512, 1041
0.125048, -121, -2057, 126, 171, -512, 1041
0.125183, -121, -2057, 126, 171, -512, 1041
0.125317, -121, -2057, 126, 171, -512, 1041
0.125451, -121, -2057, 126, 171, -512, 1041
0.125585, -136, -2053, 178, 183, -413, 994
0.125719, -136, -2053, 178, 183, -413, 994
0.125853, -136, -2053, 178, 183, -413, 994
0.125987, -136, -2053, 178, 183, -413, 994
0.126122, -136, -2053, 178, 183, -413, 994
0.126256, -136, -2053, 178, 183, -413, 994
0.126390, -136, -2053, 178, 183, -413, 994
0.126524, -136, -2053, 178, 183, -413, 994
0.126658, -134, -2046, 147, 228, -297, 986
0.126792, -134, -2046, 147, 228, -297, 986
0.126926, -134, -2046, 147, 228, -297, 986
0.127061, -134, -2046, 147, 228, -297, 986
0.127195, -134, -2046, 147, 228, -297, 986
0.127329, -134, -2046, 147, 228, -297, 986
0.127463, -134, -2046, 147, 228, -297, 986
0.127597, 167, -2041, -18, 206, -165, 912
0.127731, 167, -2041, -18, 206, -165, 912
0.127866, 167, -2041, -18, 206, -165, 912
0.128000, 167, -2041, -18, 206, -165, 912
0.128135, 167, -2041, -18, 206, -165, 912
0.128269, 167, -2041, -18, 206, -165, 912
0.128403, 167, -2041, -18, 206, -165, 912
0.128537, 167, -2041, -18, 206, -165, 912
0.128671, 366, -2055, -111, 79, -50, 628
0.128805, 366, -2055, -111, 79, -50, 628
0.128940, 366, -2055, -111, 79, -50, 628
0.129087, 366, -2055, -111, 79, -50, 628
0.129222, 366, -2055, -111, 79, -50, 628
0.129356, 366, -2055, -111, 79, -50, 628
0.129490, 366, -2055, -111, 79, -50, 628
0.129624, 205, -2056, -73, -63, 60, 298
0.129758, 205, -2056, -73, -63, 60, 298
0.129893, 205, -2056, -73, -63, 60, 298
0.130027, 205, -2056, -73, -63, 60, 298
0.130161, 205, -2056, -73, -63, 60, 298
0.130295, 205, -2056, -73, -63, 60, 298
0.130429, 205, -2056, -73, -63, 60, 298
0.130563, 205, -2056, -73, -63, 60, 298
0.130697, -59, -2038, -3, -165, 184, 139
0.130832, -59, -2038, -3, -165, 184, 139
0.130966, -59, -2038, -3, -165, 184, 139
0.131100, -59, -2038, -3, -165, 184, 139
0.131234, -59, -2038, -3, -165, 184, 139
0.131368, -59, -2038, -3, -165, 184, 139
0.131502, -59, -2038, -3, -165, 184, 139
0.131637, -279, -2044, 98, -211, 266, 173
0.131771, -279, -2044, 98, -211, 266, 173
0.131921, -279, -2044, 98, -211, 266, 173
0.132075, -279, -2044, 98, -211, 266, 173
0.132212, -279, -2044, 98, -211, 266, 173
0.132346, -279, -2044, 98, -211, 266, 173
0.132480, -279, -2044, 98, -211, 266, 173
0.132614, -279, -2044, 98, -211, 266, 173
0.132748, -420, -2050, 202, -170, 271, 325
0.132883, -420, -2050, 202, -170, 271, 325
0.133017, -420, -2050, 202, -170, 271, 325
0.133151, -420, -2050, 202, -170, 271, 325
0.133285, -420, -2050, 202, -170, 271, 325
0.133419, -420, -2050, 202, -170, 271, 325
0.133553, -420, -2050, 202, -170, 271, 325
0.133687, -226, -2045, 191, -95, 214, 461
0.133821, -226, -2045, 191, -95, 214, 461
0.133955, -226, -2045, 191, -95, 214, 461
0.134088, -226, -2045, 191, -95, 214, 461
0.134222, -226, -2045, 191, -95, 214, 461
0.134356, -226, -2045, 191, -95, 214, 461
0.134490, -226, -2045, 191, -95, 214, 461
0.134624, -226, -2045, 191, -95, 214, 461
0.134758, 96, -2063, 117, -84, 100, 368
0.134892, 96, -2063, 117, -84, 100, 368
0.135026, 96, -2063, 117, -84, 100, 368
0.135160, 96, -2063, 117, -84, 100, 368
0.135294, 96, -2063, 117, -84, 100, 368
0.135428, 96, -2063, 117, -84, 100, 368
0.135562, 96, -2063, 117, -84, 100, 368
0.135696, -117, -2066, 181, -69, -22, 153
0.135830, -117, -2066, 181, -69, -22, 153
0.135964, -117, -2066, 181, -69, -22, 153
0.136099, -117, -2066, 181, -69, -22, 153
0.136233, -117, -2066, 181, -69, -22, 153
0.136367, -117, -2066, 181, -69, -22, 153
0.136502, -117, -2066, 181, -69, -22, 153
0.136636, -117, -2066, 181, -69, -22, 153
0.136770, -417, -2033, 312, 69, -56, 198
0.136904, -417, -2033, 312, 69, -56, 198
0.137038, -417, -2033, 312, 69, -56, 198
0.137172, -417, -2033, 312, 69, -56, 198
0.137306, -417, -2033, 312, 69, -56, 198
0.137440, -417, -2033, 312, 69, -56, 198
0.137575, -417, -2033, 312, 69, -56, 198
0.137709, -24, -2034, 286, 231, -31, 341
0.137843, -24, -2034, 286, 231, -31, 341
0.137977, -24, -2034, 286, 231, -31, 341
0.138111, -24, -2034, 286, 231, -31, 341
0.138246, -24, -2034, 286, 231, -31, 341
0.138380, -24, -2034, 286, 231, -31, 341
0.138514, -24, -2034, 286, 231, -31, 341
0.138648, -24, -2034, 286, 231, -31, 341
0.138782, 480, -2069, 143, 304, -38, 123
0.138916, 480, -2069, 143, 304, -38, 123
0.139050, 480, -2069, 143, 304, -38, 123
0.139185, 480, -2069, 143, 304, -38, 123
0.139319, 480, -2069, 143, 304, -38, 123
0.139453, 480, -2069, 143, 304, -38, 123
0.139587, 480, -2069, 143, 304, -38, 123
0.139721, 480, -2069, 143, 304, -38, 123
0.139855, 335, -2082, 17, 341, -14, -299
0.139990, 335, -2082, 17, 341, -14, -299
0.140124, 335, -2082, 17, 341, -14, -299
0.140259, 335, -2082, 17, 341, -14, -299
0.140393, 335, -2082, 17, 341, -14, -299
0.140527, 335, -2082, 17, 341, -14, -299
0.140661, 335, -2082, 17, 341, -14, -299
0.140795, -68, -2053, -115, 323, 103, -477
0.140929, -68, -2053, -115, 323, 103, -477
0.141064, -68, -2053, -115, 323, 103, -477
0.141198, -68, -2053, -115, 323, 103, -477
0.141332, -68, -2053, -115, 323, 103, -477
0.141466, -68, -2053, -115, 323, 103, -477
0.141600, -68, -2053, -115, 323, 103, -477
0.141734, -68, -2053, -115, 323, 103, -477
0.141868, -100, -2030, -236, 170, 226, -427
0.142003, -100, -2030, -236, 170, 226, -427
0.142137, -100, -2030, -236, 170, 226, -427
0.142271, -100, -2030, -236, 170, 226, -427
0.142421, -100, -2030, -236, 170, 226, -427
0.142556, -100, -2030, -236, 170, 226, -427
0.142691, -100, -2030, -236, 170, 226, -427
0.142825, -40, -2042, -233, -46, 264, -417
0.142959, -40, -2042, -233, -46, 264, -417
0.143093, -40, -2042, -233, -46, 264, -417
0.143227, -40, -2042, -233, -46, 264, -417
0.143362, -40, -2042, -233, -46, 264, -417
0.143496, -40, -2042, -233, -46, 264, -417
0.143630, -40, -2042, -233, -46, 264, -417
0.143764, -40, -2042, -233, -46, 264, -417
0.143898, -157, -2061, -155, -215, 243, -442
0.144032, -157, -2061, -155, -215, 243, -442
0.144167, -157, -2061, -155, -215, 243, -442
0.144301, -157, -2061, -155, -215, 243, -442
0.144435, -157, -2061, -155, -215, 243, -442
0.144570, -157, -2061, -155, -215, 243, -442
0.144704, -157, -2061, -155, -215, 243, -442
0.144838, -293, -2075, 13, -315, 208, -398
0.144972, -293, -2075, 13, -315, 208, -398
0.145106, -293, -2075, 13, -315, 208, -398
0.145240, -293, -2075, 13, -315, 208, -398
0.145374, -293, -2075, 13, -315, 208, -398
0.145508, -293, -2075, 13, -315, 208, -398
0.145643, -293, -2075, 13, -315, 208, -398
0.145777, -293, -2075, 13, -315, 208, -398
0.145911, -427, -2068, 258, -290, 154, -270
0.146045, -427, -2068, 258, -290, 154, -270
0.146180, -427, -2068, 258, -290, 154, -270
0.146314, -427, -2068, 258, -290, 154, -270
0.146448, -427, -2068, 258, -290, 154, -270
0.146582, -427, -2068, 258, -290, 154, -270
0.146716, -427, -2068, 258, -290, 154, -270
0.146850, -507, -2038, 300, -181, 81, -84
0.146984, -507, -2038, 300, -181, 81, -84
0.147119, -507, -2038, 300, -181, 81, -84
0.147253, -507, -2038, 300, -181, 81, -84
0.147387, -507, -2038, 300, -181, 81, -84
0.147521, -507, -2038, 300, -181, 81, -84
0.147655, -507, -2038, 300, -181, 81, -84
0.147789, -507, -2038, 300, -181, 81, -84
0.147924, -611, -2010, 149, -125, -15, 131
0.148058, -611, -2010, 149, -125, -15, 131
0.148196, -611, -2010, 149, -125, -15, 131
0.148331, -611, -2010, 149, -125, -15, 131
0.148465, -611, -2010, 149, -125, -15, 131
0.148599, -611, -2010, 149, -125, -15, 131
0.148733, -611, -2010, 149, -125, -15, 131
0.148867, -748, -2007, 42, -130, -127, 417
0.149001, -748, -2007, 42, -130, -127, 417
0.149135, -748, -2007, 42, -130, -127, 417
0.149270, -748, -2007, 42, -130, -127, 417
0.149404, -748, -2007, 42, -130, -127, 417
0.149538, -748, -2007, 42, -130, -127, 417
0.149672, -748, -2007, 42, -130, -127, 417
0.149806, -748, -2007, 42, -130, -127, 417
0.149940, -710, -2023, 41, -146, -222, 750
0.150075, -710, -2023, 41, -146, -222, 750
0.150209, -710, -2023, 41, -146, -222, 750
0.150343, -710, -2023, 41, -146, -222, 750
0.150477, -710, -2023, 41, -146, -222, 750
0.150611, -710, -2023, 41, -146, -222, 750
0.150745, -710, -2023, 41, -146, -222, 750
0.150879, -442, -2042, 54, -166, -306, 995
0.151014, -442, -2042, 54, -166, -306, 995
0.151148, -442, -2042, 54, -166, -306, 995
0.151282, -442, -2042, 54, -166, -306, 995
0.151416, -442, -2042, 54, -166, -306, 995
0.151550, -442, -2042, 54, -166, -306, 995
0.151684, -442, -2042, 54, -166, -306, 995
0.151818, -442, -2042, 54, -166, -306, 995
0.151953, -163, -2058, 16, -197, -375, 1041
0.152087, -163, -2058, 16, -197, -375, 1041
0.152221, -163, -2058, 16, -197, -375, 1041
0.152356, -163, -2058, 16, -197, -375, 1041
0.152490, -163, -2058, 16, -197, -375, 1041
0.152624, -163, -2058, 16, -197, -375, 1041
0.152758, -163, -2058, 16, -197, -375, 1041
0.152892, -163, -2058, 16, -197, -375, 1041
0.153026, -104, -2056, 15, -237, -363, 957
0.153160, -104, -2056, 15, -237, -363, 957
0.153294, -104, -2056, 15, -237, -363, 957
0.153428, -104, -2056, 15, -237, -363, 957
0.153563, -104, -2056, 15, -237, -363, 957
0.153697, -104, -2056, 15, -237, -363, 957
0.153831, -104, -2056, 15, -237, -363, 957
0.153965, -169, -2044, 74, -258, -231, 908
0.154099, -169, -2044, 74, -258, -231, 908
0.154233, -169, -2044, 74, -258, -231, 908
0.154367, -169, -2044, 74, -258, -231, 908
0.154502, -169, -2044, 74, -258, -231, 908
0.154636, -169, -2044, 74, -258, -231, 908
0.154770, -169, -2044, 74, -258, -231, 908
0.154904, -169, -2044, 74, -258, -231, 908
0.155043, -194, -2046, 116, -272, -73, 922
0.155180, -194, -2046, 116, -272, -73, 922
0.155314, -194, -2046, 116, -272, -73, 922
0.155448, -194, -2046, 116, -272, -73, 922
0.155582, -194, -2046, 116, -272, -73, 922
0.155716, -194, -2046, 116, -272, -73, 922
0.155850, -194, -2046, 116, -272, -73, 922
0.155984, -204, -2047, 170, -283, 18, 923
0.156119, -204, -2047, 170, -283, 18, 923
0.156253, -204, -2047, 170, -283, 18, 923
0.156386, -204, -2047, 170, -283, 18, 923
0.156520, -204, -2047, 170, -283, 18, 923
0.156653, -204, -2047, 170, -283, 18, 923
0.156787, -204, -2047, 170, -283, 18, 923
0.156920, -204, -2047, 170, -283, 18, 923
0.157053, -164, -2041, 223, -252, 61, 902
0.157188, -164, -2041, 223, -252, 61, 902
0.157322, -164, -2041, 223, -252, 61, 902
0.157456, -164, -2041, 223, -252, 61, 902
0.157590, -164, -2041, 223, -252, 61, 902
0.157724, -164, -2041, 223, -252, 61, 902
0.157857, -164, -2041, 223, -252, 61, 902
0.157991, 11, -2048, 187, -205, 95, 830
0.158125, 11, -2048, 187, -205, 95, 830
0.158259, 11, -2048, 187, -205, 95, 830
0.158393, 11, -2048, 187, -205, 95, 830
0.158527, 11, -2048, 187, -205, 95, 830
0.158661, 11, -2048, 187, -205, 95, 830
0.158795, 11, -2048, 187, -205, 95, 830
0.158929, 11, -2048, 187, -205, 95, 830
0.159063, 146, -2063, 130, -201, 116, 643
0.159197, 146, -2063, 130, -201, 116, 643
0.159331, 146, -2063, 130, -201, 116, 643
0.159465, 146, -2063, 130, -201, 116, 643
0.159599, 146, -2063, 130, -201, 116, 643
0.159733, 146, -2063, 130, -201, 116, 643
0.159867, 146, -2063, 130, -201, 116, 643
0.160001, 128, -2072, 166, -192, 133, 417
0.160136, 128, -2072, 166, -192, 133, 417
0.160270, 128, -2072, 166, -192, 133, 417
0.160404, 128, -2072, 166, -192, 133, 417
0.160538, 128, -2072, 166, -192, 133, 417
0.160672, 128, -2072, 166, -192, 133, 417
0.160806, 128, -2072, 166, -192, 133, 417
0.160940, 128, -2072, 166, -192, 133, 417
0.161075, 92, -2079, 215, -116, 194, 258
0.161209, 92, -2079, 215, -116, 194, 258
0.161343, 92, -2079, 215, -116, 194, 258
0.161477, 92, -2079, 215, -116, 194, 258
0.161611, 92, -2079, 215, -116, 194, 258
0.161745, 92, -2079, 215, -116, 194, 258
0.161879, 92, -2079, 215, -116, 194, 258
0.162013, 92, -2079, 215, -116, 194, 258
0.162147, -1, -2067, 167, -37, 301, 159
0.162281, -1, -2067, 167, -37, 301, 159
0.162415, -1, -2067, 167, -37, 301, 159
0.162550, -1, -2067, 167, -37, 301, 159
0.162684, -1, -2067, 167, -37, 301, 159
0.162818, -1, -2067, 167, -37, 301, 159
0.162952, -1, -2067, 167, -37, 301, 159
0.163086, -145, -2042, 47, -34, 393, 134
0.163220, -145, -2042, 47, -34, 393, 134
0.163354, -145, -2042, 47, -34, 393, 134
0.163489, -145, -2042, 47, -34, 393, 134
0.163623, -145, -2042, 47, -34, 393, 134
0.163757, -145, -2042, 47, -34, 393, 134
0.163891, -145, -2042, 47, -34, 393, 134
0.164025, -145, -2042, 47, -34, 393, 134
0.164159, -213, -2039, -22, -97, 429, 174
0.164296, -213, -2039, -22, -97, 429, 174
0.164430, -213, -2039, -22, -97, 429, 174
0.164564, -213, -2039, -22, -97, 429, 174
0.164698, -213, -2039, -22, -97, 429, 174
0.164832, -213, -2039, -22, -97, 429, 174
0.164966, -213, -2039, -22, -97, 429, 174
0.165101, -349, -2038, 21, -155, 419, 249
0.165235, -349, -2038, 21, -155, 419, 249
0.165369, -349, -2038, 21, -155, 419, 249
0.165503, -349, -2038, 21, -155, 419, 249
0.165637, -349, -2038, 21, -155, 419, 249
0.165771, -349, -2038, 21, -155, 419, 249
0.165906, -349, -2038, 21, -155, 419, 249
0.166040, -349, -2038, 21, -155, 419, 249
0.166174, -351, -2026, 41, -197, 383, 383
0.166308, -351, -2026, 41, -197, 383, 383
0.166442, -351, -2026, 41, -197, 383, 383
0.166576, -351, -2026, 41, -197, 383, 383
0.166710, -351, -2026, 41, -197, 383, 383
0.166844, -351, -2026, 41, -197, 383, 383
0.166979, -351, -2026, 41, -197, 383, 383
0.167113, -67, -2045, -16, -272, 315, 439
0.167247, -67, -2045, -16, -272, 315, 439
0.167381, -67, -2045, -16, -272, 315, 439
0.167515, -67, -2045, -16, -272, 315, 439
0.167649, -67, -2045, -16, -272, 315, 439
0.167784, -67, -2045, -16, -272, 315, 439
0.167918, -67, -2045, -16, -272, 315, 439
0.168052, -67, -2045, -16, -272, 315, 439
0.168186, -28, -2073, 47, -326, 247, 338
0.168330, -28, -2073, 47, -326, 247, 338
0.168466, -28, -2073, 47, -326, 247, 338
0.168599, -28, -2073, 47, -326, 247, 338
0.168733, -28, -2073, 47, -326, 247, 338
0.168866, -28, -2073, 47, -326, 247, 338
0.169000, -28, -2073, 47, -326, 247, 338
0.169133, -93, -2064, 142, -288, 250, 283
0.169267, -93, -2064, 142, -288, 250, 283
0.169400, -93, -2064, 142, -288, 250, 283
0.169533, -93, -2064, 142, -288, 250, 283
0.169667, -93, -2064, 142, -288, 250, 283
0.169800, -93, -2064, 142, -288, 250, 283
0.169933, -93, -2064, 142, -288, 250, 283
0.170067, -93, -2064, 142, -288, 250, 283
0.170200, 221, -2059, 28, -277, 304, 227
0.170334, 221, -2059, 28, -277, 304, 227
0.170467, 221, -2059, 28, -277, 304, 227
0.170601, 221, -2059, 28, -277, 304, 227
0.170734, 221, -2059, 28, -277, 304, 227
0.170868, 221, -2059, 28, -277, 304, 227
0.171001, 221, -2059, 28, -277, 304, 227
0.171134, 221, -2059, 28, -277, 304, 227
0.171268, 487, -2088, -59, -351, 346, -52
0.171401, 487, -2088, -59, -351, 346, -52
0.171535, 487, -2088, -59, -351, 346, -52
0.171668, 487, -2088, -59, -351, 346, -52
0.171802, 487, -2088, -59, -351, 346, -52
0.171935, 487, -2088, -59, -351, 346, -52
0.172098, 487, -2088, -59, -351, 346, -52
0.172234, 444, -2089, 21, -378, 420, -417
0.172369, 444, -2089, 21, -378, 420, -417
0.172503, 444, -2089, 21, -378, 420, -417
0.172637, 444, -2089, 21, -378, 420, -417
0.172771, 444, -2089, 21, -378, 420, -417
0.172905, 444, -2089, 21, -378, 420, -417
0.173039, 444, -2089, 21, -378, 420, -417
0.173173, 322, -2056, 54, -365, 569, -686
0.173307, 322, -2056, 54, -365, 569, -686
0.173441, 322, -2056, 54, -365, 569, -686
0.173575, 322, -2056, 54, -365, 569, -686
0.173709, 322, -2056, 54, -365, 569, -686
0.173843, 322, -2056, 54, -365, 569, -686
0.173977, 322, -2056, 54, -365, 569, -686
0.174111, 322, -2056, 54, -365, 569, -686
0.174245, 32, -2048, 10, -406, 709, -837
0.174379, 32, -2048, 10, -406, 709, -837
0.174513, 32, -2048, 10, -406, 709, -837
0.174647, 32, -2048, 10, -406, 709, -837
0.174781, 32, -2048, 10, -406, 709, -837
0.174915, 32, -2048, 10, -406, 709, -837
0.175049, 32, -2048, 10, -406, 709, -837
0.175183, 32, -2048, 10, -406, 709, -837
0.175317, -214, -2072, -39, -454, 762, -803
0.175451, -214, -2072, -39, -454, 762, -803
0.175585, -214, -2072, -39, -454, 762, -803
0.175719, -214, -2072, -39, -454, 762, -803
0.175853, -214, -2072, -39, -454, 762, -803
0.175987, -214, -2072, -39, -454, 762, -803
0.176122, -214, -2072, -39, -454, 762, -803
0.176256, -167, -2095, -42, -486, 739, -708
0.176390, -167, -2095, -42, -486, 739, -708
0.176524, -167, -2095, -42, -486, 739, -708
0.176658, -167, -2095, -42, -486, 739, -708
0.176792, -167, -2095, -42, -486, 739, -708
0.176926, -167, -2095, -42, -486, 739, -708
0.177060, -167, -2095, -42, -486, 739, -708
0.177194, -167, -2095, -42, -486, 739, -708
0.177328, -304, -2075, 76, -500, 664, -665
0.177462, -304, -2075, 76, -500, 664, -665
0.177596, -304, -2075, 76, -500, 664, -665
0.177730, -304, -2075, 76, -500, 664, -665
0.177864, -304, -2075, 76, -500, 664, -665
0.177998, -304, -2075, 76, -500, 664, -665
0.178132, -304, -2075, 76, -500, 664, -665
0.178266, -517, -2026, 200, -457, 559, -509
0.178400, -517, -2026, 200, -457, 559, -509
0.178534, -517, -2026, 200, -457, 559, -509
0.178668, -517, -2026, 200, -457, 559, -509
0.178802, -517, -2026, 200, -457, 559, -509
0.178936, -517, -2026, 200, -457, 559, -509
0.179070, -517, -2026, 200, -457, 559, -509
0.179204, -517, -2026, 200, -457, 559, -509
0.179338, -345, -2013, 184, -399, 444, -287
0.179472, -345, -2013, 184, -399, 444, -287
0.179606, -345, -2013, 184, -399, 444, -287
0.179740, -345, -2013, 184, -399, 444, -287
0.179874, -345, -2013, 184, -399, 444, -287
0.180008, -345, -2013, 184, -399, 444, -287
0.180143, -345, -2013, 184, -399, 444, -287
0.180277, -50, -2046, 97, -364, 337, -235
0.180411, -50, -2046, 97, -364, 337, -235
0.180545, -50, -2046, 97, -364, 337, -235
0.180679, -50, -2046, 97, -364, 337, -235
0.180813, -50, -2046, 97, -364, 337, -235
0.180947, -50, -2046, 97, -364, 337, -235
0.181081, -50, -2046, 97, -364, 337, -235
0.181221, -50, -2046, 97, -364, 337, -235
0.181356, 69, -2061, 21, -340, 283, -352
0.181490, 69, -2061, 21, -340, 283, -352
0.181624, 69, -2061, 21, -340, 283, -352
0.181758, 69, -2061, 21, -340, 283, -352
0.181892, 69, -2061, 21, -340, 283, -352
0.182026, 69, -2061, 21, -340, 283, -352
0.182160, 69, -2061, 21, -340, 283, -352
0.182294, 69, -2061, 21, -340, 283, -352
0.182428, 1, -2043, 34, -332, 307, -483
0.182562, 1, -2043, 34, -332, 307, -483
0.182696, 1, -2043, 34, -332, 307, -483
0.182830, 1, -2043, 34, -332, 307, -483
0.182964, 1, -2043, 34, -332, 307, -483
0.183098, 1, -2043, 34, -332, 307, -483
0.183232, 1, -2043, 34, -332, 307, -483
0.183366, -161, -2028, 87, -332, 390, -513
0.183500, -161, -2028, 87, -332, 390, -513
0.183634, -161, -2028, 87, -332, 390, -513
0.183768, -161, -2028, 87, -332, 390, -513
0.183902, -161, -2028, 87, -332, 390, -513
0.184036, -161, -2028, 87, -332, 390, -513
0.184170, -161, -2028, 87, -332, 390, -513
0.184304, -161, -2028, 87, -332, 390, -513
0.184438, -251, -2032, 81, -332, 491, -427
0.184573, -251, -2032, 81, -332, 491, -427
0.184707, -251, -2032, 81, -332, 491, -427
0.184841, -251, -2032, 81, -332, 491, -427
0.184975, -251, -2032, 81, -332, 491, -427
0.185108, -251, -2032, 81, -332, 491, -427
0.185242, -251, -2032, 81, -332, 491, -427
0.185376, -190, -2045, 94, -318, 575, -334
0.185511, -190, -2045, 94, -318, 575, -334
0.185645, -190, -2045, 94, -318, 575, -334
0.185779, -190, -2045, 94, -318, 575, -334
0.185913, -190, -2045, 94, -318, 575, -334
0.186047, -190, -2045, 94, -318, 575, -334
0.186181, -190, -2045, 94, -318, 575, -334
0.186315, -190, -2045, 94, -318, 575, -334
0.186448, -178, -2047, 116, -284, 625, -311
0.186583, -178, -2047, 116, -284, 625, -311
0.186717, -178, -2047, 116, -284, 625, -311
0.186851, -178, -2047, 116, -284, 625, -311
0.186985, -178, -2047, 116, -284, 625, -311
0.187119, -178, -2047, 116, -284, 625, -311
0.187253, -178, -2047, 116, -284, 625, -311
0.187387, -244, -2049, 112, -259, 637, -280
0.187521, -244, -2049, 112, -259, 637, -280
0.187655, -244, -2049, 112, -259, 637, -280
0.187789, -244, -2049, 112, -259, 637, -280
0.187923, -244, -2049, 112, -259, 637, -280
0.188057, -244, -2049, 112, -259, 637, -280
0.188193, -244, -2049, 112, -259, 637, -280
0.188327, -244, -2049, 112, -259, 637, -280
0.188461, -133, -2056, 88, -250, 614, -242
0.188594, -133, -2056, 88, -250, 614, -242
0.188728, -133, -2056, 88, -250, 614, -242
0.188861, -133, -2056, 88, -250, 614, -242
0.188995, -133, -2056, 88, -250, 614, -242
0.189128, -133, -2056, 88, -250, 614, -242
0.189261, -133, -2056, 88, -250, 614, -242
0.189395, 71, -2056, 34, -254, 564, -318
0.189528, 71, -2056, 34, -254, 564, -318
0.189662, 71, -2056, 34, -254, 564, -318
0.189795, 71, -2056, 34, -254, 564, -318
0.189928, 71, -2056, 34, -254, 564, -318
0.190062, 71, -2056, 34, -254, 564, -318
0.190195, 71, -2056, 34, -254, 564, -318
0.190329, 71, -2056, 34, -254, 564, -318
0.190462, 160, -2054, -5, -273, 526, -497
0.190596, 160, -2054, -5, -273, 526, -497
0.190729, 160, -2054, -5, -273, 526, -497
0.190863, 160, -2054, -5, -273, 526, -497
0.190996, 160, -2054, -5, -273, 526, -497
0.191130, 160, -2054, -5, -273, 526, -497
0.191263, 160, -2054, -5, -273, 526, -497
0.191396, 160, -2054, -5, -273, 526, -497
0.191530, 210, -2069, -11, -312, 547, -698
0.191663, 210, -2069, -11, -312, 547, -698
0.191797, 210, -2069, -11, -312, 547, -698
0.191930, 210, -2069, -11, -312, 547, -698
0.192068, 210, -2069, -11, -312, 547, -698
0.192202, 210, -2069, -11, -312, 547, -698
0.192336, 210, -2069, -11, -312, 547, -698
0.192470, 108, -2086, 25, -357, 614, -884
0.192604, 108, -2086, 25, -357, 614, -884
0.192738, 108, -2086, 25, -357, 614, -884
0.192872, 108, -2086, 25, -357, 614, -884
0.193006, 108, -2086, 25, -357, 614, -884
0.193140, 108, -2086, 25, -357, 614, -884
0.193274, 108, -2086, 25, -357, 614, -884
0.193408, 108, -2086, 25, -357, 614, -884
0.193542, -218, -2067, 98, -358, 692, -928
0.193676, -218, -2067, 98, -358, 692, -928
0.193810, -218, -2067, 98, -358, 692, -928
0.193944, -218, -2067, 98, -358, 692, -928
0.194078, -218, -2067, 98, -358, 692, -928
0.194217, -218, -2067, 98, -358, 692, -928
0.194351, -218, -2067, 98, -358, 692, -928
0.194485, -339, -2041, 181, -313, 754, -783
0.194619, -339, -2041, 181, -313, 754, -783
0.194753, -339, -2041, 181, -313, 754, -783
0.194887, -339, -2041, 181, -313, 754, -783
0.195021, -339, -2041, 181, -313, 754, -783
0.195155, -339, -2041, 181, -313, 754, -783
0.195289, -339, -2041, 181, -313, 754, -783
0.195423, -339, -2041, 181, -313, 754, -783
0.195557, -140, -2046, 209, -263, 771, -667
0.195691, -140, -2046, 209, -263, 771, -667
0.195825, -140, -2046, 209, -263, 771, -667
0.195960, -140, -2046, 209, -263, 771, -667
0.196094, -140, -2046, 209, -263, 771, -667
0.196228, -140, -2046, 209, -263, 771, -667
0.196362, -140, -2046, 209, -263, 771, -667
0.196496, -17, -2061, 175, -218, 737, -715
0.196630, -17, -2061, 175, -218, 737, -715
0.196764, -17, -2061, 175, -218, 737, -715
0.196898, -17, -2061, 175, -218, 737, -715
0.197032, -17, -2061, 175, -218, 737, -715
0.197166, -17, -2061, 175, -218, 737, -715
0.197300, -17, -2061, 175, -218, 737, -715
0.197434, -17, -2061, 175, -218, 737, -715
0.197568, -58, -2058, 150, -156, 700, -797
0.197702, -58, -2058, 150, -156, 700, -797
0.197836, -58, -2058, 150, -156, 700, -797
0.197970, -58, -2058, 150, -156, 700, -797
0.198104, -58, -2058, 150, -156, 700, -797
0.198238, -58, -2058, 150, -156, 700, -797
0.198372, -58, -2058, 150, -156, 700, -797
0.198506, -58, -2058, 150, -156, 700, -797
0.198640, -16, -2056, 167, -76, 694, -840
0.198774, -16, -2056, 167, -76, 694, -840
0.198908, -16, -2056, 167, -76, 694, -840
0.199042, -16, -2056, 167, -76, 694, -840
0.199176, -16, -2056, 167, -76, 694, -840
0.199310, -16, -2056, 167, -76, 694, -840
0.199444, -16, -2056, 167, -76, 694, -840
0.199578, 160, -2068, 178, 8, 706, -942
0.199713, 160, -2068, 178, 8, 706, -942
0.199847, 160, -2068, 178, 8, 706, -942
0.199981, 160, -2068, 178, 8, 706, -942
0.200115, 160, -2068, 178, 8, 706, -942
0.200249, 160, -2068, 178, 8, 706, -942
0.200383, 160, -2068, 178, 8, 706, -942
0.200517, 160, -2068, 178, 8, 706, -942
0.200651, 176, -2065, 98, 61, 737, -1131
0.200785, 176, -2065, 98, 61, 737, -1131
0.200919, 176, -2065, 98, 61, 737, -1131
0.201053, 176, -2065, 98, 61, 737, -1131
0.201187, 176, -2065, 98, 61, 737, -1131
0.201321, 176, -2065, 98, 61, 737, -1131
0.201455, 176, -2065, 98, 61, 737, -1131
0.201589, -5, -2058, 15, 54, 800, -1259
0.201723, -5, -2058, 15, 54, 800, -1259
0.201857, -5, -2058, 15, 54, 800, -1259
0.201991, -5, -2058, 15, 54, 800, -1259
0.202125, -5, -2058, 15, 54, 800, -1259
0.202259, -5, -2058, 15, 54, 800, -1259
0.202393, -5, -2058, 15, 54, 800, -1259
0.202527, -5, -2058, 15, 54, 800, -1259
0.202661, -112, -2062, 25, 30, 876, -1258
0.202795, -112, -2062, 25, 30, 876, -1258
0.202929, -112, -2062, 25, 30, 876, -1258
0.203063, -112, -2062, 25, 30, 876, -1258
0.203197, -112, -2062, 25, 30, 876, -1258
0.203331, -112, -2062, 25, 30, 876, -1258
0.203465, -112, -2062, 25, 30, 876, -1258
0.203599, -210, -2055, 23, 5, 935, -1208
0.203733, -210, -2055, 23, 5, 935, -1208
0.203867, -210, -2055, 23, 5, 935, -1208
0.204001, -210, -2055, 23, 5, 935, -1208
0.204135, -210, -2055, 23, 5, 935, -1208
0.204269, -210, -2055, 23, 5, 935, -1208
0.204403, -210, -2055, 23, 5, 935, -1208
0.204537, -210, -2055, 23, 5, 935, -1208
0.204671, -362, -2037, -39, -50, 947, -1107
0.204806, -362, -2037, -39, -50, 947, -1107
0.204940, -362, -2037, -39, -50, 947, -1107
0.205073, -362, -2037, -39, -50, 947, -1107
0.205207, -362, -2037, -39, -50, 947, -1107
0.205341, -362, -2037, -39, -50, 947, -1107
0.205475, -362, -2037, -39, -50, 947, -1107
0.205609, -516, -2035, -8, -108, 900, -930
0.205744, -516, -2035, -8, -108, 900, -930
0.205878, -516, -2035, -8, -108, 900, -930
0.206012, -516, -2035, -8, -108, 900, -930
0.206146, -516, -2035, -8, -108, 900, -930
0.206280, -516, -2035, -8, -108, 900, -930
0.206414, -516, -2035, -8, -108, 900, -930
0.206548, -516, -2035, -8, -108, 900, -930
0.206682, -593, -2034, 64, -118, 825, -675
0.206816, -593, -2034, 64, -118, 825, -675
0.206950, -593, -2034, 64, -118, 825, -675
0.207084, -593, -2034, 64, -118, 825, -675
0.207222, -593, -2034, 64, -118, 825, -675
0.207357, -593, -2034, 64, -118, 825, -675
0.207491, -593, -2034, 64, -118, 825, -675
0.207625, -593, -2034, 64, -118, 825, -675
0.207759, -451, -2029, 30, -126, 728, -436
0.207893, -451, -2029, 30, -126, 728, -436
0.208027, -451, -2029, 30, -126, 728, -436
0.208161, -451, -2029, 30, -126, 728, -436
0.208295, -451, -2029, 30, -126, 728, -436
0.208429, -451, -2029, 30, -126, 728, -436
0.208563, -451, -2029, 30, -126, 728, -436
0.208697, -311, -2038, 36, -161, 610, -332
0.208832, -311, -2038, 36, -161, 610, -332
0.208966, -311, -2038, 36, -161, 610, -332
0.209099, -311, -2038, 36, -161, 610, -332
0.209233, -311, -2038, 36, -161, 610, -332
0.209367, -311, -2038, 36, -161, 610, -332
0.209501, -311, -2038, 36, -161, 610, -332
0.209635, -311, -2038, 36, -161, 610, -332
0.209769, -270, -2041, 80, -164, 532, -286
0.209904, -270, -2041, 80, -164, 532, -286
0.210038, -270, -2041, 80, -164, 532, -286
0.210172, -270, -2041, 80, -164, 532, -286
0.210305, -270, -2041, 80, -164, 532, -286
0.210439, -270, -2041, 80, -164, 532, -286
0.210573, -270, -2041, 80, -164, 532, -286
0.210707, -96, -2045, 48, -168, 529, -261
0.210842, -96, -2045, 48, -168, 529, -261
0.210976, -96, -2045, 48, -168, 529, -261
0.211110, -96, -2045, 48, -168, 529, -261
0.211244, -96, -2045, 48, -168, 529, -261
0.211378, -96, -2045, 48, -168, 529, -261
0.211512, -96, -2045, 48, -168, 529, -261
0.211645, -96, -2045, 48, -168, 529, -261
0.211780, 214, -2062, 34, -199, 562, -371
0.211914, 214, -2062, 34, -199, 562, -371
0.212048, 214, -2062, 34, -199, 562, -371
0.212182, 214, -2062, 34, -199, 562, -371
0.212316, 214, -2062, 34, -199, 562, -371
0.212450, 214, -2062, 34, -199, 562, -371
0.212584, 214, -2062, 34, -199, 562, -371
0.212718, 404, -2075, 94, -196, 627, -649
0.212852, 404, -2075, 94, -196, 627, -649
0.212986, 404, -2075, 94, -196, 627, -649
0.213120, 404, -2075, 94, -196, 627, -649
0.213254, 404, -2075, 94, -196, 627, -649
0.213388, 404, -2075, 94, -196, 627, -649
0.213522, 404, -2075, 94, -196, 627, -649
0.213656, 404, -2075, 94, -196, 627, -649
0.213790, 347, -2082, 122, -145, 764, -958
0.213924, 347, -2082, 122, -145, 764, -958
0.214058, 347, -2082, 122, -145, 764, -958
0.214192, 347, -2082, 122, -145, 764, -958
0.214326, 347, -2082, 122, -145, 764, -958
0.214460, 347, -2082, 122, -145, 764, -958
0.214594, 347, -2082, 122, -145, 764, -958
0.214728, 347, -2082, 122, -145, 764, -958
0.214862, 150, -2088, 70, -115, 933, -1167
0.214997, 150, -2088, 70, -115, 933, -1167
0.215131, 150, -2088, 70, -115, 933, -1167
0.215265, 150, -2088, 70, -115, 933, -1167
0.215399, 150, -2088, 70, -115, 933, -1167
0.215533, 150, -2088, 70, -115, 933, -1167
0.215667, 150, -2088, 70, -115, 933, -1167
0.215801, -198, -2067, 116, -92, 1056, -1208
0.215936, -198, -2067, 116, -92, 1056, -1208
0.216070, -198, -2067, 116, -92, 1056, -1208
0.216204, -198, -2067, 116, -92, 1056, -1208
0.216338, -198, -2067, 116, -92, 1056, -1208
0.216472, -198, -2067, 116, -92, 1056, -1208
0.216605, -198, -2067, 116, -92, 1056, -1208
0.216739, -198, -2067, 116, -92, 1056, -1208
0.216873, -471, -2024, 214, -3, 1117, -1028
0.217007, -471, -2024, 214, -3, 1117, -1028
0.217141, -471, -2024, 214, -3, 1117, -1028
0.217275, -471, -2024, 214, -3, 1117, -1028
0.217409, -471, -2024, 214, -3, 1117, -1028
0.217542, -471, -2024, 214, -3, 1117, -1028
0.217676, -471, -2024, 214, -3, 1117, -1028
0.217810, -359, -2013, 153, 73, 1098, -784
0.217944, -359, -2013, 153, 73, 1098, -784
0.218078, -359, -2013, 153, 73, 1098, -784
0.218217, -359, -2013, 153, 73, 1098, -784
0.218353, -359, -2013, 153, 73, 1098, -784
0.218488, -359, -2013, 153, 73, 1098, -784
0.218622, -359, -2013, 153, 73, 1098, -784
0.218756, -359, -2013, 153, 73, 1098, -784
0.218890, -102, -2048, 55, 71, 974, -721
0.219024, -102, -2048, 55, 71, 974, -721
0.219158, -102, -2048, 55, 71, 974, -721
0.219292, -102, -2048, 55, 71, 974, -721
0.219426, -102, -2048, 55, 71, 974, -721
0.219560, -102, -2048, 55, 71, 974, -721
0.219694, -102, -2048, 55, 71, 974, -721
0.219828, -102, -2075, -11, 56, 823, -807
0.219975, -102, -2075, -11, 56, 823, -807
0.220111, -102, -2075, -11, 56, 823, -807
0.220245, -102, -2075, -11, 56, 823, -807
0.220379, -102, -2075, -11, 56, 823, -807
0.220513, -102, -2075, -11, 56, 823, -807
0.220647, -102, -2075, -11, 56, 823, -807
0.220781, -102, -2075, -11, 56, 823, -807
0.220915, -376, -2054, -18, 40, 732, -788
0.221050, -376, -2054, -18, 40, 732, -788
0.221184, -376, -2054, -18, 40, 732, -788
0.221318, -376, -2054, -18, 40, 732, -788
0.221452, -376, -2054, -18, 40, 732, -788
0.221586, -376, -2054, -18, 40, 732, -788
0.221720, -376, -2054, -18, 40, 732, -788
0.221854, -428, -2030, 90, 35, 688, -576
0.221988, -428, -2030, 90, 35, 688, -576
0.222122, -428, -2030, 90, 35, 688, -576
0.222256, -428, -2030, 90, 35, 688, -576
0.222390, -428, -2030, 90, 35, 688, -576
0.222524, -428, -2030, 90, 35, 688, -576
0.222658, -428, -2030, 90, 35, 688, -576
0.222792, -428, -2030, 90, 35, 688, -576
0.222926, -32, -2032, 83, 46, 660, -444
0.223060, -32, -2032, 83, 46, 660, -444
0.223194, -32, -2032, 83, 46, 660, -444
0.223329, -32, -2032, 83, 46, 660, -444
0.223462, -32, -2032, 83, 46, 660, -444
0.223596, -32, -2032, 83, 46, 660, -444
0.223730, -32, -2032, 83, 46, 660, -444
0.223864, 375, -2055, -36, 9, 648, -622
0.223999, 375, -2055, -36, 9, 648, -622
0.224133, 375, -2055, -36, 9, 648, -622
0.224267, 375, -2055, -36, 9, 648, -622
0.224401, 375, -2055, -36, 9, 648, -622
0.224535, 375, -2055, -36, 9, 648, -622
0.224669, 375, -2055, -36, 9, 648, -622
0.224803, 375, -2055, -36, 9, 648, -622
0.224937, 456, -2088, 3, -42, 691, -992
0.225071, 456, -2088, 3, -42, 691, -992
0.225205, 456, -2088, 3, -42, 691, -992
0.225339, 456, -2088, 3, -42, 691, -992
0.225473, 456, -2088, 3, -42, 691, -992
0.225608, 456, -2088, 3, -42, 691, -992
0.225742, 456, -2088, 3, -42, 691, -992
0.225876, 456, -2088, 3, -42, 691, -992
0.226010, 167, -2090, 113, -22, 830, -1282
0.226144, 167, -2090, 113, -22, 830, -1282
0.226278, 167, -2090, 113, -22, 830, -1282
0.226412, 167, -2090, 113, -22, 830, -1282
0.226546, 167, -2090, 113, -22, 830, -1282
0.226680, 167, -2090, 113, -22, 830, -1282
0.226814, 167, -2090, 113, -22, 830, -1282
0.226948, -277, -2058, 89, 21, 1000, -1287
0.227083, -277, -2058, 89, 21, 1000, -1287
0.227217, -277, -2058, 89, 21, 1000, -1287
0.227351, -277, -2058, 89, 21, 1000, -1287
0.227485, -277, -2058, 89, 21, 1000, -1287
0.227619, -277, -2058, 89, 21, 1000, -1287
0.227753, -277, -2058, 89, 21, 1000, -1287
0.227887, -277, -2058, 89, 21, 1000, -1287
0.228021, -471, -2028, -29, 5, 1080, -1047
0.228156, -471, -2028, -29, 5, 1080, -1047
0.228290, -471, -2028, -29, 5, 1080, -1047
0.228424, -471, -2028, -29, 5, 1080, -1047
0.228558, -471, -2028, -29, 5, 1080, -1047
0.228692, -471, -2028, -29, 5, 1080, -1047
0.228826, -471, -2028, -29, 5, 1080, -1047
0.228960, -315, -2022, -117, -77, 1045, -818
0.229094, -315, -2022, -117, -77, 1045, -818
0.229228, -315, -2022, -117, -77, 1045, -818
0.229362, -315, -2022, -117, -77, 1045, -818
0.229497, -315, -2022, -117, -77, 1045, -818
0.229631, -315, -2022, -117, -77, 1045, -818
0.229765, -315, -2022, -117, -77, 1045, -818
0.229899, -315, -2022, -117, -77, 1045, -818
0.230033, -198, -2058, -91, -186, 948, -763
0.230167, -198, -2058, -91, -186, 948, -763
0.230301, -198, -2058, -91, -186, 948, -763
0.230435, -198, -2058, -91, -186, 948, -763
0.230569, -198, -2058, -91, -186, 948, -763
0.230703, -198, -2058, -91, -186, 948, -763
0.230837, -198, -2058, -91, -186, 948, -763
0.230971, -324, -2088, -1, -272, 843, -744
0.231106, -324, -2088, -1, -272, 843, -744
0.231240, -324, -2088, -1, -272, 843, -744
0.231374, -324, -2088, -1, -272, 843, -744
0.231508, -324, -2088, -1, -272, 843, -744
0.231642, -324, -2088, -1, -272, 843, -744
0.231776, -324, -2088, -1, -272, 843, -744
0.231910, -324, -2088, -1, -272, 843, -744
0.232044, -316, -2046, 10, -318, 760, -633
0.232178, -316, -2046, 10, -318, 760, -633
0.232312, -316, -2046, 10, -318, 760, -633
0.232446, -316, -2046, 10, -318, 760, -633
0.232580, -316, -2046, 10, -318, 760, -633
0.232714, -316, -2046, 10, -318, 760, -633
0.232848, -316, -2046, 10, -318, 760, -633
0.232986, -45, -2027, 41, -355, 714, -573
0.233120, -45, -2027, 41, -355, 714, -573
0.233260, -45, -2027, 41, -355, 714, -573
0.233403, -45, -2027, 41, -355, 714, -573
0.233540, -45, -2027, 41, -355, 714, -573
0.233674, -45, -2027, 41, -355, 714, -573
0.233809, -45, -2027, 41, -355, 714, -573
0.233943, -45, -2027, 41, -355, 714, -573
0.234077, 76, -2068, 199, -349, 720, -673
0.234211, 76, -2068, 199, -349, 720, -673
0.234345, 76, -2068, 199, -349, 720, -673
0.234480, 76, -2068, 199, -349, 720, -673
0.234614, 76, -2068, 199, -349, 720, -673
0.234748, 76, -2068, 199, -349, 720, -673
0.234882, 76, -2068, 199, -349, 720, -673
0.235016, -107, -2052, 306, -253, 787, -771
0.235151, -107, -2052, 306, -253, 787, -771
0.235285, -107, -2052, 306, -253, 787, -771
0.235419, -107, -2052, 306, -253, 787, -771
0.235553, -107, -2052, 306, -253, 787, -771
0.235687, -107, -2052, 306, -253, 787, -771
0.235821, -107, -2052, 306, -253, 787, -771
0.235956, -107, -2052, 306, -253, 787, -771
0.236091, -371, -2027, 296, -131, 876, -696
0.236225, -371, -2027, 296, -131, 876, -696
0.236359, -371, -2027, 296, -131, 876, -696
0.236493, -371, -2027, 296, -131, 876, -696
0.236627, -371, -2027, 296, -131, 876, -696
0.236762, -371, -2027, 296, -131, 876, -696
0.236896, -371, -2027, 296, -131, 876, -696
0.237030, -371, -2027, 296, -131, 876, -696
0.237164, -525, -2051, 261, -28, 931, -469
0.237298, -525, -2051, 261, -28, 931, -469
0.237433, -525, -2051, 261, -28, 931, -469
0.237567, -525, -2051, 261, -28, 931, -469
0.237701, -525, -2051, 261, -28, 931, -469
0.237835, -525, -2051, 261, -28, 931, -469
0.237969, -525, -2051, 261, -28, 931, -469
0.238103, -389, -2048, 149, 58, 928, -226
0.238238, -389, -2048, 149, 58, 928, -226
0.238372, -389, -2048, 149, 58, 928, -226
0.238506, -389, -2048, 149, 58, 928, -226
0.238640, -389, -2048, 149, 58, 928, -226
0.238774, -389, -2048, 149, 58, 928, -226
0.238909, -389, -2048, 149, 58, 928, -226
0.239043, -389, -2048, 149, 58, 928, -226
0.239177, -32, -2033, -21, 68, 883, -149
0.239311, -32, -2033, -21, 68, 883, -149
0.239445, -32, -2033, -21, 68, 883, -149
0.239580, -32, -2033, -21, 68, 883, -149
0.239714, -32, -2033, -21, 68, 883, -149
0.239848, -32, -2033, -21, 68, 883, -149
0.239982, -32, -2033, -21, 68, 883, -149
0.240117, 196, -2048, -78, 9, 836, -296
0.240251, 196, -2048, -78, 9, 836, -296
0.240385, 196, -2048, -78, 9, 836, -296
0.240519, 196, -2048, -78, 9, 836, -296
0.240653, 196, -2048, -78, 9, 836, -296
0.240787, 196, -2048, -78, 9, 836, -296
0.240921, 196, -2048, -78, 9, 836, -296
0.241056, 196, -2048, -78, 9, 836, -296
0.241190, 161, -2064, -22, -41, 838, -509
0.241324, 161, -2064, -22, -41, 838, -509
0.241458, 161, -2064, -22, -41, 838, -509
0.241592, 161, -2064, -22, -41, 838, -509
0.241727, 161, -2064, -22, -41, 838, -509
0.241861, 161, -2064, -22, -41, 838, -509
0.241995, 161, -2064, -22, -41, 838, -509
0.242129, 22, -2065, 23, -78, 914, -622
0.242263, 22, -2065, 23, -78, 914, -622
0.242398, 22, -2065, 23, -78, 914, -622
0.242532, 22, -2065, 23, -78, 914, -622
0.242666, 22, -2065, 23, -78, 914, -622
0.242800, 22, -2065, 23, -78, 914, -622
0.242934, 22, -2065, 23, -78, 914, -622
0.243068, 22, -2065, 23, -78, 914, -622
0.243202, -42, -2052, 0, -128, 1022, -624
0.243337, -42, -2052, 0, -128, 1022, -624
0.243471, -42, -2052, 0, -128, 1022, -624
0.243605, -42, -2052, 0, -128, 1022, -624
0.243739, -42, -2052, 0, -128, 1022, -624
0.243874, -42, -2052, 0, -128, 1022, -624
0.244008, -42, -2052, 0, -128, 1022, -624
0.244142, 55, -2043, -73, -209, 1107, -620
0.244277, 55, -2043, -73, -209, 1107, -620
0.244412, 55, -2043, -73, -209, 1107, -620
0.244546, 55, -2043, -73, -209, 1107, -620
0.244681, 55, -2043, -73, -209, 1107, -620
0.244815, 55, -2043, -73, -209, 1107, -620
0.244949, 55, -2043, -73, -209, 1107, -620
0.245084, 55, -2043, -73, -209, 1107, -620
0.245218, 219, -2062, -154, -349, 1151, -717
0.245352, 219, -2062, -154, -349, 1151, -717
0.245487, 219, -2062, -154, -349, 1151, -717
0.245621, 219, -2062, -154, -349, 1151, -717
0.245755, 219, -2062, -154, -349, 1151, -717
0.245889, 219, -2062, -154, -349, 1151, -717
0.246034, 219, -2062, -154, -349, 1151, -717
0.246170, 218, -2094, -140, -505, 1165, -898
0.246305, 218, -2094, -140, -505, 1165, -898
0.246439, 218, -2094, -140, -505, 1165, -898
0.246573, 218, -2094, -140, -505, 1165, -898
0.246707, 218, -2094, -140, -505, 1165, -898
0.246841, 218, -2094, -140, -505, 1165, -898
0.246975, 218, -2094, -140, -505, 1165, -898
0.247110, 218, -2094, -140, -505, 1165, -898
0.247244, 66, -2092, 35, -567, 1172, -1020
0.247378, 66, -2092, 35, -567, 1172, -1020
0.247512, 66, -2092, 35, -567, 1172, -1020
0.247646, 66, -2092, 35, -567, 1172, -1020
0.247781, 66, -2092, 35, -567, 1172, -1020
0.247915, 66, -2092, 35, -567, 1172, -1020
0.248049, 66, -2092, 35, -567, 1172, -1020
0.248184, -98, -2058, 279, -491, 1199, -1017
0.248318, -98, -2058, 279, -491, 1199, -1017
0.248453, -98, -2058, 279, -491, 1199, -1017
0.248587, -98, -2058, 279, -491, 1199, -1017
0.248721, -98, -2058, 279, -491, 1199, -1017
0.248855, -98, -2058, 279, -491, 1199, -1017
0.248989, -98, -2058, 279, -491, 1199, -1017
0.249123, -98, -2058, 279, -491, 1199, -1017
0.249257, -250, -2042, 400, -331, 1230, -914
0.249392, -250, -2042, 400, -331, 1230, -914
0.249526, -250, -2042, 400, -331, 1230, -914
0.249660, -250, -2042, 400, -331, 1230, -914
0.249795, -250, -2042, 400, -331, 1230, -914
0.249929, -250, -2042, 400, -331, 1230, -914
0.250063, -250, -2042, 400, -331, 1230, -914
0.250197, -250, -2042, 400, -331, 1230, -914
0.250331, -284, -2037, 239, -184, 1221, -749
0.250465, -284, -2037, 239, -184, 1221, -749
0.250600, -284, -2037, 239, -184, 1221, -749
0.250734, -284, -2037, 239, -184, 1221, -749
0.250868, -284, -2037, 239, -184, 1221, -749
0.251002, -284, -2037, 239, -184, 1221, -749
0.251136, -284, -2037, 239, -184, 1221, -749
0.251270, -99, -2042, -40, -155, 1151, -628
0.251405, -99, -2042, -40, -155, 1151, -628
0.251539, -99, -2042, -40, -155, 1151, -628
0.251673, -99, -2042, -40, -155, 1151, -628
0.251807, -99, -2042, -40, -155, 1151, -628
0.251942, -99, -2042, -40, -155, 1151, -628
0.252076, -99, -2042, -40, -155, 1151, -628
0.252210, -99, -2042, -40, -155, 1151, -628
0.252345, 200, -2068, -98, -202, 1044, -681
0.252479, 200, -2068, -98, -202, 1044, -681
0.252613, 200, -2068, -98, -202, 1044, -681
0.252747, 200, -2068, -98, -202, 1044, -681
0.252882, 200, -2068, -98, -202, 1044, -681
0.253016, 200, -2068, -98, -202, 1044, -681
0.253150, 200, -2068, -98, -202, 1044, -681
0.253284, 458, -2059, -28, -216, 973, -918
0.253419, 458, -2059, -28, -216, 973, -918
0.253553, 458, -2059, -28, -216, 973, -918
0.253687, 458, -2059, -28, -216, 973, -918
0.253821, 458, -2059, -28, -216, 973, -918
0.253955, 458, -2059, -28, -216, 973, -918
0.254090, 458, -2059, -28, -216, 973, -918
0.254224, 458, -2059, -28, -216, 973, -918
0.254358, 529, -2052, -59, -252, 996, -1246
0.254492, 529, -2052, -59, -252, 996, -1246
0.254626, 529, -2052, -59, -252, 996, -1246
0.254761, 529, -2052, -59, -252, 996, -1246
0.254895, 529, -2052, -59, -252, 996, -1246
0.255029, 529, -2052, -59, -252, 996, -1246
0.255163, 529, -2052, -59, -252, 996, -1246
0.255297, 265, -2082, -95, -346, 1108, -1501
0.255432, 265, -2082, -95, -346, 1108, -1501
0.255566, 265, -2082, -95, -346, 1108, -1501
0.255700, 265, -2082, -95, -346, 1108, -1501
0.255834, 265, -2082, -95, -346, 1108, -1501
0.255968, 265, -2082, -95, -346, 1108, -1501
0.256103, 265, -2082, -95, -346, 1108, -1501
0.256237, 265, -2082, -95, -346, 1108, -1501
0.256371, -215, -2067, -103, -412, 1254, -1495
0.256506, -215, -2067, -103, -412, 1254, -1495
0.256639, -215, -2067, -103, -412, 1254, -1495
0.256773, -215, -2067, -103, -412, 1254, -1495
0.256906, -215, -2067, -103, -412, 1254, -1495
0.257040, -215, -2067, -103, -412, 1254, -1495
0.257173, -215, -2067, -103, -412, 1254, -1495
0.257307, -471, -2036, -73, -458, 1349, -1212
0.257440, -471, -2036, -73, -458, 1349, -1212
0.257574, -471, -2036, -73, -458, 1349, -1212
0.257707, -471, -2036, -73, -458, 1349, -1212
0.257841, -471, -2036, -73, -458, 1349, -1212
0.257974, -471, -2036, -73, -458, 1349, -1212
0.258108, -471, -2036, -73, -458, 1349, -1212
0.258241, -471, -2036, -73, -458, 1349, -1212
0.258380, -494, -2048, 94, -484, 1327, -874
0.258516, -494, -2048, 94, -484, 1327, -874
0.258649, -494, -2048, 94, -484, 1327, -874
0.258782, -494, -2048, 94, -484, 1327, -874
0.258916, -494, -2048, 94, -484, 1327, -874
0.259049, -494, -2048, 94, -484, 1327, -874
0.259183, -494, -2048, 94, -484, 1327, -874
0.259316, -494, -2048, 94, -484, 1327, -874
0.259450, -674, -2048, 274, -419, 1196, -576
0.259583, -674, -2048, 274, -419, 1196, -576
0.259717, -674, -2048, 274, -419, 1196, -576
0.259850, -674, -2048, 274, -419, 1196, -576
0.259984, -674, -2048, 274, -419, 1196, -576
0.260118, -674, -2048, 274, -419, 1196, -576
0.260252, -674, -2048, 274, -419, 1196, -576
0.260387, -709, -2022, 260, -305, 1012, -219
0.260521, -709, -2022, 260, -305, 1012, -219
0.260655, -709, -2022, 260, -305, 1012, -219
0.260789, -709, -2022, 260, -305, 1012, -219
0.260923, -709, -2022, 260, -305, 1012, -219
0.261058, -709, -2022, 260, -305, 1012, -219
0.261192, -709, -2022, 260, -305, 1012, -219
0.261326, -709, -2022, 260, -305, 1012, -219
0.261460, -394, -2024, 100, -239, 802, 62
0.261594, -394, -2024, 100, -239, 802, 62
0.261729, -394, -2024, 100, -239, 802, 62
0.261863, -394, -2024, 100, -239, 802, 62
0.261997, -394, -2024, 100, -239, 802, 62
0.262131, -394, -2024, 100, -239, 802, 62
0.262265, -394, -2024, 100, -239, 802, 62
0.262400, -76, -2053, 69, -202, 593, 113
0.262534, -76, -2053, 69, -202, 593, 113
0.262668, -76, -2053, 69, -202, 593, 113
0.262802, -76, -2053, 69, -202, 593, 113
0.262936, -76, -2053, 69, -202, 593, 113
0.263071, -76, -2053, 69, -202, 593, 113
0.263205, -76, -2053, 69, -202, 593, 113
0.263341, -76, -2053, 69, -202, 593, 113
0.263495, 193, -2081, 95, -143, 476, -8
0.263639, 193, -2081, 95, -143, 476, -8
0.263776, 193, -2081, 95, -143, 476, -8
0.263912, 193, -2081, 95, -143, 476, -8
0.264047, 193, -2081, 95, -143, 476, -8
0.264190, 193, -2081, 95, -143, 476, -8
0.264332, 193, -2081, 95, -143, 476, -8
0.264474, 287, -2095, -43, -135, 492, -231
0.264614, 287, -2095, -43, -135, 492, -231
0.264753, 287, -2095, -43, -135, 492, -231
0.264889, 287, -2095, -43, -135, 492, -231
0.265025, 287, -2095, -43, -135, 492, -231
0.265165, 287, -2095, -43, -135, 492, -231
0.265304, 287, -2095, -43, -135, 492, -231
0.265439, 96, -2082, -23, -185, 581, -408
0.265575, 96, -2082, -23, -185, 581, -408
0.265715, 96, -2082, -23, -185, 581, -408
0.265861, 96, -2082, -23, -185, 581, -408
0.266006, 96, -2082, -23, -185, 581, -408
0.266146, 96, -2082, -23, -185, 581, -408
0.266287, 96, -2082, -23, -185, 581, -408
0.266424, -101, -2048, 253, -127, 719, -403
0.266565, -101, -2048, 253, -127, 719, -403
0.266702, -101, -2048, 253, -127, 719, -403
0.266837, -101, -2048, 253, -127, 719, -403
0.266976, -101, -2048, 253, -127, 719, -403
0.267115, -101, -2048, 253, -127, 719, -403
0.267251, -101, -2048, 253, -127, 719, -403
0.267386, -101, -2048, 253, -127, 719, -403
0.267524, -66, -2026, 375, 28, 881, -317
0.267663, -66, -2026, 375, 28, 881, -317
0.267798, -66, -2026, 375, 28, 881, -317
0.267933, -66, -2026, 375, 28, 881, -317
0.268072, -66, -2026, 375, 28, 881, -317
0.268208, -66, -2026, 375, 28, 881, -317
0.268343, -66, -2026, 375, 28, 881, -317
0.268484, 240, -2015, 297, 139, 973, -367
0.268626, 240, -2015, 297, 139, 973, -367
0.268760, 240, -2015, 297, 139, 973, -367
0.268895, 240, -2015, 297, 139, 973, -367
0.269029, 240, -2015, 297, 139, 973, -367
0.269163, 240, -2015, 297, 139, 973, -367
0.269297, 240, -2015, 297, 139, 973, -367
0.269432, 240, -2015, 297, 139, 973, -367
0.269566, 552, -2034, 171, 199, 984, -682
0.269700, 552, -2034, 171, 199, 984, -682
0.269834, 552, -2034, 171, 199, 984, -682
0.269969, 552, -2034, 171, 199, 984, -682
0.270103, 552, -2034, 171, 199, 984, -682
0.270238, 552, -2034, 171, 199, 984, -682
0.270374, 552, -2034, 171, 199, 984, -682
0.270512, 323, -2092, 34, 218, 1007, -1095
0.270648, 323, -2092, 34, 218, 1007, -1095
0.270786, 323, -2092, 34, 218, 1007, -1095
0.270921, 323, -2092, 34, 218, 1007, -1095
0.271057, 323, -2092, 34, 218, 1007, -1095
0.271191, 323, -2092, 34, 218, 1007, -1095
0.271325, 323, -2092, 34, 218, 1007, -1095
0.271506, -171, -2088, -184, 181, 1051, -1206
0.271666, -171, -2088, -184, 181, 1051, -1206
0.271808, -171, -2088, -184, 181, 1051, -1206
0.271943, -171, -2088, -184, 181, 1051, -1206
0.272077, -171, -2088, -184, 181, 1051, -1206
0.272211, -171, -2088, -184, 181, 1051, -1206
0.272345, -171, -2088, -184, 181, 1051, -1206
0.272479, -171, -2088, -184, 181, 1051, -1206
0.272613, -131, -2038, -474, -5, 1029, -1056
0.272748, -131, -2038, -474, -5, 1029, -1056
0.272881, -131, -2038, -474, -5, 1029, -1056
0.273022, -131, -2038, -474, -5, 1029, -1056
0.273158, -131, -2038, -474, -5, 1029, -1056
0.273292, -131, -2038, -474, -5, 1029, -1056
0.273426, -131, -2038, -474, -5, 1029, -1056
0.273560, 6, -2048, -523, -355, 946, -1017
0.273695, 6, -2048, -523, -355, 946, -1017
0.273829, 6, -2048, -523, -355, 946, -1017
0.273963, 6, -2048, -523, -355, 946, -1017
0.274097, 6, -2048, -523, -355, 946, -1017
0.274231, 6, -2048, -523, -355, 946, -1017
0.274364, 6, -2048, -523, -355, 946, -1017
0.274498, 6, -2048, -523, -355, 946, -1017
0.274632, -83, -2073, -267, -639, 898, -1031
0.274766, -83, -2073, -267, -639, 898, -1031
0.274901, -83, -2073, -267, -639, 898, -1031
0.275034, -83, -2073, -267, -639, 898, -1031
0.275168, -83, -2073, -267, -639, 898, -1031
0.275303, -83, -2073, -267, -639, 898, -1031
0.275436, -83, -2073, -267, -639, 898, -1031
0.275570, -139, -2054, 95, -731, 906, -988
0.275705, -139, -2054, 95, -731, 906, -988
0.275839, -139, -2054, 95, -731, 906, -988
0.275972, -139, -2054, 95, -731, 906, -988
0.276107, -139, -2054, 95, -731, 906, -988
0.276241, -139, -2054, 95, -731, 906, -988
0.276375, -139, -2054, 95, -731, 906, -988
0.276509, -139, -2054, 95, -731, 906, -988
0.276643, -411, -2041, 376, -671, 936, -871
0.276777, -411, -2041, 376, -671, 936, -871
0.276906, -411, -2041, 376, -671, 936, -871
0.277045, -411, -2041, 376, -671, 936, -871
0.277187, -411, -2041, 376, -671, 936, -871
0.277329, -411, -2041, 376, -671, 936, -871
0.277466, -411, -2041, 376, -671, 936, -871
0.277600, -424, -2056, 318, -552, 942, -606
0.277734, -424, -2056, 318, -552, 942, -606
0.277868, -424, -2056, 318, -552, 942, -606
0.278003, -424, -2056, 318, -552, 942, -606
0.278136, -424, -2056, 318, -552, 942, -606
0.278270, -424, -2056, 318, -552, 942, -606
0.278404, -424, -2056, 318, -552, 942, -606
0.278538, -424, -2056, 318, -552, 942, -606
0.278672, 6, -2055, 25, -507, 875, -465
0.278806, 6, -2055, 25, -507, 875, -465
0.278940, 6, -2055, 25, -507, 875, -465
0.279074, 6, -2055, 25, -507, 875, -465
0.279208, 6, -2055, 25, -507, 875, -465
0.279342, 6, -2055, 25, -507, 875, -465
0.279476, 6, -2055, 25, -507, 875, -465
0.279610, 75, -2043, -99, -537, 767, -586
0.279744, 75, -2043, -99, -537, 767, -586
0.279878, 75, -2043, -99, -537, 767, -586
0.280012, 75, -2043, -99, -537, 767, -586
0.280146, 75, -2043, -99, -537, 767, -586
0.280280, 75, -2043, -99, -537, 767, -586
0.280414, 75, -2043, -99, -537, 767, -586
0.280548, 75, -2043, -99, -537, 767, -586
0.280682, -453, -2039, 74, -550, 711, -599
0.280816, -453, -2039, 74, -550, 711, -599
0.280950, -453, -2039, 74, -550, 711, -599
0.281084, -453, -2039, 74, -550, 711, -599
0.281217, -453, -2039, 74, -550, 711, -599
0.281351, -453, -2039, 74, -550, 711, -599
0.281485, -453, -2039, 74, -550, 711, -599
0.281619, -453, -2039, 74, -550, 711, -599
0.281753, -1012, -2031, 256, -486, 716, -193
0.281887, -1012, -2031, 256, -486, 716, -193
0.282021, -1012, -2031, 256, -486, 716, -193
0.282154, -1012, -2031, 256, -486, 716, -193
0.282290, -1012, -2031, 256, -486, 716, -193
0.282431, -1012, -2031, 256, -486, 716, -193
0.282569, -1012, -2031, 256, -486, 716, -193
0.282703, -984, -2042, 267, -386, 683, 435
0.282838, -984, -2042, 267, -386, 683, 435
0.282972, -984, -2042, 267, -386, 683, 435
0.283106, -984, -2042, 267, -386, 683, 435
0.283240, -984, -2042, 267, -386, 683, 435
0.283374, -984, -2042, 267, -386, 683, 435
0.283508, -984, -2042, 267, -386, 683, 435
0.283647, -984, -2042, 267, -386, 683, 435
0.283779, -557, -2056, 196, -297, 583, 846
0.283913, -557, -2056, 196, -297, 583, 846
0.284048, -557, -2056, 196, -297, 583, 846
0.284206, -557, -2056, 196, -297, 583, 846
0.284342, -557, -2056, 196, -297, 583, 846
0.284476, -557, -2056, 196, -297, 583, 846
0.284610, -557, -2056, 196, -297, 583, 846
0.284744, -215, -2042, 80, -242, 491, 922
0.284878, -215, -2042, 80, -242, 491, 922
0.285012, -215, -2042, 80, -242, 491, 922
0.285146, -215, -2042, 80, -242, 491, 922
0.285280, -215, -2042, 80, -242, 491, 922
0.285413, -215, -2042, 80, -242, 491, 922
0.285547, -215, -2042, 80, -242, 491, 922
0.285681, -215, -2042, 80, -242, 491, 922
0.285815, -108, -2044, 9, -263, 449, 836
0.285949, -108, -2044, 9, -263, 449, 836
0.286083, -108, -2044, 9, -263, 449, 836
0.286217, -108, -2044, 9, -263, 449, 836
0.286351, -108, -2044, 9, -263, 449, 836
0.286485, -108, -2044, 9, -263, 449, 836
0.286619, -108, -2044, 9, -263, 449, 836
0.286753, -145, -2056, 30, -309, 444, 761
0.286887, -145, -2056, 30, -309, 444, 761
0.287021, -145, -2056, 30, -309, 444, 761
0.287155, -145, -2056, 30, -309, 444, 761
0.287289, -145, -2056, 30, -309, 444, 761
0.287423, -145, -2056, 30, -309, 444, 761
0.287556, -145, -2056, 30, -309, 444, 761
0.287690, -145, -2056, 30, -309, 444, 761
0.287824, -15, -2040, 33, -337, 472, 723
0.287958, -15, -2040, 33, -337, 472, 723
0.288093, -15, -2040, 33, -337, 472, 723
0.288227, -15, -2040, 33, -337, 472, 723
0.288379, -15, -2040, 33, -337, 472, 723
0.288515, -15, -2040, 33, -337, 472, 723
0.288650, -15, -2040, 33, -337, 472, 723
0.288784, 232, -2034, 30, -392, 538, 575
0.288918, 232, -2034, 30, -392, 538, 575
0.289052, 232, -2034, 30, -392, 538, 575
0.289186, 232, -2034, 30, -392, 538, 575
0.289320, 232, -2034, 30, -392, 538, 575
0.289454, 232, -2034, 30, -392, 538, 575
0.289588, 232, -2034, 30, -392, 538, 575
0.289718, 232, -2034, 30, -392, 538, 575
0.289852, 99, -2042, 99, -434, 661, 346
0.289986, 99, -2042, 99, -434, 661, 346
0.290120, 99, -2042, 99, -434, 661, 346
0.290254, 99, -2042, 99, -434, 661, 346
0.290388, 99, -2042, 99, -434, 661, 346
0.290521, 99, -2042, 99, -434, 661, 346
0.290655, 99, -2042, 99, -434, 661, 346
0.290789, -290, -2042, 155, -406, 824, 322
0.290923, -290, -2042, 155, -406, 824, 322
0.291057, -290, -2042, 155, -406, 824, 322
0.291191, -290, -2042, 155, -406, 824, 322
0.291325, -290, -2042, 155, -406, 824, 322
0.291459, -290, -2042, 155, -406, 824, 322
0.291593, -290, -2042, 155, -406, 824, 322
0.291727, -290, -2042, 155, -406, 824, 322
0.291861, -200, -2051, 118, -379, 941, 478
0.291995, -200, -2051, 118, -379, 941, 478
0.292129, -200, -2051, 118, -379, 941, 478
0.292263, -200, -2051, 118, -379, 941, 478
0.292397, -200, -2051, 118, -379, 941, 478
0.292531, -200, -2051, 118, -379, 941, 478
0.292665, -200, -2051, 118, -379, 941, 478
0.292799, 276, -2073, 95, -378, 959, 420
0.292933, 276, -2073, 95, -378, 959, 420
0.293067, 276, -2073, 95, -378, 959, 420
0.293201, 276, -2073, 95, -378, 959, 420
0.293335, 276, -2073, 95, -378, 959, 420
0.293469, 276, -2073, 95, -378, 959, 420
0.293603, 276, -2073, 95, -378, 959, 420
0.293737, 276, -2073, 95, -378, 959, 420
0.293871, 360, -2089, 114, -324, 950, 87
0.294005, 360, -2089, 114, -324, 950, 87
0.294139, 360, -2089, 114, -324, 950, 87
0.294273, 360, -2089, 114, -324, 950, 87
0.294407, 360, -2089, 114, -324, 950, 87
0.294541, 360, -2089, 114, -324, 950, 87
0.294675, 360, -2089, 114, -324, 950, 87
0.294809, 118, -2073, 60, -256, 993, -159
0.294943, 118, -2073, 60, -256, 993, -159
0.295077, 118, -2073, 60, -256, 993, -159
0.295211, 118, -2073, 60, -256, 993, -159
0.295344, 118, -2073, 60, -256, 993, -159
0.295478, 118, -2073, 60, -256, 993, -159
0.295612, 118, -2073, 60, -256, 993, -159
0.295746, 118, -2073, 60, -256, 993, -159
0.295880, 146, -2042, -17, -266, 1059, -231
0.296014, 146, -2042, -17, -266, 1059, -231
0.296149, 146, -2042, -17, -266, 1059, -231
0.296283, 146, -2042, -17, -266, 1059, -231
0.296417, 146, -2042, -17, -266, 1059, -231
0.296551, 146, -2042, -17, -266, 1059, -231
0.296685, 146, -2042, -17, -266, 1059, -231
0.296819, 146, -2042, -17, -266, 1059, -231
0.296954, 283, -2050, -63, -343, 1095, -357
0.297088, 283, -2050, -63, -343, 1095, -357
0.297222, 283, -2050, -63, -343, 1095, -357
0.297366, 283, -2050, -63, -343, 1095, -357
0.297501, 283, -2050, -63, -343, 1095, -357
0.297635, 283, -2050, -63, -343, 1095, -357
0.297769, 283, -2050, -63, -343, 1095, -357
0.297903, 173, -2066, -90, -448, 1143, -518
0.298038, 173, -2066, -90, -448, 1143, -518
0.298172, 173, -2066, -90, -448, 1143, -518
0.298306, 173, -2066, -90, -448, 1143, -518
0.298440, 173, -2066, -90, -448, 1143, -518
0.298574, 173, -2066, -90, -448, 1143, -518
0.298708, 173, -2066, -90, -448, 1143, -518
0.298842, 173, -2066, -90, -448, 1143, -518
0.298976, -99, -2034, -100, -566, 1239, -546
0.299111, -99, -2034, -100, -566, 1239, -546
0.299245, -99, -2034, -100, -566, 1239, -546
0.299379, -99, -2034, -100, -566, 1239, -546
0.299513, -99, -2034, -100, -566, 1239, -546
0.299647, -99, -2034, -100, -566, 1239, -546
0.299782, -99, -2034, -100, -566, 1239, -546
0.299916, -217, -2017, -151, -709, 1312, -420
0.300050, -217, -2017, -151, -709, 1312, -420
0.300185, -217, -2017, -151, -709, 1312, -420
0.300319, -217, -2017, -151, -709, 1312, -420
0.300453, -217, -2017, -151, -709, 1312, -420
0.300587, -217, -2017, -151, -709, 1312, -420
0.300721, -217, -2017, -151, -709, 1312, -420
0.300855, -217, -2017, -151, -709, 1312, -420
0.300989, 46, -2045, -22, -828, 1305, -332
0.301124, 46, -2045, -22, -828, 1305, -332
0.301258, 46, -2045, -22, -828, 1305, -332
0.301392, 46, -2045, -22, -828, 1305, -332
0.301526, 46, -2045, -22, -828, 1305, -332
0.301660, 46, -2045, -22, -828, 1305, -332
0.301794, 46, -2045, -22, -828, 1305, -332
0.301928, 241, -2091, 257, -781, 1264, -467
0.302062, 241, -2091, 257, -781, 1264, -467
0.302197, 241, -2091, 257, -781, 1264, -467
0.302331, 241, -2091, 257, -781, 1264, -467
0.302465, 241, -2091, 257, -781, 1264, -467
0.302599, 241, -2091, 257, -781, 1264, -467
0.302733, 241, -2091, 257, -781, 1264, -467
0.302867, 241, -2091, 257, -781, 1264, -467
0.303001, -7, -2131, 326, -624, 1241, -647
0.303136, -7, -2131, 326, -624, 1241, -647
0.303270, -7, -2131, 326, -624, 1241, -647
0.303404, -7, -2131, 326, -624, 1241, -647
0.303538, -7, -2131, 326, -624, 1241, -647
0.303673, -7, -2131, 326, -624, 1241, -647
0.303807, -7, -2131, 326, -624, 1241, -647
0.303941, -492, -2088, 305, -459, 1221, -574
0.304075, -492, -2088, 305, -459, 1221, -574
0.304209, -492, -2088, 305, -459, 1221, -574
0.304343, -492, -2088, 305, -459, 1221, -574
0.304478, -492, -2088, 305, -459, 1221, -574
0.304612, -492, -2088, 305, -459, 1221, -574
0.304746, -492, -2088, 305, -459, 1221, -574
0.304880, -492, -2088, 305, -459, 1221, -574
0.305014, -737, -2015, 238, -274, 1175, -195
0.305148, -737, -2015, 238, -274, 1175, -195
0.305282, -737, -2015, 238, -274, 1175, -195
0.305416, -737, -2015, 238, -274, 1175, -195
0.305550, -737, -2015, 238, -274, 1175, -195
0.305684, -737, -2015, 238, -274, 1175, -195
0.305818, -737, -2015, 238, -274, 1175, -195
0.305952, -737, -2015, 238, -274, 1175, -195
0.306086, -335, -2035, 93, -181, 1064, 159
0.306221, -335, -2035, 93, -181, 1064, 159
0.306355, -335, -2035, 93, -181, 1064, 159
0.306489, -335, -2035, 93, -181, 1064, 159
0.306623, -335, -2035, 93, -181, 1064, 159
0.306757, -335, -2035, 93, -181, 1064, 159
0.306891, -335, -2035, 93, -181, 1064, 159
0.307025, 61, -2067, 61, -175, 875, 124
0.307159, 61, -2067, 61, -175, 875, 124
0.307294, 61, -2067, 61, -175, 875, 124
0.307428, 61, -2067, 61, -175, 875, 124
0.307562, 61, -2067, 61, -175, 875, 124
0.307696, 61, -2067, 61, -175, 875, 124
0.307830, 61, -2067, 61, -175, 875, 124
0.307964, 61, -2067, 61, -175, 875, 124
0.308098, -112, -2047, 68, -153, 699, -64
0.308234, -112, -2047, 68, -153, 699, -64
0.308369, -112, -2047, 68, -153, 699, -64
0.308504, -112, -2047, 68, -153, 699, -64
0.308639, -112, -2047, 68, -153, 699, -64
0.308773, -112, -2047, 68, -153, 699, -64
0.308907, -112, -2047, 68, -153, 699, -64
0.309041, -52, -2034, 7, -169, 631, -72
0.309176, -52, -2034, 7, -169, 631, -72
0.309310, -52, -2034, 7, -169, 631, -72
0.309444, -52, -2034, 7, -169, 631, -72
0.309578, -52, -2034, 7, -169, 631, -72
0.309707, -52, -2034, 7, -169, 631, -72
0.309842, -52, -2034, 7, -169, 631, -72
0.309987, -52, -2034, 7, -169, 631, -72
0.310121, 396, -2039, -44, -217, 666, -165
0.310256, 396, -2039, -44, -217, 666, -165
0.310390, 396, -2039, -44, -217, 666, -165
0.310524, 396, -2039, -44, -217, 666, -165
0.310658, 396, -2039, -44, -217, 666, -165
0.310793, 396, -2039, -44, -217, 666, -165
0.310927, 396, -2039, -44, -217, 666, -165
0.311061, 332, -2057, -55, -239, 790, -472
0.311195, 332, -2057, -55, -239, 790, -472
0.311329, 332, -2057, -55, -239, 790, -472
0.311463, 332, -2057, -55, -239, 790, -472
0.311597, 332, -2057, -55, -239, 790, -472
0.311731, 332, -2057, -55, -239, 790, -472
0.311866, 332, -2057, -55, -239, 790, -472
0.312000, 332, -2057, -55, -239, 790, -472
0.312135, -338, -2072, -75, -263, 988, -575
0.312269, -338, -2072, -75, -263, 988, -575
0.312403, -338, -2072, -75, -263, 988, -575
0.312537, -338, -2072, -75, -263, 988, -575
0.312671, -338, -2072, -75, -263, 988, -575
0.312805, -338, -2072, -75, -263, 988, -575
0.312939, -338, -2072, -75, -263, 988, -575
0.313074, -746, -2068, -106, -308, 1149, -243
0.313208, -746, -2068, -106, -308, 1149, -243
0.313342, -746, -2068, -106, -308, 1149, -243
0.313476, -746, -2068, -106, -308, 1149, -243
0.313610, -746, -2068, -106, -308, 1149, -243
0.313744, -746, -2068, -106, -308, 1149, -243
0.313879, -746, -2068, -106, -308, 1149, -243
0.314013, -746, -2068, -106, -308, 1149, -243
0.314147, -380, -2064, -115, -365, 1148, 137
0.314281, -380, -2064, -115, -365, 1148, 137
0.314415, -380, -2064, -115, -365, 1148, 137
0.314549, -380, -2064, -115, -365, 1148, 137
0.314683, -380, -2064, -115, -365, 1148, 137
0.314817, -380, -2064, -115, -365, 1148, 137
0.314951, -380, -2064, -115, -365, 1148, 137
0.315085, 196, -2059, -67, -438, 1026, 89
0.315220, 196, -2059, -67, -438, 1026, 89
0.315354, 196, -2059, -67, -438, 1026, 89
0.315488, 196, -2059, -67, -438, 1026, 89
0.315622, 196, -2059, -67, -438, 1026, 89
0.315756, 196, -2059, -67, -438, 1026, 89
0.315890, 196, -2059, -67, -438, 1026, 89
0.316024, 196, -2059, -67, -438, 1026, 89
0.316159, 162, -2053, 36, -485, 925, -256
0.316293, 162, -2053, 36, -485, 925, -256
0.316427, 162, -2053, 36, -485, 925, -256
0.316561, 162, -2053, 36, -485, 925, -256
0.316695, 162, -2053, 36, -485, 925, -256
0.316829, 162, -2053, 36, -485, 925, -256
0.316963, 162, -2053, 36, -485, 925, -256
0.317098, 162, -2053, 36, -485, 925, -256
0.317232, -295, -2047, 177, -444, 914, -374
0.317366, -295, -2047, 177, -444, 914, -374
0.317500, -295, -2047, 177, -444, 914, -374
0.317634, -295, -2047, 177, -444, 914, -374
0.317768, -295, -2047, 177, -444, 914, -374
0.317902, -295, -2047, 177, -444, 914, -374
0.318036, -295, -2047, 177, -444, 914, -374
0.318171, -232, -2026, 149, -368, 935, -196
0.318305, -232, -2026, 149, -368, 935, -196
0.318439, -232, -2026, 149, -368, 935, -196
0.318573, -232, -2026, 149, -368, 935, -196
0.318707, -232, -2026, 149, -368, 935, -196
0.318841, -232, -2026, 149, -368, 935, -196
0.318975, -232, -2026, 149, -368, 935, -196
0.319109, -232, -2026, 149, -368, 935, -196
0.319243, 188, -2033, 3, -367, 913, -171
0.319378, 188, -2033, 3, -367, 913, -171
0.319512, 188, -2033, 3, -367, 913, -171
0.319646, 188, -2033, 3, -367, 913, -171
0.319780, 188, -2033, 3, -367, 913, -171
0.319914, 188, -2033, 3, -367, 913, -171
0.320048, 188, -2033, 3, -367, 913, -171
0.320182, 222, -2068, 41, -381, 880, -380
0.320317, 222, -2068, 41, -381, 880, -380
0.320451, 222, -2068, 41, -381, 880, -380
0.320585, 222, -2068, 41, -381, 880, -380
0.320719, 222, -2068, 41, -381, 880, -380
0.320853, 222, -2068, 41, -381, 880, -380
0.320987, 222, -2068, 41, -381, 880, -380
0.321121, 222, -2068, 41, -381, 880, -380
0.321255, 196, -2062, 37, -346, 903, -551
0.321390, 196, -2062, 37, -346, 903, -551
0.321524, 196, -2062, 37, -346, 903, -551
0.321658, 196, -2062, 37, -346, 903, -551
0.321793, 196, -2062, 37, -346, 903, -551
0.321927, 196, -2062, 37, -346, 903, -551
0.322061, 196, -2062, 37, -346, 903, -551
0.322195, 335, -2033, -123, -370, 964, -715
0.322330, 335, -2033, -123, -370, 964, -715
0.322464, 335, -2033, -123, -370, 964, -715
0.322598, 335, -2033, -123, -370, 964, -715
0.322745, 335, -2033, -123, -370, 964, -715
0.322880, 335, -2033, -123, -370, 964, -715
0.323014, 335, -2033, -123, -370, 964, -715
0.323148, 335, -2033, -123, -370, 964, -715
0.323282, 133, -2058, -159, -479, 1026, -911
0.323416, 133, -2058, -159, -479, 1026, -911
0.323550, 133, -2058, -159, -479, 1026, -911
0.323684, 133, -2058, -159, -479, 1026, -911
0.323819, 133, -2058, -159, -479, 1026, -911
0.323952, 133, -2058, -159, -479, 1026, -911
0.324087, 133, -2058, -159, -479, 1026, -911
0.324221, -292, -2083, 45, -525, 1096, -902
0.324356, -292, -2083, 45, -525, 1096, -902
0.324490, -292, -2083, 45, -525, 1096, -902
0.324624, -292, -2083, 45, -525, 1096, -902
0.324758, -292, -2083, 45, -525, 1096, -902
0.324892, -292, -2083, 45, -525, 1096, -902
0.325027, -292, -2083, 45, -525, 1096, -902
0.325161, -292, -2083, 45, -525, 1096, -902
0.325295, -395, -2073, 286, -415, 1137, -686
0.325429, -395, -2073, 286, -415, 1137, -686
0.325563, -395, -2073, 286, -415, 1137, -686
0.325698, -395, -2073, 286, -415, 1137, -686
0.325832, -395, -2073, 286, -415, 1137, -686
0.325966, -395, -2073, 286, -415, 1137, -686
0.326100, -395, -2073, 286, -415, 1137, -686
0.326234, -377, -2074, 255, -253, 1087, -501
0.326368, -377, -2074, 255, -253, 1087, -501
0.326503, -377, -2074, 255, -253, 1087, -501
0.326637, -377, -2074, 255, -253, 1087, -501
0.326771, -377, -2074, 255, -253, 1087, -501
0.326905, -377, -2074, 255, -253, 1087, -501
0.327039, -377, -2074, 255, -253, 1087, -501
0.327173, -377, -2074, 255, -253, 1087, -501
0.327307, -340, -2063, 12, -167, 941, -357
0.327442, -340, -2063, 12, -167, 941, -357
0.327576, -340, -2063, 12, -167, 941, -357
0.327710, -340, -2063, 12, -167, 941, -357
0.327844, -340, -2063, 12, -167, 941, -357
0.327978, -340, -2063, 12, -167, 941, -357
0.328113, -340, -2063, 12, -167, 941, -357
0.328247, -340, -2063, 12, -167, 941, -357
0.328381, -159, -2051, -134, -163, 764, -285
0.328515, -159, -2051, -134, -163, 764, -285
0.328649, -159, -2051, -134, -163, 764, -285
0.328783, -159, -2051, -134, -163, 764, -285
0.328918, -159, -2051, -134, -163, 764, -285
0.329052, -159, -2051, -134, -163, 764, -285
0.329186, -159, -2051, -134, -163, 764, -285
0.329320, -158, -2069, -79, -188, 632, -306
0.329454, -158, -2069, -79, -188, 632, -306
0.329588, -158, -2069, -79, -188, 632, -306
0.329723, -158, -2069, -79, -188, 632, -306
0.329857, -158, -2069, -79, -188, 632, -306
0.329991, -158, -2069, -79, -188, 632, -306
0.330125, -158, -2069, -79, -188, 632, -306
0.330259, -158, -2069, -79, -188, 632, -306
0.330393, -227, -2066, -13, -196, 564, -255
0.330528, -227, -2066, -13, -196, 564, -255
0.330662, -227, -2066, -13, -196, 564, -255
0.330796, -227, -2066, -13, -196, 564, -255
0.330930, -227, -2066, -13, -196, 564, -255
0.331064, -227, -2066, -13, -196, 564, -255
0.331198, -227, -2066, -13, -196, 564, -255
0.331333, -145, -2037, -15, -209, 537, -175
0.331467, -145, -2037, -15, -209, 537, -175
0.331601, -145, -2037, -15, -209, 537, -175
0.331735, -145, -2037, -15, -209, 537, -175
0.331869, -145, -2037, -15, -209, 537, -175
0.332003, -145, -2037, -15, -209, 537, -175
0.332138, -145, -2037, -15, -209, 537, -175
0.332272, -145, -2037, -15, -209, 537, -175
0.332406, -118, -2032, 91, -195, 547, -152
0.332540, -118, -2032, 91, -195, 547, -152
0.332674, -118, -2032, 91, -195, 547, -152
0.332808, -118, -2032, 91, -195, 547, -152
0.332942, -118, -2032, 91, -195, 547, -152
0.333077, -118, -2032, 91, -195, 547, -152
0.333211, -118, -2032, 91, -195, 547, -152
0.333345, -147, -2053, 234, -78, 613, -133
0.333479, -147, -2053, 234, -78, 613, -133
0.333613, -147, -2053, 234, -78, 613, -133
0.333747, -147, -2053, 234, -78, 613, -133
0.333882, -147, -2053, 234, -78, 613, -133
0.334016, -147, -2053, 234, -78, 613, -133
0.334150, -147, -2053, 234, -78, 613, -133
0.334284, -147, -2053, 234, -78, 613, -133
0.334418, -300, -2050, 256, 94, 698, -73
0.334553, -300, -2050, 256, 94, 698, -73
0.334687, -300, -2050, 256, 94, 698, -73
0.334821, -300, -2050, 256, 94, 698, -73
0.334955, -300, -2050, 256, 94, 698, -73
0.335089, -300, -2050, 256, 94, 698, -73
0.335229, -300, -2050, 256, 94, 698, -73
0.335363, -424, -2042, 192, 249, 733, 89
0.335498, -424, -2042, 192, 249, 733, 89
0.335632, -424, -2042, 192, 249, 733, 89
0.335766, -424, -2042, 192, 249, 733, 89
0.335900, -424, -2042, 192, 249, 733, 89
0.336034, -424, -2042, 192, 249, 733, 89
0.336168, -424, -2042, 192, 249, 733, 89
0.336302, -424, -2042, 192, 249, 733, 89
0.336436, -75, -2058, 102, 360, 685, 209
0.336571, -75, -2058, 102, 360, 685, 209
0.336705, -75, -2058, 102, 360, 685, 209
0.336839, -75, -2058, 102, 360, 685, 209
0.336973, -75, -2058, 102, 360, 685, 209
0.337107, -75, -2058, 102, 360, 685, 209
0.337242, -75, -2058, 102, 360, 685, 209
0.337376, -75, -2058, 102, 360, 685, 209
0.337510, 317, -2074, 59, 448, 599, 33
0.337644, 317, -2074, 59, 448, 599, 33
0.337778, 317, -2074, 59, 448, 599, 33
0.337912, 317, -2074, 59, 448, 599, 33
0.338046, 317, -2074, 59, 448, 599, 33
0.338181, 317, -2074, 59, 448, 599, 33
0.338315, 317, -2074, 59, 448, 599, 33
0.338449, 102, -2078, 43, 532, 574, -270
0.338583, 102, -2078, 43, 532, 574, -270
0.338717, 102, -2078, 43, 532, 574, -270
0.338851, 102, -2078, 43, 532, 574, -270
0.338985, 102, -2078, 43, 532, 574, -270
0.339120, 102, -2078, 43, 532, 574, -270
0.339254, 102, -2078, 43, 532, 574, -270
0.339388, 102, -2078, 43, 532, 574, -270
0.339522, -361, -2048, 54, 587, 626, -288
0.339656, -361, -2048, 54, 587, 626, -288
0.339790, -361, -2048, 54, 587, 626, -288
0.339925, -361, -2048, 54, 587, 626, -288
0.340059, -361, -2048, 54, 587, 626, -288
0.340198, -361, -2048, 54, 587, 626, -288
0.340332, -361, -2048, 54, 587, 626, -288
0.340466, -305, -2017, 137, 665, 686, -58
0.340600, -305, -2017, 137, 665, 686, -58
0.340734, -305, -2017, 137, 665, 686, -58
0.340869, -305, -2017, 137, 665, 686, -58
0.341003, -305, -2017, 137, 665, 686, -58
0.341137, -305, -2017, 137, 665, 686, -58
0.341271, -305, -2017, 137, 665, 686, -58
0.341405, -305, -2017, 137, 665, 686, -58
0.341539, 30, -2050, 61, 756, 714, 5
0.341673, 30, -2050, 61, 756, 714, 5
0.341808, 30, -2050, 61, 756, 714, 5
0.341942, 30, -2050, 61, 756, 714, 5
0.342076, 30, -2050, 61, 756, 714, 5
0.342210, 30, -2050, 61, 756, 714, 5
0.342344, 30, -2050, 61, 756, 714, 5
0.342478, -80, -2087, -137, 730, 712, -112
0.342613, -80, -2087, -137, 730, 712, -112
0.342747, -80, -2087, -137, 730, 712, -112
0.342881, -80, -2087, -137, 730, 712, -112
0.343015, -80, -2087, -137, 730, 712, -112
0.343149, -80, -2087, -137, 730, 712, -112
0.343283, -80, -2087, -137, 730, 712, -112
0.343417, -80, -2087, -137, 730, 712, -112
0.343552, -197, -2060, -209, 616, 695, -104
0.343686, -197, -2060, -209, 616, 695, -104
0.343820, -197, -2060, -209, 616, 695, -104
0.343954, -197, -2060, -209, 616, 695, -104
0.344089, -197, -2060, -209, 616, 695, -104
0.344223, -197, -2060, -209, 616, 695, -104
0.344357, -197, -2060, -209, 616, 695, -104
0.344491, 126, -2043, -186, 493, 679, -92
0.344625, 126, -2043, -186, 493, 679, -92
0.344759, 126, -2043, -186, 493, 679, -92
0.344894, 126, -2043, -186, 493, 679, -92
0.345028, 126, -2043, -186, 493, 679, -92
0.345162, 126, -2043, -186, 493, 679, -92
0.345296, 126, -2043, -186, 493, 679, -92
0.345430, 126, -2043, -186, 493, 679, -92
0.345564, 371, -2069, -38, 410, 667, -308
0.345698, 371, -2069, -38, 410, 667, -308
0.345833, 371, -2069, -38, 410, 667, -308
0.345967, 371, -2069, -38, 410, 667, -308
0.346101, 371, -2069, -38, 410, 667, -308
0.346235, 371, -2069, -38, 410, 667, -308
0.346369, 371, -2069, -38, 410, 667, -308
0.346503, 203, -2062, 70, 417, 694, -582
0.346638, 203, -2062, 70, 417, 694, -582
0.346772, 203, -2062, 70, 417, 694, -582
0.346906, 203, -2062, 70, 417, 694, -582
0.347040, 203, -2062, 70, 417, 694, -582
0.347175, 203, -2062, 70, 417, 694, -582
0.347309, 203, -2062, 70, 417, 694, -582
0.347443, 203, -2062, 70, 417, 694, -582
0.347577, -133, -2037, -83, 399, 778, -650
0.347711, -133, -2037, -83, 399, 778, -650
0.347846, -133, -2037, -83, 399, 778, -650
0.347980, -133, -2037, -83, 399, 778, -650
0.348114, -133, -2037, -83, 399, 778, -650
0.348248, -133, -2037, -83, 399, 778, -650
0.348381, -133, -2037, -83, 399, 778, -650
0.348519, -133, -2037, -83, 399, 778, -650
0.348653, -302, -2055, -314, 253, 827, -514
0.348787, -302, -2055, -314, 253, 827, -514
0.348920, -302, -2055, -314, 253, 827, -514
0.349054, -302, -2055, -314, 253, 827, -514
0.349187, -302, -2055, -314, 253, 827, -514
0.349320, -302, -2055, -314, 253, 827, -514
0.349454, -302, -2055, -314, 253, 827, -514
0.349587, -320, -2082, -292, 71, 778, -324
0.349721, -320, -2082, -292, 71, 778, -324
0.349854, -320, -2082, -292, 71, 778, -324
0.349988, -320, -2082, -292, 71, 778, -324
0.350121, -320, -2082, -292, 71, 778, -324
0.350255, -320, -2082, -292, 71, 778, -324
0.350388, -320, -2082, -292, 71, 778, -324
0.350521, -320, -2082, -292, 71, 778, -324
0.350655, -94, -2080, 20, 3, 674, -200
0.350788, -94, -2080, 20, 3, 674, -200
0.350922, -94, -2080, 20, 3, 674, -200
0.351055, -94, -2080, 20, 3, 674, -200
0.351189, -94, -2080, 20, 3, 674, -200
0.351322, -94, -2080, 20, 3, 674, -200
0.351455, -94, -2080, 20, 3, 674, -200
0.351589, 283, -2062, 188, 59, 564, -305
0.351722, 283, -2062, 188, 59, 564, -305
0.351856, 283, -2062, 188, 59, 564, -305
0.351989, 283, -2062, 188, 59, 564, -305
0.352123, 283, -2062, 188, 59, 564, -305
0.352258, 283, -2062, 188, 59, 564, -305
0.352392, 283, -2062, 188, 59, 564, -305
0.352526, 283, -2062, 188, 59, 564, -305
0.352660, 111, -2043, 129, 121, 486, -559
0.352794, 111, -2043, 129, 121, 486, -559
0.352929, 111, -2043, 129, 121, 486, -559
0.353063, 111, -2043, 129, 121, 486, -559
0.353197, 111, -2043, 129, 121, 486, -559
0.353331, 111, -2043, 129, 121, 486, -559
0.353465, 111, -2043, 129, 121, 486, -559
0.353599, -323, -2034, 78, 172, 471, -560
0.353733, -323, -2034, 78, 172, 471, -560
0.353868, -323, -2034, 78, 172, 471, -560
0.354002, -323, -2034, 78, 172, 471, -560
0.354136, -323, -2034, 78, 172, 471, -560
0.354270, -323, -2034, 78, 172, 471, -560
0.354404, -323, -2034, 78, 172, 471, -560
0.354538, -323, -2034, 78, 172, 471, -560
0.354672, -296, -2042, 3, 208, 485, -330
0.354806, -296, -2042, 3, 208, 485, -330
0.354940, -296, -2042, 3, 208, 485, -330
0.355075, -296, -2042, 3, 208, 485, -330
0.355209, -296, -2042, 3, 208, 485, -330
0.355343, -296, -2042, 3, 208, 485, -330
0.355477, -296, -2042, 3, 208, 485, -330
0.355611, -296, -2042, 3, 208, 485, -330
0.355745, -268, -2050, -121, 184, 441, -180
0.355879, -268, -2050, -121, 184, 441, -180
0.356013, -268, -2050, -121, 184, 441, -180
0.356148, -268, -2050, -121, 184, 441, -180
0.356282, -268, -2050, -121, 184, 441, -180
0.356416, -268, -2050, -121, 184, 441, -180
0.356550, -268, -2050, -121, 184, 441, -180
0.356684, -445, -2050, -209, 121, 317, -37
0.356819, -445, -2050, -209, 121, 317, -37
0.356953, -445, -2050, -209, 121, 317, -37
0.357087, -445, -2050, -209, 121, 317, -37
0.357221, -445, -2050, -209, 121, 317, -37
0.357355, -445, -2050, -209, 121, 317, -37
0.357489, -445, -2050, -209, 121, 317, -37
0.357623, -445, -2050, -209, 121, 317, -37
0.357757, -351, -2064, -73, 69, 191, 172
0.357892, -351, -2064, -73, 69, 191, 172
0.358026, -351, -2064, -73, 69, 191, 172
0.358160, -351, -2064, -73, 69, 191, 172
0.358294, -351, -2064, -73, 69, 191, 172
0.358428, -351, -2064, -73, 69, 191, 172
0.358562, -351, -2064, -73, 69, 191, 172
0.358696, -76, -2071, 187, 124, 114, 254
0.358831, -76, -2071, 187, 124, 114, 254
0.358965, -76, -2071, 187, 124, 114, 254
0.359099, -76, -2071, 187, 124, 114, 254
0.359233, -76, -2071, 187, 124, 114, 254
0.359367, -76, -2071, 187, 124, 114, 254
0.359501, -76, -2071, 187, 124, 114, 254
0.359636, -76, -2071, 187, 124, 114, 254
0.359770, 42, -2040, 200, 252, 86, 165
0.359904, 42, -2040, 200, 252, 86, 165
0.360038, 42, -2040, 200, 252, 86, 165
0.360172, 42, -2040, 200, 252, 86, 165
0.360307, 42, -2040, 200, 252, 86, 165
0.360441, 42, -2040, 200, 252, 86, 165
0.360575, 42, -2040, 200, 252, 86, 165
0.360709, -29, -2031, 45, 324, 99, 62
0.360843, -29, -2031, 45, 324, 99, 62
0.360978, -29, -2031, 45, 324, 99, 62
0.361107, -29, -2031, 45, 324, 99, 62
0.361241, -29, -2031, 45, 324, 99, 62
0.361375, -29, -2031, 45, 324, 99, 62
0.361510, -29, -2031, 45, 324, 99, 62
0.361644, -29, -2031, 45, 324, 99, 62
0.361783, -12, -2053, 40, 367, 142, 27
0.361921, -12, -2053, 40, 367, 142, 27
0.362055, -12, -2053, 40, 367, 142, 27
0.362189, -12, -2053, 40, 367, 142, 27
0.362323, -12, -2053, 40, 367, 142, 27
0.362457, -12, -2053, 40, 367, 142, 27
0.362591, -12, -2053, 40, 367, 142, 27
0.362725, 236, -2047, 128, 446, 192, -71
0.362860, 236, -2047, 128, 446, 192, -71
0.362994, 236, -2047, 128, 446, 192, -71
0.363128, 236, -2047, 128, 446, 192, -71
0.363262, 236, -2047, 128, 446, 192, -71
0.363396, 236, -2047, 128, 446, 192, -71
0.363530, 236, -2047, 128, 446, 192, -71
0.363664, 236, -2047, 128, 446, 192, -71
0.363799, 239, -2043, 141, 536, 248, -304
0.363933, 239, -2043, 141, 536, 248, -304
0.364067, 239, -2043, 141, 536, 248, -304
0.364201, 239, -2043, 141, 536, 248, -304
0.364336, 239, -2043, 141, 536, 248, -304
0.364470, 239, -2043, 141, 536, 248, -304
0.364604, 239, -2043, 141, 536, 248, -304
0.364738, 239, -2043, 141, 536, 248, -304
0.364872, -209, -2074, 100, 614, 328, -406
0.365006, -209, -2074, 100, 614, 328, -406
0.365140, -209, -2074, 100, 614, 328, -406
0.365274, -209, -2074, 100, 614, 328, -406
0.365408, -209, -2074, 100, 614, 328, -406
0.365542, -209, -2074, 100, 614, 328, -406
0.365676, -209, -2074, 100, 614, 328, -406
0.365810, -470, -2082, 25, 683, 401, -193
0.365945, -470, -2082, 25, 683, 401, -193
0.366079, -470, -2082, 25, 683, 401, -193
0.366213, -470, -2082, 25, 683, 401, -193
0.366347, -470, -2082, 25, 683, 401, -193
0.366481, -470, -2082, 25, 683, 401, -193
0.366615, -470, -2082, 25, 683, 401, -193
0.366749, -470, -2082, 25, 683, 401, -193
0.366883, -256, -2056, -24, 713, 395, 53
0.367018, -256, -2056, -24, 713, 395, 53
0.367152, -256, -2056, -24, 713, 395, 53
0.367286, -256, -2056, -24, 713, 395, 53
0.367420, -256, -2056, -24, 713, 395, 53
0.367554, -256, -2056, -24, 713, 395, 53
0.367688, -256, -2056, -24, 713, 395, 53
0.367822, -163, -2058, -34, 691, 317, 95
0.367957, -163, -2058, -34, 691, 317, 95
0.368091, -163, -2058, -34, 691, 317, 95
0.368225, -163, -2058, -34, 691, 317, 95
0.368359, -163, -2058, -34, 691, 317, 95
0.368493, -163, -2058, -34, 691, 317, 95
0.368627, -163, -2058, -34, 691, 317, 95
0.368761, -163, -2058, -34, 691, 317, 95
0.368895, -380, -2052, -92, 647, 242, 147
0.369030, -380, -2052, -92, 647, 242, 147
0.369164, -380, -2052, -92, 647, 242, 147
0.369298, -380, -2052, -92, 647, 242, 147
0.369432, -380, -2052, -92, 647, 242, 147
0.369566, -380, -2052, -92, 647, 242, 147
0.369700, -380, -2052, -92, 647, 242, 147
0.369834, -391, -2017, -122, 586, 178, 344
0.369969, -391, -2017, -122, 586, 178, 344
0.370103, -391, -2017, -122, 586, 178, 344
0.370237, -391, -2017, -122, 586, 178, 344
0.370371, -391, -2017, -122, 586, 178, 344
0.370505, -391, -2017, -122, 586, 178, 344
0.370639, -391, -2017, -122, 586, 178, 344
0.370773, -391, -2017, -122, 586, 178, 344
0.370907, -249, -2033, -88, 509, 121, 503
0.371042, -249, -2033, -88, 509, 121, 503
0.371176, -249, -2033, -88, 509, 121, 503
0.371310, -249, -2033, -88, 509, 121, 503
0.371444, -249, -2033, -88, 509, 121, 503
0.371578, -249, -2033, -88, 509, 121, 503
0.371712, -249, -2033, -88, 509, 121, 503
0.371846, -259, -2072, -43, 436, 83, 592
0.371981, -259, -2072, -43, 436, 83, 592
0.372115, -259, -2072, -43, 436, 83, 592
0.372249, -259, -2072, -43, 436, 83, 592
0.372383, -259, -2072, -43, 436, 83, 592
0.372517, -259, -2072, -43, 436, 83, 592
0.372652, -259, -2072, -43, 436, 83, 592
0.372786, -259, -2072, -43, 436, 83, 592
0.372920, -283, -2065, -5, 411, 65, 703
0.373054, -283, -2065, -5, 411, 65, 703
0.373188, -283, -2065, -5, 411, 65, 703
0.373322, -283, -2065, -5, 411, 65, 703
0.373456, -283, -2065, -5, 411, 65, 703
0.373590, -283, -2065, -5, 411, 65, 703
0.373724, -283, -2065, -5, 411, 65, 703
0.373858, -283, -2065, -5, 411, 65, 703
0.373992, -175, -2047, -28, 394, 75, 813
0.374127, -175, -2047, -28, 394, 75, 813
0.374261, -175, -2047, -28, 394, 75, 813
0.374395, -175, -2047, -28, 394, 75, 813
0.374529, -175, -2047, -28, 394, 75, 813
0.374663, -175, -2047, -28, 394, 75, 813
0.374797, -175, -2047, -28, 394, 75, 813
0.374931, 63, -2047, -62, 337, 95, 816
0.375074, 63, -2047, -62, 337, 95, 816
0.375209, 63, -2047, -62, 337, 95, 816
0.375343, 63, -2047, -62, 337, 95, 816
0.375477, 63, -2047, -62, 337, 95, 816
0.375611, 63, -2047, -62, 337, 95, 816
0.375745, 63, -2047, -62, 337, 95, 816
0.375879, 63, -2047, -62, 337, 95, 816
0.376013, 256, -2052, -29, 292, 116, 659
0.376149, 256, -2052, -29, 292, 116, 659
0.376283, 256, -2052, -29, 292, 116, 659
0.376417, 256, -2052, -29, 292, 116, 659
0.376551, 256, -2052, -29, 292, 116, 659
0.376685, 256, -2052, -29, 292, 116, 659
0.376819, 256, -2052, -29, 292, 116, 659
0.376953, 240, -2064, 39, 298, 179, 441
0.377087, 240, -2064, 39, 298, 179, 441
0.377221, 240, -2064, 39, 298, 179, 441
0.377355, 240, -2064, 39, 298, 179, 441
0.377489, 240, -2064, 39, 298, 179, 441
0.377623, 240, -2064, 39, 298, 179, 441
0.377757, 240, -2064, 39, 298, 179, 441
0.377891, 240, -2064, 39, 298, 179, 441
0.378025, 161, -2073, 79, 328, 279, 283
0.378159, 161, -2073, 79, 328, 279, 283
0.378293, 161, -2073, 79, 328, 279, 283
0.378427, 161, -2073, 79, 328, 279, 283
0.378561, 161, -2073, 79, 328, 279, 283
0.378695, 161, -2073, 79, 328, 279, 283
0.378829, 161, -2073, 79, 328, 279, 283
0.378963, 68, -2063, 78, 364, 370, 194
