Time, ax, ay, az, gx, gy, gz
0.000018, 425, -2033, 132, -22, 620, -911
0.000187, 425, -2033, 132, -22, 620, -911
0.000327, 425, -2033, 132, -22, 620, -911
0.000465, 425, -2033, 132, -22, 620, -911
0.000603, 425, -2033, 132, -22, 620, -911
0.000742, 425, -2033, 132, -22, 620, -911
0.000876, 425, -2033, 132, -22, 620, -911
0.001014, 282, -2045, 336, 33, 677, -1217
0.001156, 282, -2045, 336, 33, 677, -1217
0.001295, 282, -2045, 336, 33, 677, -1217
0.001433, 282, -2045, 336, 33, 677, -1217
0.001571, 282, -2045, 336, 33, 677, -1217
0.001709, 282, -2045, 336, 33, 677, -1217
0.001847, 282, -2045, 336, 33, 677, -1217
0.001986, -159, -2083, 301, 203, 840, -1310
0.002127, -159, -2083, 301, 203, 840, -1310
0.002266, -159, -2083, 301, 203, 840, -1310
0.002404, -159, -2083, 301, 203, 840, -1310
0.002542, -159, -2083, 301, 203, 840, -1310
0.002680, -159, -2083, 301, 203, 840, -1310
0.002819, -159, -2083, 301, 203, 840, -1310
0.002957, -531, -2071, 117, 317, 978, -1080
0.003096, -531, -2071, 117, 317, 978, -1080
0.003234, -531, -2071, 117, 317, 978, -1080
0.003374, -531, -2071, 117, 317, 978, -1080
0.003512, -531, -2071, 117, 317, 978, -1080
0.003651, -531, -2071, 117, 317, 978, -1080
0.003789, -531, -2071, 117, 317, 978, -1080
0.003927, -531, -2071, 117, 317, 978, -1080
0.004066, -91, -2054, 87, 328, 933, -804
0.004207, -91, -2054, 87, 328, 933, -804
0.004346, -91, -2054, 87, 328, 933, -804
0.004484, -91, -2054, 87, 328, 933, -804
0.004622, -91, -2054, 87, 328, 933, -804
0.004761, -91, -2054, 87, 328, 933, -804
0.004899, -91, -2054, 87, 328, 933, -804
0.005037, 541, -2088, 179, 351, 763, -959
0.005179, 541, -2088, 179, 351, 763, -959
0.005318, 541, -2088, 179, 351, 763, -959
0.005457, 541, -2088, 179, 351, 763, -959
0.005596, 541, -2088, 179, 351, 763, -959
0.005735, 541, -2088, 179, 351, 763, -959
0.005873, 541, -2088, 179, 351, 763, -959
0.006010, 551, -2102, 432, 461, 692, -1402
0.006152, 551, -2102, 432, 461, 692, -1402
0.006290, 551, -2102, 432, 461, 692, -1402
0.006429, 551, -2102, 432, 461, 692, -1402
0.006567, 551, -2102, 432, 461, 692, -1402
0.006706, 551, -2102, 432, 461, 692, -1402
0.006843, 551, -2102, 432, 461, 692, -1402
0.006981, 551, -2102, 432, 461, 692, -1402
0.007120, 138, -2090, 562, 680, 839, -1676
0.007260, 138, -2090, 562, 680, 839, -1676
0.007400, 138, -2090, 562, 680, 839, -1676
0.007539, 138, -2090, 562, 680, 839, -1676
0.007676, 138, -2090, 562, 680, 839, -1676
0.007813, 138, -2090, 562, 680, 839, -1676
0.007950, 138, -2090, 562, 680, 839, -1676
0.008089, -150, -2061, 72, 732, 1114, -1634
0.008231, -150, -2061, 72, 732, 1114, -1634
0.008368, -150, -2061, 72, 732, 1114, -1634
0.008505, -150, -2061, 72, 732, 1114, -1634
0.008643, -150, -2061, 72, 732, 1114, -1634
0.008780, -150, -2061, 72, 732, 1114, -1634
0.008918, -150, -2061, 72, 732, 1114, -1634
0.009055, 52, -2013, -393, 461, 1273, -1525
0.009197, 52, -2013, -393, 461, 1273, -1525
0.009334, 52, -2013, -393, 461, 1273, -1525
0.009471, 52, -2013, -393, 461, 1273, -1525
0.009609, 52, -2013, -393, 461, 1273, -1525
0.009746, 52, -2013, -393, 461, 1273, -1525
0.009883, 52, -2013, -393, 461, 1273, -1525
0.010021, 52, -2013, -393, 461, 1273, -1525
0.010158, 148, -2043, -483, 188, 1231, -1604
0.010300, 148, -2043, -483, 188, 1231, -1604
0.010437, 148, -2043, -483, 188, 1231, -1604
0.010574, 148, -2043, -483, 188, 1231, -1604
0.010711, 148, -2043, -483, 188, 1231, -1604
0.010849, 148, -2043, -483, 188, 1231, -1604
0.010986, 148, -2043, -483, 188, 1231, -1604
0.011123, -195, -2065, -539, -81, 1170, -1654
0.011265, -195, -2065, -539, -81, 1170, -1654
0.011404, -195, -2065, -539, -81, 1170, -1654
0.011541, -195, -2065, -539, -81, 1170, -1654
0.011679, -195, -2065, -539, -81, 1170, -1654
0.011817, -195, -2065, -539, -81, 1170, -1654
0.011955, -195, -2065, -539, -81, 1170, -1654
0.012093, -309, -2044, -172, -404, 1151, -1487
0.012234, -309, -2044, -172, -404, 1151, -1487
0.012373, -309, -2044, -172, -404, 1151, -1487
0.012511, -309, -2044, -172, -404, 1151, -1487
0.012649, -309, -2044, -172, -404, 1151, -1487
0.012787, -309, -2044, -172, -404, 1151, -1487
0.012925, -309, -2044, -172, -404, 1151, -1487
0.013092, -32, -2065, 440, -459, 1107, -1373
0.013236, -32, -2065, 440, -459, 1107, -1373
0.013374, -32, -2065, 440, -459, 1107, -1373
0.013513, -32, -2065, 440, -459, 1107, -1373
0.013650, -32, -2065, 440, -459, 1107, -1373
0.013788, -32, -2065, 440, -459, 1107, -1373
0.013926, -32, -2065, 440, -459, 1107, -1373
0.014064, -32, -2065, 440, -459, 1107, -1373
0.014201, -112, -2028, 523, -299, 1105, -1440
0.014343, -112, -2028, 523, -299, 1105, -1440
0.014481, -112, -2028, 523, -299, 1105, -1440
0.014618, -112, -2028, 523, -299, 1105, -1440
0.014756, -112, -2028, 523, -299, 1105, -1440
0.014895, -112, -2028, 523, -299, 1105, -1440
0.015033, -112, -2028, 523, -299, 1105, -1440
0.015171, -873, -1981, 100, -270, 1170, -1279
0.015313, -873, -1981, 100, -270, 1170, -1279
0.015452, -873, -1981, 100, -270, 1170, -1279
0.015590, -873, -1981, 100, -270, 1170, -1279
0.015728, -873, -1981, 100, -270, 1170, -1279
0.015866, -873, -1981, 100, -270, 1170, -1279
0.016004, -873, -1981, 100, -270, 1170, -1279
0.016142, -1219, -2023, -296, -439, 1137, -646
0.016284, -1219, -2023, -296, -439, 1137, -646
0.016422, -1219, -2023, -296, -439, 1137, -646
0.016559, -1219, -2023, -296, -439, 1137, -646
0.016698, -1219, -2023, -296, -439, 1137, -646
0.016835, -1219, -2023, -296, -439, 1137, -646
0.016973, -1219, -2023, -296, -439, 1137, -646
0.017111, -1219, -2023, -296, -439, 1137, -646
0.017249, -490, -2055, -263, -630, 905, -83
0.017390, -490, -2055, -263, -630, 905, -83
0.017529, -490, -2055, -263, -630, 905, -83
0.017666, -490, -2055, -263, -630, 905, -83
0.017804, -490, -2055, -263, -630, 905, -83
0.017942, -490, -2055, -263, -630, 905, -83
0.018080, -490, -2055, -263, -630, 905, -83
0.018217, 242, -2036, -54, -711, 625, -124
0.018359, 242, -2036, -54, -711, 625, -124
0.018497, 242, -2036, -54, -711, 625, -124
0.018635, 242, -2036, -54, -711, 625, -124
0.018773, 242, -2036, -54, -711, 625, -124
0.018911, 242, -2036, -54, -711, 625, -124
0.019048, 242, -2036, -54, -711, 625, -124
0.019186, 52, -2025, 68, -730, 529, -439
0.019327, 52, -2025, 68, -730, 529, -439
0.019466, 52, -2025, 68, -730, 529, -439
0.019604, 52, -2025, 68, -730, 529, -439
0.019741, 52, -2025, 68, -730, 529, -439
0.019878, 52, -2025, 68, -730, 529, -439
0.020016, 52, -2025, 68, -730, 529, -439
0.020154, 52, -2025, 68, -730, 529, -439
0.020291, -398, -2054, 206, -695, 622, -448
0.020432, -398, -2054, 206, -695, 622, -448
0.020571, -398, -2054, 206, -695, 622, -448
0.020708, -398, -2054, 206, -695, 622, -448
0.020846, -398, -2054, 206, -695, 622, -448
0.020984, -398, -2054, 206, -695, 622, -448
0.021121, -398, -2054, 206, -695, 622, -448
0.021258, -49, -2081, 345, -560, 726, -271
0.021400, -49, -2081, 345, -560, 726, -271
0.021538, -49, -2081, 345, -560, 726, -271
0.021676, -49, -2081, 345, -560, 726, -271
0.021814, -49, -2081, 345, -560, 726, -271
0.021951, -49, -2081, 345, -560, 726, -271
0.022089, -49, -2081, 345, -560, 726, -271
0.022226, 563, -2080, 446, -347, 745, -461
0.022368, 563, -2080, 446, -347, 745, -461
0.022506, 563, -2080, 446, -347, 745, -461
0.022644, 563, -2080, 446, -347, 745, -461
0.022782, 563, -2080, 446, -347, 745, -461
0.022919, 563, -2080, 446, -347, 745, -461
0.023057, 563, -2080, 446, -347, 745, -461
0.023196, 563, -2080, 446, -347, 745, -461
0.023334, 268, -2054, 332, -154, 765, -902
0.023476, 268, -2054, 332, -154, 765, -902
0.023614, 268, -2054, 332, -154, 765, -902
0.023751, 268, -2054, 332, -154, 765, -902
0.023889, 268, -2054, 332, -154, 765, -902
0.024026, 268, -2054, 332, -154, 765, -902
0.024163, 268, -2054, 332, -154, 765, -902
0.024300, -273, -2062, 54, -139, 842, -983
0.024442, -273, -2062, 54, -139, 842, -983
0.024580, -273, -2062, 54, -139, 842, -983
0.024719, -273, -2062, 54, -139, 842, -983
0.024857, -273, -2062, 54, -139, 842, -983
0.024995, -273, -2062, 54, -139, 842, -983
0.025134, -273, -2062, 54, -139, 842, -983
0.025271, -24, -2111, -14, -236, 866, -843
0.025412, -24, -2111, -14, -236, 866, -843
0.025551, -24, -2111, -14, -236, 866, -843
0.025688, -24, -2111, -14, -236, 866, -843
0.025825, -24, -2111, -14, -236, 866, -843
0.025969, -24, -2111, -14, -236, 866, -843
0.026106, -24, -2111, -14, -236, 866, -843
0.026245, -24, -2111, -14, -236, 866, -843
0.026383, 108, -2109, 154, -224, 831, -933
0.026525, 108, -2109, 154, -224, 831, -933
0.026663, 108, -2109, 154, -224, 831, -933
0.026800, 108, -2109, 154, -224, 831, -933
0.026939, 108, -2109, 154, -224, 831, -933
0.027076, 108, -2109, 154, -224, 831, -933
0.027214, 108, -2109, 154, -224, 831, -933
0.027352, -401, -2074, 379, -89, 858, -956
0.027493, -401, -2074, 379, -89, 858, -956
0.027632, -401, -2074, 379, -89, 858, -956
0.027770, -401, -2074, 379, -89, 858, -956
0.027907, -401, -2074, 379, -89, 858, -956
0.028046, -401, -2074, 379, -89, 858, -956
0.028183, -401, -2074, 379, -89, 858, -956
0.028321, -382, -2029, 579, 97, 933, -667
0.028463, -382, -2029, 579, 97, 933, -667
0.028601, -382, -2029, 579, 97, 933, -667
0.028738, -382, -2029, 579, 97, 933, -667
0.028877, -382, -2029, 579, 97, 933, -667
0.029014, -382, -2029, 579, 97, 933, -667
0.029151, -382, -2029, 579, 97, 933, -667
0.029288, -382, -2029, 579, 97, 933, -667
0.029427, 335, -2002, 651, 358, 956, -588
0.029568, 335, -2002, 651, 358, 956, -588
0.029706, 335, -2002, 651, 358, 956, -588
0.029844, 335, -2002, 651, 358, 956, -588
0.029982, 335, -2002, 651, 358, 956, -588
0.030120, 335, -2002, 651, 358, 956, -588
0.030259, 335, -2002, 651, 358, 956, -588
0.030396, 633, -2043, 453, 655, 953, -967
0.030537, 633, -2043, 453, 655, 953, -967
0.030676, 633, -2043, 453, 655, 953, -967
0.030814, 633, -2043, 453, 655, 953, -967
0.030952, 633, -2043, 453, 655, 953, -967
0.031090, 633, -2043, 453, 655, 953, -967
0.031229, 633, -2043, 453, 655, 953, -967
0.031376, 217, -2102, -166, 731, 1012, -1319
0.031513, 217, -2102, -166, 731, 1012, -1319
0.031651, 217, -2102, -166, 731, 1012, -1319
0.031789, 217, -2102, -166, 731, 1012, -1319
0.031927, 217, -2102, -166, 731, 1012, -1319
0.032064, 217, -2102, -166, 731, 1012, -1319
0.032203, 217, -2102, -166, 731, 1012, -1319
0.032341, -211, -2114, -579, 435, 1091, -1285
0.032480, -211, -2114, -579, 435, 1091, -1285
0.032618, -211, -2114, -579, 435, 1091, -1285
0.032756, -211, -2114, -579, 435, 1091, -1285
0.032895, -211, -2114, -579, 435, 1091, -1285
0.033033, -211, -2114, -579, 435, 1091, -1285
0.033171, -211, -2114, -579, 435, 1091, -1285
0.033309, -211, -2114, -579, 435, 1091, -1285
0.033447, -205, -2045, -186, 135, 1117, -1054
0.033588, -205, -2045, -186, 135, 1117, -1054
0.033726, -205, -2045, -186, 135, 1117, -1054
0.033865, -205, -2045, -186, 135, 1117, -1054
0.034002, -205, -2045, -186, 135, 1117, -1054
0.034140, -205, -2045, -186, 135, 1117, -1054
0.034277, -205, -2045, -186, 135, 1117, -1054
0.034416, 44, -1958, 197, 70, 1169, -935
0.034557, 44, -1958, 197, 70, 1169, -935
0.034696, 44, -1958, 197, 70, 1169, -935
0.034833, 44, -1958, 197, 70, 1169, -935
0.034971, 44, -1958, 197, 70, 1169, -935
0.035109, 44, -1958, 197, 70, 1169, -935
0.035248, 44, -1958, 197, 70, 1169, -935
0.035386, 582, -1979, 236, 35, 1267, -1082
0.035524, 582, -1979, 236, 35, 1267, -1082
0.035662, 582, -1979, 236, 35, 1267, -1082
0.035801, 582, -1979, 236, 35, 1267, -1082
0.035938, 582, -1979, 236, 35, 1267, -1082
0.036076, 582, -1979, 236, 35, 1267, -1082
0.036213, 582, -1979, 236, 35, 1267, -1082
0.036352, 582, -1979, 236, 35, 1267, -1082
0.036490, 862, -2076, 180, 65, 1310, -1583
0.036631, 862, -2076, 180, 65, 1310, -1583
0.036770, 862, -2076, 180, 65, 1310, -1583
0.036908, 862, -2076, 180, 65, 1310, -1583
0.037046, 862, -2076, 180, 65, 1310, -1583
0.037185, 862, -2076, 180, 65, 1310, -1583
0.037323, 862, -2076, 180, 65, 1310, -1583
0.037461, -65, -2105, -91, 139, 1370, -1979
0.037603, -65, -2105, -91, 139, 1370, -1979
0.037741, -65, -2105, -91, 139, 1370, -1979
0.037879, -65, -2105, -91, 139, 1370, -1979
0.038018, -65, -2105, -91, 139, 1370, -1979
0.038156, -65, -2105, -91, 139, 1370, -1979
0.038294, -65, -2105, -91, 139, 1370, -1979
0.038431, -1080, -2053, -110, 78, 1456, -1603
0.038570, -1080, -2053, -110, 78, 1456, -1603
0.038708, -1080, -2053, -110, 78, 1456, -1603
0.038847, -1080, -2053, -110, 78, 1456, -1603
0.038990, -1080, -2053, -110, 78, 1456, -1603
0.039129, -1080, -2053, -110, 78, 1456, -1603
0.039268, -1080, -2053, -110, 78, 1456, -1603
0.039406, -1080, -2053, -110, 78, 1456, -1603
0.039542, -809, -2046, 101, 18, 1390, -856
0.039678, -809, -2046, 101, 18, 1390, -856
0.039816, -809, -2046, 101, 18, 1390, -856
0.039954, -809, -2046, 101, 18, 1390, -856
0.040092, -809, -2046, 101, 18, 1390, -856
0.040231, -809, -2046, 101, 18, 1390, -856
0.040368, -809, -2046, 101, 18, 1390, -856
0.040505, -122, -2089, 19, -20, 1201, -567
0.040646, -122, -2089, 19, -20, 1201, -567
0.040784, -122, -2089, 19, -20, 1201, -567
0.040922, -122, -2089, 19, -20, 1201, -567
0.041059, -122, -2089, 19, -20, 1201, -567
0.041196, -122, -2089, 19, -20, 1201, -567
0.041334, -122, -2089, 19, -20, 1201, -567
0.041471, -83, -2089, -63, -131, 1026, -683
0.041608, -83, -2089, -63, -131, 1026, -683
0.041747, -83, -2089, -63, -131, 1026, -683
0.041884, -83, -2089, -63, -131, 1026, -683
0.042022, -83, -2089, -63, -131, 1026, -683
0.042159, -83, -2089, -63, -131, 1026, -683
0.042297, -83, -2089, -63, -131, 1026, -683
0.042434, -83, -2089, -63, -131, 1026, -683
0.042573, -306, -2052, 61, -185, 906, -718
0.042714, -306, -2052, 61, -185, 906, -718
0.042852, -306, -2052, 61, -185, 906, -718
0.042990, -306, -2052, 61, -185, 906, -718
0.043128, -306, -2052, 61, -185, 906, -718
0.043265, -306, -2052, 61, -185, 906, -718
0.043402, -306, -2052, 61, -185, 906, -718
0.043541, -325, -2053, 68, -204, 855, -605
0.043682, -325, -2053, 68, -204, 855, -605
0.043821, -325, -2053, 68, -204, 855, -605
0.043959, -325, -2053, 68, -204, 855, -605
0.044099, -325, -2053, 68, -204, 855, -605
0.044237, -325, -2053, 68, -204, 855, -605
0.044376, -325, -2053, 68, -204, 855, -605
0.044514, -334, -2084, -106, -316, 808, -497
0.044653, -334, -2084, -106, -316, 808, -497
0.044791, -334, -2084, -106, -316, 808, -497
0.044929, -334, -2084, -106, -316, 808, -497
0.045067, -334, -2084, -106, -316, 808, -497
0.045205, -334, -2084, -106, -316, 808, -497
0.045343, -334, -2084, -106, -316, 808, -497
0.045481, -334, -2084, -106, -316, 808, -497
0.045620, -357, -2043, -226, -492, 720, -386
0.045761, -357, -2043, -226, -492, 720, -386
0.045900, -357, -2043, -226, -492, 720, -386
0.046037, -357, -2043, -226, -492, 720, -386
0.046175, -357, -2043, -226, -492, 720, -386
0.046313, -357, -2043, -226, -492, 720, -386
0.046452, -357, -2043, -226, -492, 720, -386
0.046590, -210, -1991, -198, -686, 658, -283
0.046731, -210, -1991, -198, -686, 658, -283
0.046870, -210, -1991, -198, -686, 658, -283
0.047008, -210, -1991, -198, -686, 658, -283
0.047146, -210, -1991, -198, -686, 658, -283
0.047284, -210, -1991, -198, -686, 658, -283
0.047423, -210, -1991, -198, -686, 658, -283
0.047561, -28, -2032, 95, -802, 620, -292
0.047702, -28, -2032, 95, -802, 620, -292
0.047841, -28, -2032, 95, -802, 620, -292
0.047979, -28, -2032, 95, -802, 620, -292
0.048117, -28, -2032, 95, -802, 620, -292
0.048256, -28, -2032, 95, -802, 620, -292
0.048394, -28, -2032, 95, -802, 620, -292
0.048532, -28, -2032, 95, -802, 620, -292
0.048670, -24, -2058, 514, -663, 576, -384
0.048812, -24, -2058, 514, -663, 576, -384
0.048950, -24, -2058, 514, -663, 576, -384
0.049089, -24, -2058, 514, -663, 576, -384
0.049226, -24, -2058, 514, -663, 576, -384
0.049364, -24, -2058, 514, -663, 576, -384
0.049502, -24, -2058, 514, -663, 576, -384
0.049641, 26, -2034, 515, -413, 606, -456
0.049782, 26, -2034, 515, -413, 606, -456
0.049921, 26, -2034, 515, -413, 606, -456
0.050059, 26, -2034, 515, -413, 606, -456
0.050196, 26, -2034, 515, -413, 606, -456
0.050335, 26, -2034, 515, -413, 606, -456
0.050473, 26, -2034, 515, -413, 606, -456
0.050611, 306, -2048, 83, -353, 716, -579
0.050753, 306, -2048, 83, -353, 716, -579
0.050891, 306, -2048, 83, -353, 716, -579
0.051028, 306, -2048, 83, -353, 716, -579
0.051167, 306, -2048, 83, -353, 716, -579
0.051304, 306, -2048, 83, -353, 716, -579
0.051441, 306, -2048, 83, -353, 716, -579
0.051580, 306, -2048, 83, -353, 716, -579
0.051718, 206, -2086, -273, -460, 781, -814
0.051860, 206, -2086, -273, -460, 781, -814
0.052005, 206, -2086, -273, -460, 781, -814
0.052142, 206, -2086, -273, -460, 781, -814
0.052280, 206, -2086, -273, -460, 781, -814
0.052418, 206, -2086, -273, -460, 781, -814
0.052556, 206, -2086, -273, -460, 781, -814
0.052694, -522, -2092, -179, -555, 802, -824
0.052835, -522, -2092, -179, -555, 802, -824
0.052973, -522, -2092, -179, -555, 802, -824
0.053111, -522, -2092, -179, -555, 802, -824
0.053249, -522, -2092, -179, -555, 802, -824
0.053387, -522, -2092, -179, -555, 802, -824
0.053525, -522, -2092, -179, -555, 802, -824
0.053661, -884, -2061, 174, -558, 840, -383
0.053795, -884, -2061, 174, -558, 840, -383
0.053929, -884, -2061, 174, -558, 840, -383
0.054064, -884, -2061, 174, -558, 840, -383
0.054198, -884, -2061, 174, -558, 840, -383
0.054332, -884, -2061, 174, -558, 840, -383
0.054466, -884, -2061, 174, -558, 840, -383
0.054600, -884, -2061, 174, -558, 840, -383
0.054734, -328, -2044, 464, -473, 836, 52
0.054868, -328, -2044, 464, -473, 836, 52
0.055002, -328, -2044, 464, -473, 836, 52
0.055136, -328, -2044, 464, -473, 836, 52
0.055270, -328, -2044, 464, -473, 836, 52
0.055405, -328, -2044, 464, -473, 836, 52
0.055539, -328, -2044, 464, -473, 836, 52
0.055673, 400, -2054, 783, -234, 778, -27
0.055807, 400, -2054, 783, -234, 778, -27
0.055941, 400, -2054, 783, -234, 778, -27
0.056075, 400, -2054, 783, -234, 778, -27
0.056210, 400, -2054, 783, -234, 778, -27
0.056344, 400, -2054, 783, -234, 778, -27
0.056478, 400, -2054, 783, -234, 778, -27
0.056612, 400, -2054, 783, -234, 778, -27
0.056746, 560, -2038, 1031, 236, 758, -468
0.056881, 560, -2038, 1031, 236, 758, -468
0.057015, 560, -2038, 1031, 236, 758, -468
0.057149, 560, -2038, 1031, 236, 758, -468
0.057283, 560, -2038, 1031, 236, 758, -468
0.057417, 560, -2038, 1031, 236, 758, -468
0.057552, 560, -2038, 1031, 236, 758, -468
0.057686, 297, -2018, 856, 765, 820, -835
0.057820, 297, -2018, 856, 765, 820, -835
0.057954, 297, -2018, 856, 765, 820, -835
0.058089, 297, -2018, 856, 765, 820, -835
0.058223, 297, -2018, 856, 765, 820, -835
0.058357, 297, -2018, 856, 765, 820, -835
0.058491, 297, -2018, 856, 765, 820, -835
0.058625, 297, -2018, 856, 765, 820, -835
0.058765, -262, -2044, 68, 1012, 917, -901
0.058907, -262, -2044, 68, 1012, 917, -901
0.059045, -262, -2044, 68, 1012, 917, -901
0.059180, -262, -2044, 68, 1012, 917, -901
0.059314, -262, -2044, 68, 1012, 917, -901
0.059449, -262, -2044, 68, 1012, 917, -901
0.059583, -262, -2044, 68, 1012, 917, -901
0.059718, -799, -2083, -762, 776, 963, -559
0.059852, -799, -2083, -762, 776, 963, -559
0.059986, -799, -2083, -762, 776, 963, -559
0.060121, -799, -2083, -762, 776, 963, -559
0.060254, -799, -2083, -762, 776, 963, -559
0.060388, -799, -2083, -762, 776, 963, -559
0.060522, -799, -2083, -762, 776, 963, -559
0.060657, -799, -2083, -762, 776, 963, -559
0.060791, -520, -2077, -667, 331, 876, -36
0.060925, -520, -2077, -667, 331, 876, -36
0.061058, -520, -2077, -667, 331, 876, -36
0.061192, -520, -2077, -667, 331, 876, -36
0.061326, -520, -2077, -667, 331, 876, -36
0.061459, -520, -2077, -667, 331, 876, -36
0.061593, -520, -2077, -667, 331, 876, -36
0.061726, -520, -2077, -667, 331, 876, -36
0.061860, 343, -2024, 33, 132, 729, 96
0.061994, 343, -2024, 33, 132, 729, 96
0.062127, 343, -2024, 33, 132, 729, 96
0.062261, 343, -2024, 33, 132, 729, 96
0.062394, 343, -2024, 33, 132, 729, 96
0.062528, 343, -2024, 33, 132, 729, 96
0.062662, 343, -2024, 33, 132, 729, 96
0.062795, 976, -1991, 444, 188, 666, -353
0.062929, 976, -1991, 444, 188, 666, -353
0.063063, 976, -1991, 444, 188, 666, -353
0.063196, 976, -1991, 444, 188, 666, -353
0.063330, 976, -1991, 444, 188, 666, -353
0.063465, 976, -1991, 444, 188, 666, -353
0.063599, 976, -1991, 444, 188, 666, -353
0.063733, 976, -1991, 444, 188, 666, -353
0.063867, 1141, -2022, 683, 388, 720, -1072
0.064002, 1141, -2022, 683, 388, 720, -1072
0.064136, 1141, -2022, 683, 388, 720, -1072
0.064270, 1141, -2022, 683, 388, 720, -1072
0.064404, 1141, -2022, 683, 388, 720, -1072
0.064538, 1141, -2022, 683, 388, 720, -1072
0.064673, 1141, -2022, 683, 388, 720, -1072
0.064807, 960, -2094, 974, 853, 879, -1723
0.064964, 960, -2094, 974, 853, 879, -1723
0.065099, 960, -2094, 974, 853, 879, -1723
0.065233, 960, -2094, 974, 853, 879, -1723
0.065367, 960, -2094, 974, 853, 879, -1723
0.065502, 960, -2094, 974, 853, 879, -1723
0.065636, 960, -2094, 974, 853, 879, -1723
0.065770, 960, -2094, 974, 853, 879, -1723
0.065905, 337, -2120, 563, 1331, 1122, -2094
0.066039, 337, -2120, 563, 1331, 1122, -2094
0.066173, 337, -2120, 563, 1331, 1122, -2094
0.066307, 337, -2120, 563, 1331, 1122, -2094
0.066442, 337, -2120, 563, 1331, 1122, -2094
0.066576, 337, -2120, 563, 1331, 1122, -2094
0.066710, 337, -2120, 563, 1331, 1122, -2094
0.066844, -698, -2077, -678, 1170, 1330, -1949
0.066979, -698, -2077, -678, 1170, 1330, -1949
0.067113, -698, -2077, -678, 1170, 1330, -1949
0.067247, -698, -2077, -678, 1170, 1330, -1949
0.067382, -698, -2077, -678, 1170, 1330, -1949
0.067516, -698, -2077, -678, 1170, 1330, -1949
0.067651, -698, -2077, -678, 1170, 1330, -1949
0.067785, -698, -2077, -678, 1170, 1330, -1949
0.067919, -1122, -2061, -1282, 437, 1313, -1259
0.068054, -1122, -2061, -1282, 437, 1313, -1259
0.068188, -1122, -2061, -1282, 437, 1313, -1259
0.068322, -1122, -2061, -1282, 437, 1313, -1259
0.068456, -1122, -2061, -1282, 437, 1313, -1259
0.068590, -1122, -2061, -1282, 437, 1313, -1259
0.068725, -1122, -2061, -1282, 437, 1313, -1259
0.068859, -393, -2065, -847, -126, 1063, -642
0.068993, -393, -2065, -847, -126, 1063, -642
0.069128, -393, -2065, -847, -126, 1063, -642
0.069262, -393, -2065, -847, -126, 1063, -642
0.069396, -393, -2065, -847, -126, 1063, -642
0.069530, -393, -2065, -847, -126, 1063, -642
0.069665, -393, -2065, -847, -126, 1063, -642
0.069799, -393, -2065, -847, -126, 1063, -642
0.069933, 327, -2051, -228, -349, 794, -668
0.070068, 327, -2051, -228, -349, 794, -668
0.070202, 327, -2051, -228, -349, 794, -668
0.070336, 327, -2051, -228, -349, 794, -668
0.070470, 327, -2051, -228, -349, 794, -668
0.070604, 327, -2051, -228, -349, 794, -668
0.070739, 327, -2051, -228, -349, 794, -668
0.070873, 7, -2081, 283, -395, 651, -974
0.071007, 7, -2081, 283, -395, 651, -974
0.071141, 7, -2081, 283, -395, 651, -974
0.071276, 7, -2081, 283, -395, 651, -974
0.071410, 7, -2081, 283, -395, 651, -974
0.071545, 7, -2081, 283, -395, 651, -974
0.071679, 7, -2081, 283, -395, 651, -974
0.071813, 7, -2081, 283, -395, 651, -974
0.071947, -572, -2089, 369, -308, 640, -889
0.072082, -572, -2089, 369, -308, 640, -889
0.072216, -572, -2089, 369, -308, 640, -889
0.072350, -572, -2089, 369, -308, 640, -889
0.072485, -572, -2089, 369, -308, 640, -889
0.072619, -572, -2089, 369, -308, 640, -889
0.072753, -572, -2089, 369, -308, 640, -889
0.072888, -294, -2049, 106, -322, 650, -552
0.073022, -294, -2049, 106, -322, 650, -552
0.073156, -294, -2049, 106, -322, 650, -552
0.073290, -294, -2049, 106, -322, 650, -552
0.073425, -294, -2049, 106, -322, 650, -552
0.073559, -294, -2049, 106, -322, 650, -552
0.073693, -294, -2049, 106, -322, 650, -552
0.073827, -294, -2049, 106, -322, 650, -552
0.073962, 176, -2059, 76, -417, 533, -538
0.074096, 176, -2059, 76, -417, 533, -538
0.074230, 176, -2059, 76, -417, 533, -538
0.074365, 176, -2059, 76, -417, 533, -538
0.074499, 176, -2059, 76, -417, 533, -538
0.074633, 176, -2059, 76, -417, 533, -538
0.074767, 176, -2059, 76, -417, 533, -538
0.074902, 176, -2059, 76, -417, 533, -538
0.075036, -7, -2056, 68, -454, 382, -733
0.075170, -7, -2056, 68, -454, 382, -733
0.075305, -7, -2056, 68, -454, 382, -733
0.075439, -7, -2056, 68, -454, 382, -733
0.075574, -7, -2056, 68, -454, 382, -733
0.075708, -7, -2056, 68, -454, 382, -733
0.075843, -7, -2056, 68, -454, 382, -733
0.075977, -246, -2015, 45, -530, 355, -731
0.076111, -246, -2015, 45, -530, 355, -731
0.076246, -246, -2015, 45, -530, 355, -731
0.076380, -246, -2015, 45, -530, 355, -731
0.076514, -246, -2015, 45, -530, 355, -731
0.076648, -246, -2015, 45, -530, 355, -731
0.076782, -246, -2015, 45, -530, 355, -731
0.076917, -246, -2015, 45, -530, 355, -731
0.077051, -141, -2029, 300, -503, 414, -634
0.077185, -141, -2029, 300, -503, 414, -634
0.077319, -141, -2029, 300, -503, 414, -634
0.077460, -141, -2029, 300, -503, 414, -634
0.077595, -141, -2029, 300, -503, 414, -634
0.077729, -141, -2029, 300, -503, 414, -634
0.077864, -141, -2029, 300, -503, 414, -634
0.077998, -47, -2043, 491, -269, 500, -640
0.078132, -47, -2043, 491, -269, 500, -640
0.078266, -47, -2043, 491, -269, 500, -640
0.078401, -47, -2043, 491, -269, 500, -640
0.078535, -47, -2043, 491, -269, 500, -640
0.078669, -47, -2043, 491, -269, 500, -640
0.078803, -47, -2043, 491, -269, 500, -640
0.078938, -47, -2043, 491, -269, 500, -640
0.079072, 15, -2039, 495, -6, 585, -711
0.079206, 15, -2039, 495, -6, 585, -711
0.079340, 15, -2039, 495, -6, 585, -711
0.079475, 15, -2039, 495, -6, 585, -711
0.079609, 15, -2039, 495, -6, 585, -711
0.079744, 15, -2039, 495, -6, 585, -711
0.079878, 15, -2039, 495, -6, 585, -711
0.080012, -26, -2070, 423, 209, 632, -799
0.080146, -26, -2070, 423, 209, 632, -799
0.080281, -26, -2070, 423, 209, 632, -799
0.080415, -26, -2070, 423, 209, 632, -799
0.080549, -26, -2070, 423, 209, 632, -799
0.080683, -26, -2070, 423, 209, 632, -799
0.080817, -26, -2070, 423, 209, 632, -799
0.080952, -26, -2070, 423, 209, 632, -799
0.081086, -265, -2087, 297, 342, 640, -802
0.081220, -265, -2087, 297, 342, 640, -802
0.081354, -265, -2087, 297, 342, 640, -802
0.081488, -265, -2087, 297, 342, 640, -802
0.081623, -265, -2087, 297, 342, 640, -802
0.081757, -265, -2087, 297, 342, 640, -802
0.081891, -265, -2087, 297, 342, 640, -802
0.082025, -352, -2070, 348, 427, 612, -684
0.082160, -352, -2070, 348, 427, 612, -684
0.082294, -352, -2070, 348, 427, 612, -684
0.082428, -352, -2070, 348, 427, 612, -684
0.082562, -352, -2070, 348, 427, 612, -684
0.082696, -352, -2070, 348, 427, 612, -684
0.082830, -352, -2070, 348, 427, 612, -684
0.082965, -352, -2070, 348, 427, 612, -684
0.083099, -235, -2021, 509, 607, 544, -585
0.083233, -235, -2021, 509, 607, 544, -585
0.083368, -235, -2021, 509, 607, 544, -585
0.083502, -235, -2021, 509, 607, 544, -585
0.083636, -235, -2021, 509, 607, 544, -585
0.083770, -235, -2021, 509, 607, 544, -585
0.083904, -235, -2021, 509, 607, 544, -585
0.084039, -76, -1986, 558, 855, 477, -583
0.084173, -76, -1986, 558, 855, 477, -583
0.084307, -76, -1986, 558, 855, 477, -583
0.084441, -76, -1986, 558, 855, 477, -583
0.084576, -76, -1986, 558, 855, 477, -583
0.084710, -76, -1986, 558, 855, 477, -583
0.084844, -76, -1986, 558, 855, 477, -583
0.084978, -76, -1986, 558, 855, 477, -583
0.085112, -76, -1994, 656, 1127, 458, -648
0.085247, -76, -1994, 656, 1127, 458, -648
0.085381, -76, -1994, 656, 1127, 458, -648
0.085515, -76, -1994, 656, 1127, 458, -648
0.085650, -76, -1994, 656, 1127, 458, -648
0.085784, -76, -1994, 656, 1127, 458, -648
0.085918, -76, -1994, 656, 1127, 458, -648
0.086052, -76, -1994, 656, 1127, 458, -648
0.086186, -361, -2028, 364, 1395, 499, -624
0.086320, -361, -2028, 364, 1395, 499, -624
0.086455, -361, -2028, 364, 1395, 499, -624
0.086589, -361, -2028, 364, 1395, 499, -624
0.086723, -361, -2028, 364, 1395, 499, -624
0.086857, -361, -2028, 364, 1395, 499, -624
0.086991, -361, -2028, 364, 1395, 499, -624
0.087126, -686, -2096, -477, 1302, 535, -365
0.087260, -686, -2096, -477, 1302, 535, -365
0.087394, -686, -2096, -477, 1302, 535, -365
0.087529, -686, -2096, -477, 1302, 535, -365
0.087663, -686, -2096, -477, 1302, 535, -365
0.087797, -686, -2096, -477, 1302, 535, -365
0.087931, -686, -2096, -477, 1302, 535, -365
0.088065, -686, -2096, -477, 1302, 535, -365
0.088200, -691, -2111, -648, 892, 446, 69
0.088334, -691, -2111, -648, 892, 446, 69
0.088468, -691, -2111, -648, 892, 446, 69
0.088602, -691, -2111, -648, 892, 446, 69
0.088737, -691, -2111, -648, 892, 446, 69
0.088871, -691, -2111, -648, 892, 446, 69
0.089005, -691, -2111, -648, 892, 446, 69
0.089139, 22, -2063, 0, 697, 280, 336
0.089273, 22, -2063, 0, 697, 280, 336
0.089408, 22, -2063, 0, 697, 280, 336
0.089542, 22, -2063, 0, 697, 280, 336
0.089676, 22, -2063, 0, 697, 280, 336
0.089810, 22, -2063, 0, 697, 280, 336
0.089945, 22, -2063, 0, 697, 280, 336
0.090079, 22, -2063, 0, 697, 280, 336
0.090213, 666, -2042, 416, 726, 277, 65
0.090347, 666, -2042, 416, 726, 277, 65
0.090486, 666, -2042, 416, 726, 277, 65
0.090621, 666, -2042, 416, 726, 277, 65
0.090755, 666, -2042, 416, 726, 277, 65
0.090889, 666, -2042, 416, 726, 277, 65
0.091023, 666, -2042, 416, 726, 277, 65
0.091158, 26, -2055, 89, 660, 476, -363
0.091292, 26, -2055, 89, 660, 476, -363
0.091427, 26, -2055, 89, 660, 476, -363
0.091561, 26, -2055, 89, 660, 476, -363
0.091695, 26, -2055, 89, 660, 476, -363
0.091829, 26, -2055, 89, 660, 476, -363
0.091964, 26, -2055, 89, 660, 476, -363
0.092098, 26, -2055, 89, 660, 476, -363
0.092232, -1125, -2059, -610, 320, 687, -147
0.092366, -1125, -2059, -610, 320, 687, -147
0.092501, -1125, -2059, -610, 320, 687, -147
0.092635, -1125, -2059, -610, 320, 687, -147
0.092769, -1125, -2059, -610, 320, 687, -147
0.092903, -1125, -2059, -610, 320, 687, -147
0.093037, -1125, -2059, -610, 320, 687, -147
0.093172, -1353, -2042, -749, -179, 701, 659
0.093306, -1353, -2042, -749, -179, 701, 659
0.093441, -1353, -2042, -749, -179, 701, 659
0.093575, -1353, -2042, -749, -179, 701, 659
0.093709, -1353, -2042, -749, -179, 701, 659
0.093843, -1353, -2042, -749, -179, 701, 659
0.093977, -1353, -2042, -749, -179, 701, 659
0.094112, -1353, -2042, -749, -179, 701, 659
0.094246, -719, -2036, -329, -518, 466, 1295
0.094380, -719, -2036, -329, -518, 466, 1295
0.094514, -719, -2036, -329, -518, 466, 1295
0.094649, -719, -2036, -329, -518, 466, 1295
0.094783, -719, -2036, -329, -518, 466, 1295
0.094917, -719, -2036, -329, -518, 466, 1295
0.095051, -719, -2036, -329, -518, 466, 1295
0.095185, -71, -2037, 40, -668, 174, 1405
0.095320, -71, -2037, 40, -668, 174, 1405
0.095455, -71, -2037, 40, -668, 174, 1405
0.095588, -71, -2037, 40, -668, 174, 1405
0.095722, -71, -2037, 40, -668, 174, 1405
0.095855, -71, -2037, 40, -668, 174, 1405
0.095989, -71, -2037, 40, -668, 174, 1405
0.096123, -71, -2037, 40, -668, 174, 1405
0.096256, 369, -2031, 318, -696, 3, 1162
0.096390, 369, -2031, 318, -696, 3, 1162
0.096523, 369, -2031, 318, -696, 3, 1162
0.096657, 369, -2031, 318, -696, 3, 1162
0.096791, 369, -2031, 318, -696, 3, 1162
0.096924, 369, -2031, 318, -696, 3, 1162
0.097058, 369, -2031, 318, -696, 3, 1162
0.097191, 369, -2031, 318, -696, 3, 1162
0.097325, 604, -2035, 571, -530, -13, 755
0.097458, 604, -2035, 571, -530, -13, 755
0.097592, 604, -2035, 571, -530, -13, 755
0.097726, 604, -2035, 571, -530, -13, 755
0.097859, 604, -2035, 571, -530, -13, 755
0.097993, 604, -2035, 571, -530, -13, 755
0.098126, 604, -2035, 571, -530, -13, 755
0.098260, 552, -2044, 727, -179, 115, 337
0.098393, 552, -2044, 727, -179, 115, 337
0.098522, 552, -2044, 727, -179, 115, 337
0.098652, 552, -2044, 727, -179, 115, 337
0.098786, 552, -2044, 727, -179, 115, 337
0.098920, 552, -2044, 727, -179, 115, 337
0.099054, 552, -2044, 727, -179, 115, 337
0.099187, 552, -2044, 727, -179, 115, 337
0.099321, 98, -2036, 558, 204, 316, 91
0.099456, 98, -2036, 558, 204, 316, 91
0.099590, 98, -2036, 558, 204, 316, 91
0.099724, 98, -2036, 558, 204, 316, 91
0.099859, 98, -2036, 558, 204, 316, 91
0.099993, 98, -2036, 558, 204, 316, 91
0.100127, 98, -2036, 558, 204, 316, 91
0.100262, -474, -2060, 73, 358, 501, 214
0.100396, -474, -2060, 73, 358, 501, 214
0.100530, -474, -2060, 73, 358, 501, 214
0.100665, -474, -2060, 73, 358, 501, 214
0.100799, -474, -2060, 73, 358, 501, 214
0.100933, -474, -2060, 73, 358, 501, 214
0.101067, -474, -2060, 73, 358, 501, 214
0.101202, -474, -2060, 73, 358, 501, 214
0.101336, -397, -2099, -76, 253, 594, 563
0.101470, -397, -2099, -76, 253, 594, 563
0.101605, -397, -2099, -76, 253, 594, 563
0.101734, -397, -2099, -76, 253, 594, 563
0.101864, -397, -2099, -76, 253, 594, 563
0.102002, -397, -2099, -76, 253, 594, 563
0.102137, -397, -2099, -76, 253, 594, 563
0.102271, -397, -2099, -76, 253, 594, 563
0.102406, -6, -2063, 224, 169, 604, 682
0.102542, -6, -2063, 224, 169, 604, 682
0.102678, -6, -2063, 224, 169, 604, 682
0.102813, -6, -2063, 224, 169, 604, 682
0.102949, -6, -2063, 224, 169, 604, 682
0.103089, -6, -2063, 224, 169, 604, 682
0.103230, -6, -2063, 224, 169, 604, 682
0.103381, -14, -2024, 391, 214, 614, 572
0.103517, -14, -2024, 391, 214, 614, 572
0.103666, -14, -2024, 391, 214, 614, 572
0.103803, -14, -2024, 391, 214, 614, 572
0.103937, -14, -2024, 391, 214, 614, 572
0.104072, -14, -2024, 391, 214, 614, 572
0.104206, -14, -2024, 391, 214, 614, 572
0.104340, -36, -2033, 266, 299, 592, 484
0.104475, -36, -2033, 266, 299, 592, 484
0.104609, -36, -2033, 266, 299, 592, 484
0.104744, -36, -2033, 266, 299, 592, 484
0.104878, -36, -2033, 266, 299, 592, 484
0.105013, -36, -2033, 266, 299, 592, 484
0.105147, -36, -2033, 266, 299, 592, 484
0.105281, -36, -2033, 266, 299, 592, 484
0.105416, 9, -2045, -94, 315, 512, 387
0.105550, 9, -2045, -94, 315, 512, 387
0.105684, 9, -2045, -94, 315, 512, 387
0.105819, 9, -2045, -94, 315, 512, 387
0.105953, 9, -2045, -94, 315, 512, 387
0.106087, 9, -2045, -94, 315, 512, 387
0.106221, 9, -2045, -94, 315, 512, 387
0.106356, -315, -2067, -408, 164, 424, 348
0.106490, -315, -2067, -408, 164, 424, 348
0.106624, -315, -2067, -408, 164, 424, 348
0.106759, -315, -2067, -408, 164, 424, 348
0.106893, -315, -2067, -408, 164, 424, 348
0.107027, -315, -2067, -408, 164, 424, 348
0.107162, -315, -2067, -408, 164, 424, 348
0.107296, -315, -2067, -408, 164, 424, 348
0.107431, -681, -2076, -465, -86, 286, 587
0.107566, -681, -2076, -465, -86, 286, 587
0.107700, -681, -2076, -465, -86, 286, 587
0.107834, -681, -2076, -465, -86, 286, 587
0.107968, -681, -2076, -465, -86, 286, 587
0.108102, -681, -2076, -465, -86, 286, 587
0.108236, -681, -2076, -465, -86, 286, 587
0.108370, -515, -2054, -383, -370, 93, 970
0.108504, -515, -2054, -383, -370, 93, 970
0.108639, -515, -2054, -383, -370, 93, 970
0.108773, -515, -2054, -383, -370, 93, 970
0.108907, -515, -2054, -383, -370, 93, 970
0.109041, -515, -2054, -383, -370, 93, 970
0.109175, -515, -2054, -383, -370, 93, 970
0.109309, -515, -2054, -383, -370, 93, 970
0.109443, -60, -2042, -97, -608, -75, 1135
0.109578, -60, -2042, -97, -608, -75, 1135
0.109712, -60, -2042, -97, -608, -75, 1135
0.109846, -60, -2042, -97, -608, -75, 1135
0.109981, -60, -2042, -97, -608, -75, 1135
0.110115, -60, -2042, -97, -608, -75, 1135
0.110249, -60, -2042, -97, -608, -75, 1135
0.110383, -60, -2042, -97, -608, -75, 1135
0.110517, 237, -2058, 203, -681, -170, 1011
0.110652, 237, -2058, 203, -681, -170, 1011
0.110786, 237, -2058, 203, -681, -170, 1011
0.110921, 237, -2058, 203, -681, -170, 1011
0.111055, 237, -2058, 203, -681, -170, 1011
0.111189, 237, -2058, 203, -681, -170, 1011
0.111323, 237, -2058, 203, -681, -170, 1011
0.111458, 353, -2063, 305, -629, -169, 755
0.111592, 353, -2063, 305, -629, -169, 755
0.111727, 353, -2063, 305, -629, -169, 755
0.111861, 353, -2063, 305, -629, -169, 755
0.111995, 353, -2063, 305, -629, -169, 755
0.112129, 353, -2063, 305, -629, -169, 755
0.112264, 353, -2063, 305, -629, -169, 755
0.112398, 353, -2063, 305, -629, -169, 755
0.112532, 313, -2054, 389, -511, -88, 503
0.112666, 313, -2054, 389, -511, -88, 503
0.112801, 313, -2054, 389, -511, -88, 503
0.112935, 313, -2054, 389, -511, -88, 503
0.113069, 313, -2054, 389, -511, -88, 503
0.113204, 313, -2054, 389, -511, -88, 503
0.113338, 313, -2054, 389, -511, -88, 503
0.113472, 216, -2061, 431, -333, 52, 342
0.113606, 216, -2061, 431, -333, 52, 342
0.113741, 216, -2061, 431, -333, 52, 342
0.113875, 216, -2061, 431, -333, 52, 342
0.114009, 216, -2061, 431, -333, 52, 342
0.114143, 216, -2061, 431, -333, 52, 342
0.114278, 216, -2061, 431, -333, 52, 342
0.114412, 216, -2061, 431, -333, 52, 342
0.114546, 261, -2062, 390, -174, 219, 238
0.114680, 261, -2062, 390, -174, 219, 238
0.114815, 261, -2062, 390, -174, 219, 238
0.114949, 261, -2062, 390, -174, 219, 238
0.115083, 261, -2062, 390, -174, 219, 238
0.115217, 261, -2062, 390, -174, 219, 238
0.115352, 261, -2062, 390, -174, 219, 238
0.115486, 518, -2031, 424, -29, 350, 47
0.115621, 518, -2031, 424, -29, 350, 47
0.115755, 518, -2031, 424, -29, 350, 47
0.115890, 518, -2031, 424, -29, 350, 47
0.116024, 518, -2031, 424, -29, 350, 47
0.116158, 518, -2031, 424, -29, 350, 47
0.116293, 518, -2031, 424, -29, 350, 47
0.116427, 518, -2031, 424, -29, 350, 47
0.116561, 661, -2031, 515, 200, 463, -323
0.116707, 661, -2031, 515, 200, 463, -323
0.116843, 661, -2031, 515, 200, 463, -323
0.116977, 661, -2031, 515, 200, 463, -323
0.117111, 661, -2031, 515, 200, 463, -323
0.117246, 661, -2031, 515, 200, 463, -323
0.117380, 661, -2031, 515, 200, 463, -323
0.117514, 397, -2065, 536, 478, 619, -695
0.117648, 397, -2065, 536, 478, 619, -695
0.117783, 397, -2065, 536, 478, 619, -695
0.117917, 397, -2065, 536, 478, 619, -695
0.118051, 397, -2065, 536, 478, 619, -695
0.118186, 397, -2065, 536, 478, 619, -695
0.118320, 397, -2065, 536, 478, 619, -695
0.118454, 397, -2065, 536, 478, 619, -695
0.118588, -85, -2072, 318, 648, 786, -810
0.118722, -85, -2072, 318, 648, 786, -810
0.118857, -85, -2072, 318, 648, 786, -810
0.118991, -85, -2072, 318, 648, 786, -810
0.119125, -85, -2072, 318, 648, 786, -810
0.119260, -85, -2072, 318, 648, 786, -810
0.119395, -85, -2072, 318, 648, 786, -810
0.119529, -460, -2062, -25, 617, 887, -621
0.119663, -460, -2062, -25, 617, 887, -621
0.119797, -460, -2062, -25, 617, 887, -621
0.119932, -460, -2062, -25, 617, 887, -621
0.120066, -460, -2062, -25, 617, 887, -621
0.120200, -460, -2062, -25, 617, 887, -621
0.120334, -460, -2062, -25, 617, 887, -621
0.120469, -460, -2062, -25, 617, 887, -621
0.120603, -256, -2036, -163, 490, 860, -338
0.120737, -256, -2036, -163, 490, 860, -338
0.120871, -256, -2036, -163, 490, 860, -338
0.121005, -256, -2036, -163, 490, 860, -338
0.121140, -256, -2036, -163, 490, 860, -338
0.121274, -256, -2036, -163, 490, 860, -338
0.121408, -256, -2036, -163, 490, 860, -338
0.121542, 274, -2034, -162, 381, 721, -353
0.121677, 274, -2034, -162, 381, 721, -353
0.121811, 274, -2034, -162, 381, 721, -353
0.121945, 274, -2034, -162, 381, 721, -353
0.122079, 274, -2034, -162, 381, 721, -353
0.122214, 274, -2034, -162, 381, 721, -353
0.122348, 274, -2034, -162, 381, 721, -353
0.122482, 274, -2034, -162, 381, 721, -353
0.122616, -49, -2065, -284, 235, 600, -602
0.122751, -49, -2065, -284, 235, 600, -602
0.122885, -49, -2065, -284, 235, 600, -602
0.123019, -49, -2065, -284, 235, 600, -602
0.123153, -49, -2065, -284, 235, 600, -602
0.123287, -49, -2065, -284, 235, 600, -602
0.123422, -49, -2065, -284, 235, 600, -602
0.123556, -49, -2065, -284, 235, 600, -602
0.123690, -978, -2064, -483, -30, 536, -416
0.123825, -978, -2064, -483, -30, 536, -416
0.123959, -978, -2064, -483, -30, 536, -416
0.124093, -978, -2064, -483, -30, 536, -416
0.124227, -978, -2064, -483, -30, 536, -416
0.124362, -978, -2064, -483, -30, 536, -416
0.124496, -978, -2064, -483, -30, 536, -416
0.124630, -920, -2047, -422, -364, 437, 260
0.124764, -920, -2047, -422, -364, 437, 260
0.124899, -920, -2047, -422, -364, 437, 260
0.125033, -920, -2047, -422, -364, 437, 260
0.125167, -920, -2047, -422, -364, 437, 260
0.125301, -920, -2047, -422, -364, 437, 260
0.125436, -920, -2047, -422, -364, 437, 260
0.125570, -920, -2047, -422, -364, 437, 260
0.125704, -28, -2050, -73, -588, 257, 606
0.125838, -28, -2050, -73, -588, 257, 606
0.125972, -28, -2050, -73, -588, 257, 606
0.126107, -28, -2050, -73, -588, 257, 606
0.126241, -28, -2050, -73, -588, 257, 606
0.126375, -28, -2050, -73, -588, 257, 606
0.126509, -28, -2050, -73, -588, 257, 606
0.126643, 203, -2036, 165, -636, 76, 394
0.126778, 203, -2036, 165, -636, 76, 394
0.126912, 203, -2036, 165, -636, 76, 394
0.127046, 203, -2036, 165, -636, 76, 394
0.127180, 203, -2036, 165, -636, 76, 394
0.127315, 203, -2036, 165, -636, 76, 394
0.127449, 203, -2036, 165, -636, 76, 394
0.127584, 203, -2036, 165, -636, 76, 394
0.127718, -338, -2037, 181, -618, -2, 262
0.127851, -338, -2037, 181, -618, -2, 262
0.127985, -338, -2037, 181, -618, -2, 262
0.128118, -338, -2037, 181, -618, -2, 262
0.128252, -338, -2037, 181, -618, -2, 262
0.128385, -338, -2037, 181, -618, -2, 262
0.128519, -338, -2037, 181, -618, -2, 262
0.128652, -476, -2064, 158, -563, -13, 489
0.128786, -476, -2064, 158, -563, -13, 489
0.128919, -476, -2064, 158, -563, -13, 489
0.129053, -476, -2064, 158, -563, -13, 489
0.129186, -476, -2064, 158, -563, -13, 489
0.129320, -476, -2064, 158, -563, -13, 489
0.129453, -476, -2064, 158, -563, -13, 489
0.129592, -476, -2064, 158, -563, -13, 489
0.129726, 231, -2050, 166, -451, -53, 599
0.129859, 231, -2050, 166, -451, -53, 599
0.129993, 231, -2050, 166, -451, -53, 599
0.130126, 231, -2050, 166, -451, -53, 599
0.130260, 231, -2050, 166, -451, -53, 599
0.130393, 231, -2050, 166, -451, -53, 599
0.130527, 231, -2050, 166, -451, -53, 599
0.130660, 799, -2034, 160, -342, -91, 212
0.130794, 799, -2034, 160, -342, -91, 212
0.130927, 799, -2034, 160, -342, -91, 212
0.131061, 799, -2034, 160, -342, -91, 212
0.131194, 799, -2034, 160, -342, -91, 212
0.131328, 799, -2034, 160, -342, -91, 212
0.131462, 799, -2034, 160, -342, -91, 212
0.131596, 799, -2034, 160, -342, -91, 212
0.131731, 794, -2067, 132, -292, -39, -374
0.131865, 794, -2067, 132, -292, -39, -374
0.131999, 794, -2067, 132, -292, -39, -374
0.132133, 794, -2067, 132, -292, -39, -374
0.132267, 794, -2067, 132, -292, -39, -374
0.132402, 794, -2067, 132, -292, -39, -374
0.132536, 794, -2067, 132, -292, -39, -374
0.132670, 794, -2067, 132, -292, -39, -374
0.132804, 800, -2106, 216, -253, 113, -862
0.132939, 800, -2106, 216, -253, 113, -862
0.133073, 800, -2106, 216, -253, 113, -862
0.133207, 800, -2106, 216, -253, 113, -862
0.133341, 800, -2106, 216, -253, 113, -862
0.133475, 800, -2106, 216, -253, 113, -862
0.133610, 800, -2106, 216, -253, 113, -862
0.133744, 712, -2104, 388, -140, 337, -1301
0.133878, 712, -2104, 388, -140, 337, -1301
0.134012, 712, -2104, 388, -140, 337, -1301
0.134147, 712, -2104, 388, -140, 337, -1301
0.134281, 712, -2104, 388, -140, 337, -1301
0.134415, 712, -2104, 388, -140, 337, -1301
0.134549, 712, -2104, 388, -140, 337, -1301
0.134684, 712, -2104, 388, -140, 337, -1301
0.134818, 280, -2081, 453, 26, 593, -1603
0.134952, 280, -2081, 453, 26, 593, -1603
0.135086, 280, -2081, 453, 26, 593, -1603
0.135221, 280, -2081, 453, 26, 593, -1603
0.135355, 280, -2081, 453, 26, 593, -1603
0.135489, 280, -2081, 453, 26, 593, -1603
0.135623, 280, -2081, 453, 26, 593, -1603
0.135758, -140, -2044, 361, 145, 799, -1628
0.135892, -140, -2044, 361, 145, 799, -1628
0.136026, -140, -2044, 361, 145, 799, -1628
0.136160, -140, -2044, 361, 145, 799, -1628
0.136294, -140, -2044, 361, 145, 799, -1628
0.136429, -140, -2044, 361, 145, 799, -1628
0.136563, -140, -2044, 361, 145, 799, -1628
0.136697, -140, -2044, 361, 145, 799, -1628
0.136831, -390, -1999, 221, 183, 864, -1456
0.136965, -390, -1999, 221, 183, 864, -1456
0.137100, -390, -1999, 221, 183, 864, -1456
0.137234, -390, -1999, 221, 183, 864, -1456
0.137368, -390, -1999, 221, 183, 864, -1456
0.137502, -390, -1999, 221, 183, 864, -1456
0.137636, -390, -1999, 221, 183, 864, -1456
0.137770, -588, -2001, 266, 236, 779, -1194
0.137905, -588, -2001, 266, 236, 779, -1194
0.138039, -588, -2001, 266, 236, 779, -1194
0.138173, -588, -2001, 266, 236, 779, -1194
0.138307, -588, -2001, 266, 236, 779, -1194
0.138441, -588, -2001, 266, 236, 779, -1194
0.138575, -588, -2001, 266, 236, 779, -1194
0.138710, -588, -2001, 266, 236, 779, -1194
0.138844, -709, -2045, 395, 397, 622, -845
0.138978, -709, -2045, 395, 397, 622, -845
0.139112, -709, -2045, 395, 397, 622, -845
0.139247, -709, -2045, 395, 397, 622, -845
0.139381, -709, -2045, 395, 397, 622, -845
0.139515, -709, -2045, 395, 397, 622, -845
0.139648, -709, -2045, 395, 397, 622, -845
0.139782, -709, -2045, 395, 397, 622, -845
0.139915, -541, -2049, 281, 525, 470, -474
0.140049, -541, -2049, 281, 525, 470, -474
0.140182, -541, -2049, 281, 525, 470, -474
0.140316, -541, -2049, 281, 525, 470, -474
0.140450, -541, -2049, 281, 525, 470, -474
0.140584, -541, -2049, 281, 525, 470, -474
0.140717, -541, -2049, 281, 525, 470, -474
0.140851, -215, -2034, 49, 494, 348, -259
0.140984, -215, -2034, 49, 494, 348, -259
0.141118, -215, -2034, 49, 494, 348, -259
0.141251, -215, -2034, 49, 494, 348, -259
0.141385, -215, -2034, 49, 494, 348, -259
0.141518, -215, -2034, 49, 494, 348, -259
0.141652, -215, -2034, 49, 494, 348, -259
0.141785, -215, -2034, 49, 494, 348, -259
0.141919, -154, -2047, -57, 451, 264, -194
0.142052, -154, -2047, -57, 451, 264, -194
0.142186, -154, -2047, -57, 451, 264, -194
0.142319, -154, -2047, -57, 451, 264, -194
0.142457, -154, -2047, -57, 451, 264, -194
0.142591, -154, -2047, -57, 451, 264, -194
0.142725, -154, -2047, -57, 451, 264, -194
0.142858, -222, -2057, -88, 482, 233, -85
0.142992, -222, -2057, -88, 482, 233, -85
0.143125, -222, -2057, -88, 482, 233, -85
0.143259, -222, -2057, -88, 482, 233, -85
0.143394, -222, -2057, -88, 482, 233, -85
0.143524, -222, -2057, -88, 482, 233, -85
0.143658, -222, -2057, -88, 482, 233, -85
0.143793, -222, -2057, -88, 482, 233, -85
0.143927, -326, -2073, -288, 405, 261, 105
0.144058, -326, -2073, -288, 405, 261, 105
0.144192, -326, -2073, -288, 405, 261, 105
0.144326, -326, -2073, -288, 405, 261, 105
0.144461, -326, -2073, -288, 405, 261, 105
0.144595, -326, -2073, -288, 405, 261, 105
0.144729, -326, -2073, -288, 405, 261, 105
0.144863, -411, -2085, -385, 143, 279, 367
0.144997, -411, -2085, -385, 143, 279, 367
0.145131, -411, -2085, -385, 143, 279, 367
0.145266, -411, -2085, -385, 143, 279, 367
0.145400, -411, -2085, -385, 143, 279, 367
0.145534, -411, -2085, -385, 143, 279, 367
0.145668, -411, -2085, -385, 143, 279, 367
0.145802, -411, -2085, -385, 143, 279, 367
0.145933, 14, -2077, -50, -30, 203, 555
0.146070, 14, -2077, -50, -30, 203, 555
0.146205, 14, -2077, -50, -30, 203, 555
0.146340, 14, -2077, -50, -30, 203, 555
0.146474, 14, -2077, -50, -30, 203, 555
0.146609, 14, -2077, -50, -30, 203, 555
0.146743, 14, -2077, -50, -30, 203, 555
0.146877, 14, -2077, -50, -30, 203, 555
0.147011, 537, -2056, 225, -29, 99, 341
0.147146, 537, -2056, 225, -29, 99, 341
0.147280, 537, -2056, 225, -29, 99, 341
0.147415, 537, -2056, 225, -29, 99, 341
0.147549, 537, -2056, 225, -29, 99, 341
0.147684, 537, -2056, 225, -29, 99, 341
0.147818, 537, -2056, 225, -29, 99, 341
0.147952, 373, -2038, 135, -79, 92, -102
0.148086, 373, -2038, 135, -79, 92, -102
0.148221, 373, -2038, 135, -79, 92, -102
0.148355, 373, -2038, 135, -79, 92, -102
0.148490, 373, -2038, 135, -79, 92, -102
0.148625, 373, -2038, 135, -79, 92, -102
0.148759, 373, -2038, 135, -79, 92, -102
0.148893, 373, -2038, 135, -79, 92, -102
0.149027, 154, -2075, -147, -259, 143, -311
0.149162, 154, -2075, -147, -259, 143, -311
0.149296, 154, -2075, -147, -259, 143, -311
0.149430, 154, -2075, -147, -259, 143, -311
0.149565, 154, -2075, -147, -259, 143, -311
0.149699, 154, -2075, -147, -259, 143, -311
0.149833, 154, -2075, -147, -259, 143, -311
0.149967, 523, -2119, -215, -487, 171, -437
0.150101, 523, -2119, -215, -487, 171, -437
0.150236, 523, -2119, -215, -487, 171, -437
0.150370, 523, -2119, -215, -487, 171, -437
0.150504, 523, -2119, -215, -487, 171, -437
0.150638, 523, -2119, -215, -487, 171, -437
0.150772, 523, -2119, -215, -487, 171, -437
0.150907, 523, -2119, -215, -487, 171, -437
0.151041, 688, -2098, 83, -566, 221, -792
0.151175, 688, -2098, 83, -566, 221, -792
0.151309, 688, -2098, 83, -566, 221, -792
0.151444, 688, -2098, 83, -566, 221, -792
0.151578, 688, -2098, 83, -566, 221, -792
0.151713, 688, -2098, 83, -566, 221, -792
0.151847, 688, -2098, 83, -566, 221, -792
0.151981, 267, -2068, 245, -506, 355, -1107
0.152116, 267, -2068, 245, -506, 355, -1107
0.152250, 267, -2068, 245, -506, 355, -1107
0.152384, 267, -2068, 245, -506, 355, -1107
0.152518, 267, -2068, 245, -506, 355, -1107
0.152653, 267, -2068, 245, -506, 355, -1107
0.152788, 267, -2068, 245, -506, 355, -1107
0.152922, 267, -2068, 245, -506, 355, -1107
0.153056, -194, -2059, 207, -535, 531, -1109
0.153191, -194, -2059, 207, -535, 531, -1109
0.153325, -194, -2059, 207, -535, 531, -1109
0.153459, -194, -2059, 207, -535, 531, -1109
0.153593, -194, -2059, 207, -535, 531, -1109
0.153727, -194, -2059, 207, -535, 531, -1109
0.153862, -194, -2059, 207, -535, 531, -1109
0.153996, -392, -2028, 339, -548, 668, -876
0.154130, -392, -2028, 339, -548, 668, -876
0.154264, -392, -2028, 339, -548, 668, -876
0.154398, -392, -2028, 339, -548, 668, -876
0.154532, -392, -2028, 339, -548, 668, -876
0.154667, -392, -2028, 339, -548, 668, -876
0.154801, -392, -2028, 339, -548, 668, -876
0.154935, -392, -2028, 339, -548, 668, -876
0.155069, -170, -1996, 510, -380, 710, -637
0.155203, -170, -1996, 510, -380, 710, -637
0.155347, -170, -1996, 510, -380, 710, -637
0.155482, -170, -1996, 510, -380, 710, -637
0.155617, -170, -1996, 510, -380, 710, -637
0.155751, -170, -1996, 510, -380, 710, -637
0.155885, -170, -1996, 510, -380, 710, -637
0.156019, 310, -2020, 536, -159, 659, -659
0.156154, 310, -2020, 536, -159, 659, -659
0.156288, 310, -2020, 536, -159, 659, -659
0.156422, 310, -2020, 536, -159, 659, -659
0.156556, 310, -2020, 536, -159, 659, -659
0.156691, 310, -2020, 536, -159, 659, -659
0.156825, 310, -2020, 536, -159, 659, -659
0.156959, 310, -2020, 536, -159, 659, -659
0.157093, 540, -2067, 622, 107, 598, -954
0.157228, 540, -2067, 622, 107, 598, -954
0.157362, 540, -2067, 622, 107, 598, -954
0.157496, 540, -2067, 622, 107, 598, -954
0.157630, 540, -2067, 622, 107, 598, -954
0.157765, 540, -2067, 622, 107, 598, -954
0.157899, 540, -2067, 622, 107, 598, -954
0.158033, 356, -2050, 697, 521, 643, -1259
0.158167, 356, -2050, 697, 521, 643, -1259
0.158302, 356, -2050, 697, 521, 643, -1259
0.158436, 356, -2050, 697, 521, 643, -1259
0.158566, 356, -2050, 697, 521, 643, -1259
0.158700, 356, -2050, 697, 521, 643, -1259
0.158834, 356, -2050, 697, 521, 643, -1259
0.158969, 356, -2050, 697, 521, 643, -1259
0.159103, -222, -2039, 225, 821, 819, -1301
0.159237, -222, -2039, 225, 821, 819, -1301
0.159372, -222, -2039, 225, 821, 819, -1301
0.159506, -222, -2039, 225, 821, 819, -1301
0.159640, -222, -2039, 225, 821, 819, -1301
0.159774, -222, -2039, 225, 821, 819, -1301
0.159909, -222, -2039, 225, 821, 819, -1301
0.160043, -222, -2039, 225, 821, 819, -1301
0.160177, -602, -2085, -547, 655, 978, -951
0.160311, -602, -2085, -547, 655, 978, -951
0.160445, -602, -2085, -547, 655, 978, -951
0.160580, -602, -2085, -547, 655, 978, -951
0.160714, -602, -2085, -547, 655, 978, -951
0.160848, -602, -2085, -547, 655, 978, -951
0.160982, -602, -2085, -547, 655, 978, -951
0.161116, -32, -2077, -769, 212, 932, -588
0.161250, -32, -2077, -769, 212, 932, -588
0.161384, -32, -2077, -769, 212, 932, -588
0.161519, -32, -2077, -769, 212, 932, -588
0.161653, -32, -2077, -769, 212, 932, -588
0.161787, -32, -2077, -769, 212, 932, -588
0.161921, -32, -2077, -769, 212, 932, -588
0.162055, -32, -2077, -769, 212, 932, -588
0.162189, 503, -2051, -505, -161, 774, -715
0.162323, 503, -2051, -505, -161, 774, -715
0.162457, 503, -2051, -505, -161, 774, -715
0.162591, 503, -2051, -505, -161, 774, -715
0.162725, 503, -2051, -505, -161, 774, -715
0.162860, 503, -2051, -505, -161, 774, -715
0.162994, 503, -2051, -505, -161, 774, -715
0.163128, 182, -2049, -22, -354, 703, -1023
0.163262, 182, -2049, -22, -354, 703, -1023
0.163397, 182, -2049, -22, -354, 703, -1023
0.163531, 182, -2049, -22, -354, 703, -1023
0.163665, 182, -2049, -22, -354, 703, -1023
0.163799, 182, -2049, -22, -354, 703, -1023
0.163934, 182, -2049, -22, -354, 703, -1023
0.164068, 182, -2049, -22, -354, 703, -1023
0.164202, -131, -2032, 499, -275, 709, -1050
0.164336, -131, -2032, 499, -275, 709, -1050
0.164471, -131, -2032, 499, -275, 709, -1050
0.164605, -131, -2032, 499, -275, 709, -1050
0.164739, -131, -2032, 499, -275, 709, -1050
0.164873, -131, -2032, 499, -275, 709, -1050
0.165008, -131, -2032, 499, -275, 709, -1050
0.165142, -243, -2047, 435, -107, 770, -926
0.165276, -243, -2047, 435, -107, 770, -926
0.165410, -243, -2047, 435, -107, 770, -926
0.165544, -243, -2047, 435, -107, 770, -926
0.165679, -243, -2047, 435, -107, 770, -926
0.165813, -243, -2047, 435, -107, 770, -926
0.165947, -243, -2047, 435, -107, 770, -926
0.166081, -243, -2047, 435, -107, 770, -926
0.166215, -358, -2068, -150, -214, 828, -752
0.166350, -358, -2068, -150, -214, 828, -752
0.166484, -358, -2068, -150, -214, 828, -752
0.166618, -358, -2068, -150, -214, 828, -752
0.166752, -358, -2068, -150, -214, 828, -752
0.166886, -358, -2068, -150, -214, 828, -752
0.167020, -358, -2068, -150, -214, 828, -752
0.167155, -142, -2078, -382, -468, 716, -571
0.167289, -142, -2078, -382, -468, 716, -571
0.167423, -142, -2078, -382, -468, 716, -571
0.167558, -142, -2078, -382, -468, 716, -571
0.167692, -142, -2078, -382, -468, 716, -571
0.167837, -142, -2078, -382, -468, 716, -571
0.167972, -142, -2078, -382, -468, 716, -571
0.168107, -142, -2078, -382, -468, 716, -571
0.168241, 289, -2083, -83, -567, 488, -609
0.168375, 289, -2083, -83, -567, 488, -609
0.168509, 289, -2083, -83, -567, 488, -609
0.168643, 289, -2083, -83, -567, 488, -609
0.168778, 289, -2083, -83, -567, 488, -609
0.168912, 289, -2083, -83, -567, 488, -609
0.169046, 289, -2083, -83, -567, 488, -609
0.169180, 360, -2053, 274, -553, 405, -863
0.169315, 360, -2053, 274, -553, 405, -863
0.169449, 360, -2053, 274, -553, 405, -863
0.169583, 360, -2053, 274, -553, 405, -863
0.169717, 360, -2053, 274, -553, 405, -863
0.169852, 360, -2053, 274, -553, 405, -863
0.169986, 360, -2053, 274, -553, 405, -863
0.170120, 360, -2053, 274, -553, 405, -863
0.170254, 65, -2058, 447, -465, 537, -1019
0.170389, 65, -2058, 447, -465, 537, -1019
0.170523, 65, -2058, 447, -465, 537, -1019
0.170657, 65, -2058, 447, -465, 537, -1019
0.170791, 65, -2058, 447, -465, 537, -1019
0.170925, 65, -2058, 447, -465, 537, -1019
0.171060, 65, -2058, 447, -465, 537, -1019
0.171194, 65, -2058, 447, -465, 537, -1019
0.171328, -46, -2089, 358, -273, 735, -976
0.171463, -46, -2089, 358, -273, 735, -976
0.171597, -46, -2089, 358, -273, 735, -976
0.171731, -46, -2089, 358, -273, 735, -976
0.171865, -46, -2089, 358, -273, 735, -976
0.172000, -46, -2089, 358, -273, 735, -976
0.172134, -46, -2089, 358, -273, 735, -976
0.172268, -16, -2082, 160, -125, 865, -920
0.172402, -16, -2082, 160, -125, 865, -920
0.172536, -16, -2082, 160, -125, 865, -920
0.172671, -16, -2082, 160, -125, 865, -920
0.172806, -16, -2082, 160, -125, 865, -920
0.172940, -16, -2082, 160, -125, 865, -920
0.173074, -16, -2082, 160, -125, 865, -920
0.173208, -16, -2082, 160, -125, 865, -920
0.173343, -26, -2030, 174, -76, 870, -906
0.173477, -26, -2030, 174, -76, 870, -906
0.173611, -26, -2030, 174, -76, 870, -906
0.173746, -26, -2030, 174, -76, 870, -906
0.173880, -26, -2030, 174, -76, 870, -906
0.174014, -26, -2030, 174, -76, 870, -906
0.174148, -26, -2030, 174, -76, 870, -906
0.174282, -55, -1988, 401, 12, 813, -893
0.174417, -55, -1988, 401, 12, 813, -893
0.174551, -55, -1988, 401, 12, 813, -893
0.174685, -55, -1988, 401, 12, 813, -893
0.174819, -55, -1988, 401, 12, 813, -893
0.174954, -55, -1988, 401, 12, 813, -893
0.175088, -55, -1988, 401, 12, 813, -893
0.175222, -55, -1988, 401, 12, 813, -893
0.175356, -322, -2048, 686, 237, 808, -804
0.175490, -322, -2048, 686, 237, 808, -804
0.175625, -322, -2048, 686, 237, 808, -804
0.175759, -322, -2048, 686, 237, 808, -804
0.175893, -322, -2048, 686, 237, 808, -804
0.176028, -322, -2048, 686, 237, 808, -804
0.176162, -322, -2048, 686, 237, 808, -804
0.176296, -375, -2107, 777, 584, 844, -572
0.176430, -375, -2107, 777, 584, 844, -572
0.176565, -375, -2107, 777, 584, 844, -572
0.176699, -375, -2107, 777, 584, 844, -572
0.176833, -375, -2107, 777, 584, 844, -572
0.176967, -375, -2107, 777, 584, 844, -572
0.177101, -375, -2107, 777, 584, 844, -572
0.177235, -375, -2107, 777, 584, 844, -572
0.177370, 66, -2056, 379, 873, 860, -453
0.177504, 66, -2056, 379, 873, 860, -453
0.177638, 66, -2056, 379, 873, 860, -453
0.177772, 66, -2056, 379, 873, 860, -453
0.177907, 66, -2056, 379, 873, 860, -453
0.178041, 66, -2056, 379, 873, 860, -453
0.178175, 66, -2056, 379, 873, 860, -453
0.178309, -120, -2044, -141, 933, 866, -530
0.178444, -120, -2044, -141, 933, 866, -530
0.178578, -120, -2044, -141, 933, 866, -530
0.178712, -120, -2044, -141, 933, 866, -530
0.178846, -120, -2044, -141, 933, 866, -530
0.178980, -120, -2044, -141, 933, 866, -530
0.179115, -120, -2044, -141, 933, 866, -530
0.179249, -120, -2044, -141, 933, 866, -530
0.179383, -823, -2075, -423, 782, 861, -299
0.179518, -823, -2075, -423, 782, 861, -299
0.179652, -823, -2075, -423, 782, 861, -299
0.179786, -823, -2075, -423, 782, 861, -299
0.179920, -823, -2075, -423, 782, 861, -299
0.180054, -823, -2075, -423, 782, 861, -299
0.180189, -823, -2075, -423, 782, 861, -299
0.180323, -823, -2075, -423, 782, 861, -299
0.180457, -421, -2051, -509, 492, 789, 221
0.180591, -421, -2051, -509, 492, 789, 221
0.180732, -421, -2051, -509, 492, 789, 221
0.180866, -421, -2051, -509, 492, 789, 221
0.181000, -421, -2051, -509, 492, 789, 221
0.181135, -421, -2051, -509, 492, 789, 221
0.181269, -421, -2051, -509, 492, 789, 221
0.181403, 600, -2047, -356, 212, 646, 233
0.181537, 600, -2047, -356, 212, 646, 233
0.181672, 600, -2047, -356, 212, 646, 233
0.181806, 600, -2047, -356, 212, 646, 233
0.181940, 600, -2047, -356, 212, 646, 233
0.182074, 600, -2047, -356, 212, 646, 233
0.182208, 600, -2047, -356, 212, 646, 233
0.182343, 600, -2047, -356, 212, 646, 233
0.182477, 625, -2052, -180, 40, 570, -264
0.182611, 625, -2052, -180, 40, 570, -264
0.182745, 625, -2052, -180, 40, 570, -264
0.182879, 625, -2052, -180, 40, 570, -264
0.183014, 625, -2052, -180, 40, 570, -264
0.183148, 625, -2052, -180, 40, 570, -264
0.183282, 625, -2052, -180, 40, 570, -264
0.183416, 157, -2063, -37, -87, 632, -542
0.183551, 157, -2063, -37, -87, 632, -542
0.183685, 157, -2063, -37, -87, 632, -542
0.183819, 157, -2063, -37, -87, 632, -542
0.183953, 157, -2063, -37, -87, 632, -542
0.184087, 157, -2063, -37, -87, 632, -542
0.184222, 157, -2063, -37, -87, 632, -542
0.184356, 157, -2063, -37, -87, 632, -542
0.184490, 227, -2062, 251, -117, 711, -565
0.184624, 227, -2062, 251, -117, 711, -565
0.184759, 227, -2062, 251, -117, 711, -565
0.184893, 227, -2062, 251, -117, 711, -565
0.185027, 227, -2062, 251, -117, 711, -565
0.185161, 227, -2062, 251, -117, 711, -565
0.185295, 227, -2062, 251, -117, 711, -565
0.185430, 182, -2021, 462, 6, 763, -680
0.185564, 182, -2021, 462, 6, 763, -680
0.185698, 182, -2021, 462, 6, 763, -680
0.185832, 182, -2021, 462, 6, 763, -680
0.185967, 182, -2021, 462, 6, 763, -680
0.186101, 182, -2021, 462, 6, 763, -680
0.186235, 182, -2021, 462, 6, 763, -680
0.186369, 182, -2021, 462, 6, 763, -680
0.186503, -659, -2031, 248, 89, 839, -626
0.186638, -659, -2031, 248, 89, 839, -626
0.186772, -659, -2031, 248, 89, 839, -626
0.186906, -659, -2031, 248, 89, 839, -626
0.187040, -659, -2031, 248, 89, 839, -626
0.187174, -659, -2031, 248, 89, 839, -626
0.187309, -659, -2031, 248, 89, 839, -626
0.187443, -1136, -2073, -205, -8, 852, -31
0.187577, -1136, -2073, -205, -8, 852, -31
0.187712, -1136, -2073, -205, -8, 852, -31
0.187846, -1136, -2073, -205, -8, 852, -31
0.187980, -1136, -2073, -205, -8, 852, -31
0.188114, -1136, -2073, -205, -8, 852, -31
0.188249, -1136, -2073, -205, -8, 852, -31
0.188383, -1136, -2073, -205, -8, 852, -31
0.188517, -294, -2067, -350, -166, 689, 564
0.188651, -294, -2067, -350, -166, 689, 564
0.188785, -294, -2067, -350, -166, 689, 564
0.188920, -294, -2067, -350, -166, 689, 564
0.189054, -294, -2067, -350, -166, 689, 564
0.189188, -294, -2067, -350, -166, 689, 564
0.189322, -294, -2067, -350, -166, 689, 564
0.189456, 393, -2058, -118, -272, 466, 486
0.189591, 393, -2058, -118, -272, 466, 486
0.189725, 393, -2058, -118, -272, 466, 486
0.189859, 393, -2058, -118, -272, 466, 486
0.189993, 393, -2058, -118, -272, 466, 486
0.190128, 393, -2058, -118, -272, 466, 486
0.190262, 393, -2058, -118, -272, 466, 486
0.190396, 393, -2058, -118, -272, 466, 486
0.190530, -7, -2069, 157, -317, 381, 209
0.190664, -7, -2069, 157, -317, 381, 209
0.190799, -7, -2069, 157, -317, 381, 209
0.190933, -7, -2069, 157, -317, 381, 209
0.191067, -7, -2069, 157, -317, 381, 209
0.191201, -7, -2069, 157, -317, 381, 209
0.191335, -7, -2069, 157, -317, 381, 209
0.191470, -7, -2069, 157, -317, 381, 209
0.191604, -66, -2070, 316, -278, 450, 270
0.191738, -66, -2070, 316, -278, 450, 270
0.191872, -66, -2070, 316, -278, 450, 270
0.192006, -66, -2070, 316, -278, 450, 270
0.192140, -66, -2070, 316, -278, 450, 270
0.192274, -66, -2070, 316, -278, 450, 270
0.192408, -66, -2070, 316, -278, 450, 270
0.192542, 536, -2080, 370, -133, 573, 218
0.192676, 536, -2080, 370, -133, 573, 218
0.192810, 536, -2080, 370, -133, 573, 218
0.192944, 536, -2080, 370, -133, 573, 218
0.193078, 536, -2080, 370, -133, 573, 218
0.193212, 536, -2080, 370, -133, 573, 218
0.193346, 536, -2080, 370, -133, 573, 218
0.193480, 536, -2080, 370, -133, 573, 218
0.193614, 634, -2077, 366, 64, 693, -182
0.193753, 634, -2077, 366, 64, 693, -182
0.193887, 634, -2077, 366, 64, 693, -182
0.194021, 634, -2077, 366, 64, 693, -182
0.194155, 634, -2077, 366, 64, 693, -182
0.194289, 634, -2077, 366, 64, 693, -182
0.194423, 634, -2077, 366, 64, 693, -182
0.194557, 353, -2029, 336, 209, 802, -520
0.194692, 353, -2029, 336, 209, 802, -520
0.194826, 353, -2029, 336, 209, 802, -520
0.194960, 353, -2029, 336, 209, 802, -520
0.195094, 353, -2029, 336, 209, 802, -520
0.195228, 353, -2029, 336, 209, 802, -520
0.195362, 353, -2029, 336, 209, 802, -520
0.195501, 353, -2029, 336, 209, 802, -520
0.195635, 308, -1990, 356, 301, 892, -687
0.195769, 308, -1990, 356, 301, 892, -687
0.195902, 308, -1990, 356, 301, 892, -687
0.196036, 308, -1990, 356, 301, 892, -687
0.196169, 308, -1990, 356, 301, 892, -687
0.196302, 308, -1990, 356, 301, 892, -687
0.196436, 308, -1990, 356, 301, 892, -687
0.196569, 145, -2025, 383, 444, 970, -829
0.196703, 145, -2025, 383, 444, 970, -829
0.196836, 145, -2025, 383, 444, 970, -829
0.196970, 145, -2025, 383, 444, 970, -829
0.197103, 145, -2025, 383, 444, 970, -829
0.197237, 145, -2025, 383, 444, 970, -829
0.197370, 145, -2025, 383, 444, 970, -829
0.197503, 145, -2025, 383, 444, 970, -829
0.197637, -420, -2079, 170, 585, 1052, -792
0.197770, -420, -2079, 170, 585, 1052, -792
0.197904, -420, -2079, 170, 585, 1052, -792
0.198037, -420, -2079, 170, 585, 1052, -792
0.198171, -420, -2079, 170, 585, 1052, -792
0.198304, -420, -2079, 170, 585, 1052, -792
0.198438, -420, -2079, 170, 585, 1052, -792
0.198571, -420, -2079, 170, 585, 1052, -792
0.198704, -727, -2103, -90, 577, 1086, -410
0.198838, -727, -2103, -90, 577, 1086, -410
0.198972, -727, -2103, -90, 577, 1086, -410
0.199105, -727, -2103, -90, 577, 1086, -410
0.199238, -727, -2103, -90, 577, 1086, -410
0.199388, -727, -2103, -90, 577, 1086, -410
0.199522, -727, -2103, -90, 577, 1086, -410
0.199656, -329, -2086, 28, 532, 1003, -11
0.199791, -329, -2086, 28, 532, 1003, -11
0.199925, -329, -2086, 28, 532, 1003, -11
0.200059, -329, -2086, 28, 532, 1003, -11
0.200193, -329, -2086, 28, 532, 1003, -11
0.200327, -329, -2086, 28, 532, 1003, -11
0.200461, -329, -2086, 28, 532, 1003, -11
0.200595, -329, -2086, 28, 532, 1003, -11
0.200729, 303, -2021, 299, 630, 851, -18
0.200863, 303, -2021, 299, 630, 851, -18
0.200997, 303, -2021, 299, 630, 851, -18
0.201131, 303, -2021, 299, 630, 851, -18
0.201265, 303, -2021, 299, 630, 851, -18
0.201399, 303, -2021, 299, 630, 851, -18
0.201533, 303, -2021, 299, 630, 851, -18
0.201667, 460, -2025, 150, 739, 770, -370
0.201801, 460, -2025, 150, 739, 770, -370
0.201935, 460, -2025, 150, 739, 770, -370
0.202069, 460, -2025, 150, 739, 770, -370
0.202203, 460, -2025, 150, 739, 770, -370
0.202337, 460, -2025, 150, 739, 770, -370
0.202471, 460, -2025, 150, 739, 770, -370
0.202605, 460, -2025, 150, 739, 770, -370
0.202739, -107, -2078, -334, 633, 797, -589
0.202874, -107, -2078, -334, 633, 797, -589
0.203008, -107, -2078, -334, 633, 797, -589
0.203142, -107, -2078, -334, 633, 797, -589
0.203276, -107, -2078, -334, 633, 797, -589
0.203410, -107, -2078, -334, 633, 797, -589
0.203544, -107, -2078, -334, 633, 797, -589
0.203679, -107, -2050, -384, 467, 804, -414
0.203813, -107, -2050, -384, 467, 804, -414
0.203947, -107, -2050, -384, 467, 804, -414
0.204081, -107, -2050, -384, 467, 804, -414
0.204215, -107, -2050, -384, 467, 804, -414
0.204350, -107, -2050, -384, 467, 804, -414
0.204484, -107, -2050, -384, 467, 804, -414
0.204618, -107, -2050, -384, 467, 804, -414
0.204752, 760, -2058, -132, 438, 728, -472
0.204886, 760, -2058, -132, 438, 728, -472
0.205021, 760, -2058, -132, 438, 728, -472
0.205155, 760, -2058, -132, 438, 728, -472
0.205289, 760, -2058, -132, 438, 728, -472
0.205423, 760, -2058, -132, 438, 728, -472
0.205558, 760, -2058, -132, 438, 728, -472
0.205692, 414, -2110, -178, 321, 678, -983
0.205826, 414, -2110, -178, 321, 678, -983
0.205960, 414, -2110, -178, 321, 678, -983
0.206094, 414, -2110, -178, 321, 678, -983
0.206229, 414, -2110, -178, 321, 678, -983
0.206363, 414, -2110, -178, 321, 678, -983
0.206497, 414, -2110, -178, 321, 678, -983
0.206637, 414, -2110, -178, 321, 678, -983
0.206772, -899, -2079, -107, 92, 696, -974
0.206906, -899, -2079, -107, 92, 696, -974
0.207041, -899, -2079, -107, 92, 696, -974
0.207175, -899, -2079, -107, 92, 696, -974
0.207309, -899, -2079, -107, 92, 696, -974
0.207444, -899, -2079, -107, 92, 696, -974
0.207578, -899, -2079, -107, 92, 696, -974
0.207712, -1249, -2054, 70, -3, 711, -250
0.207847, -1249, -2054, 70, -3, 711, -250
0.207981, -1249, -2054, 70, -3, 711, -250
0.208115, -1249, -2054, 70, -3, 711, -250
0.208249, -1249, -2054, 70, -3, 711, -250
0.208384, -1249, -2054, 70, -3, 711, -250
0.208518, -1249, -2054, 70, -3, 711, -250
0.208652, -1249, -2054, 70, -3, 711, -250
0.208786, -895, -2069, 29, -64, 638, 410
0.208920, -895, -2069, 29, -64, 638, 410
0.209055, -895, -2069, 29, -64, 638, 410
0.209189, -895, -2069, 29, -64, 638, 410
0.209323, -895, -2069, 29, -64, 638, 410
0.209457, -895, -2069, 29, -64, 638, 410
0.209591, -895, -2069, 29, -64, 638, 410
0.209725, -369, -2034, 148, -118, 394, 695
0.209860, -369, -2034, 148, -118, 394, 695
0.209994, -369, -2034, 148, -118, 394, 695
0.210128, -369, -2034, 148, -118, 394, 695
0.210263, -369, -2034, 148, -118, 394, 695
0.210397, -369, -2034, 148, -118, 394, 695
0.210531, -369, -2034, 148, -118, 394, 695
0.210665, -369, -2034, 148, -118, 394, 695
0.210800, 146, -2024, 240, -43, 116, 614
0.210934, 146, -2024, 240, -43, 116, 614
0.211068, 146, -2024, 240, -43, 116, 614
0.211202, 146, -2024, 240, -43, 116, 614
0.211336, 146, -2024, 240, -43, 116, 614
0.211471, 146, -2024, 240, -43, 116, 614
0.211605, 146, -2024, 240, -43, 116, 614
0.211740, 146, -2024, 240, -43, 116, 614
0.211874, 61, -2084, 91, 6, 46, 361
0.212008, 61, -2084, 91, 6, 46, 361
0.212142, 61, -2084, 91, 6, 46, 361
0.212277, 61, -2084, 91, 6, 46, 361
0.212411, 61, -2084, 91, 6, 46, 361
0.212545, 61, -2084, 91, 6, 46, 361
0.212679, 61, -2084, 91, 6, 46, 361
0.212813, -358, -2078, 101, -21, 121, 337
0.212948, -358, -2078, 101, -21, 121, 337
0.213082, -358, -2078, 101, -21, 121, 337
0.213216, -358, -2078, 101, -21, 121, 337
0.213350, -358, -2078, 101, -21, 121, 337
0.213484, -358, -2078, 101, -21, 121, 337
0.213619, -358, -2078, 101, -21, 121, 337
0.213753, -358, -2078, 101, -21, 121, 337
0.213887, -279, -2003, 379, 85, 200, 545
0.214021, -279, -2003, 379, 85, 200, 545
0.214156, -279, -2003, 379, 85, 200, 545
0.214290, -279, -2003, 379, 85, 200, 545
0.214424, -279, -2003, 379, 85, 200, 545
0.214558, -279, -2003, 379, 85, 200, 545
0.214692, -279, -2003, 379, 85, 200, 545
0.214826, 618, -1979, 578, 343, 290, 486
0.214961, 618, -1979, 578, 343, 290, 486
0.215095, 618, -1979, 578, 343, 290, 486
0.215229, 618, -1979, 578, 343, 290, 486
0.215367, 618, -1979, 578, 343, 290, 486
0.215501, 618, -1979, 578, 343, 290, 486
0.215635, 618, -1979, 578, 343, 290, 486
0.215770, 618, -1979, 578, 343, 290, 486
0.215904, 1065, -2046, 304, 521, 412, -178
0.216038, 1065, -2046, 304, 521, 412, -178
0.216172, 1065, -2046, 304, 521, 412, -178
0.216306, 1065, -2046, 304, 521, 412, -178
0.216440, 1065, -2046, 304, 521, 412, -178
0.216574, 1065, -2046, 304, 521, 412, -178
0.216708, 1065, -2046, 304, 521, 412, -178
0.216842, -34, -2111, -168, 474, 579, -770
0.216977, -34, -2111, -168, 474, 579, -770
0.217111, -34, -2111, -168, 474, 579, -770
0.217245, -34, -2111, -168, 474, 579, -770
0.217379, -34, -2111, -168, 474, 579, -770
0.217513, -34, -2111, -168, 474, 579, -770
0.217647, -34, -2111, -168, 474, 579, -770
0.217781, -34, -2111, -168, 474, 579, -770
0.217916, -1073, -2080, -263, 338, 728, -469
0.218050, -1073, -2080, -263, 338, 728, -469
0.218184, -1073, -2080, -263, 338, 728, -469
0.218318, -1073, -2080, -263, 338, 728, -469
0.218452, -1073, -2080, -263, 338, 728, -469
0.218586, -1073, -2080, -263, 338, 728, -469
0.218721, -1073, -2080, -263, 338, 728, -469
0.218855, -801, -2034, -70, 213, 739, 220
0.218989, -801, -2034, -70, 213, 739, 220
0.219123, -801, -2034, -70, 213, 739, 220
0.219257, -801, -2034, -70, 213, 739, 220
0.219392, -801, -2034, -70, 213, 739, 220
0.219526, -801, -2034, -70, 213, 739, 220
0.219660, -801, -2034, -70, 213, 739, 220
0.219802, -801, -2034, -70, 213, 739, 220
0.219937, -95, -2029, 31, 74, 596, 448
0.220071, -95, -2029, 31, 74, 596, 448
0.220205, -95, -2029, 31, 74, 596, 448
0.220339, -95, -2029, 31, 74, 596, 448
0.220473, -95, -2029, 31, 74, 596, 448
0.220607, -95, -2029, 31, 74, 596, 448
0.220742, -95, -2029, 31, 74, 596, 448
0.220876, 115, -2049, 66, -8, 405, 233
0.221010, 115, -2049, 66, -8, 405, 233
0.221144, 115, -2049, 66, -8, 405, 233
0.221278, 115, -2049, 66, -8, 405, 233
0.221413, 115, -2049, 66, -8, 405, 233
0.221547, 115, -2049, 66, -8, 405, 233
0.221681, 115, -2049, 66, -8, 405, 233
0.221815, 115, -2049, 66, -8, 405, 233
0.221949, -243, -2075, 184, 13, 317, 71
0.222084, -243, -2075, 184, 13, 317, 71
0.222218, -243, -2075, 184, 13, 317, 71
0.222352, -243, -2075, 184, 13, 317, 71
0.222486, -243, -2075, 184, 13, 317, 71
0.222621, -243, -2075, 184, 13, 317, 71
0.222755, -243, -2075, 184, 13, 317, 71
0.222889, -243, -2075, 184, 13, 317, 71
0.223023, -436, -2048, 300, 73, 343, 207
0.223158, -436, -2048, 300, 73, 343, 207
0.223292, -436, -2048, 300, 73, 343, 207
0.223426, -436, -2048, 300, 73, 343, 207
0.223561, -436, -2048, 300, 73, 343, 207
0.223695, -436, -2048, 300, 73, 343, 207
0.223829, -436, -2048, 300, 73, 343, 207
0.223963, -237, -2008, 271, 135, 344, 372
0.224098, -237, -2008, 271, 135, 344, 372
0.224232, -237, -2008, 271, 135, 344, 372
0.224366, -237, -2008, 271, 135, 344, 372
0.224500, -237, -2008, 271, 135, 344, 372
0.224634, -237, -2008, 271, 135, 344, 372
0.224769, -237, -2008, 271, 135, 344, 372
0.224903, -237, -2008, 271, 135, 344, 372
0.225037, -449, -2022, 146, 174, 298, 435
0.225171, -449, -2022, 146, 174, 298, 435
0.225305, -449, -2022, 146, 174, 298, 435
0.225440, -449, -2022, 146, 174, 298, 435
0.225574, -449, -2022, 146, 174, 298, 435
0.225708, -449, -2022, 146, 174, 298, 435
0.225842, -449, -2022, 146, 174, 298, 435
0.225976, -934, -2065, 15, 150, 269, 721
0.226111, -934, -2065, 15, 150, 269, 721
0.226245, -934, -2065, 15, 150, 269, 721
0.226379, -934, -2065, 15, 150, 269, 721
0.226513, -934, -2065, 15, 150, 269, 721
0.226647, -934, -2065, 15, 150, 269, 721
0.226782, -934, -2065, 15, 150, 269, 721
0.226916, -934, -2065, 15, 150, 269, 721
0.227050, -668, -2073, -45, 83, 216, 1203
0.227184, -668, -2073, -45, 83, 216, 1203
0.227318, -668, -2073, -45, 83, 216, 1203
0.227453, -668, -2073, -45, 83, 216, 1203
0.227587, -668, -2073, -45, 83, 216, 1203
0.227721, -668, -2073, -45, 83, 216, 1203
0.227855, -668, -2073, -45, 83, 216, 1203
0.227990, 136, -2043, 102, 55, 91, 1332
0.228124, 136, -2043, 102, 55, 91, 1332
0.228258, 136, -2043, 102, 55, 91, 1332
0.228392, 136, -2043, 102, 55, 91, 1332
0.228527, 136, -2043, 102, 55, 91, 1332
0.228661, 136, -2043, 102, 55, 91, 1332
0.228795, 136, -2043, 102, 55, 91, 1332
0.228929, 136, -2043, 102, 55, 91, 1332
0.229063, 427, -2019, 293, 131, 19, 1002
0.229198, 427, -2019, 293, 131, 19, 1002
0.229332, 427, -2019, 293, 131, 19, 1002
0.229466, 427, -2019, 293, 131, 19, 1002
0.229600, 427, -2019, 293, 131, 19, 1002
0.229734, 427, -2019, 293, 131, 19, 1002
0.229868, 427, -2019, 293, 131, 19, 1002
0.230003, 16, -2040, 234, 230, 110, 713
0.230137, 16, -2040, 234, 230, 110, 713
0.230271, 16, -2040, 234, 230, 110, 713
0.230406, 16, -2040, 234, 230, 110, 713
0.230540, 16, -2040, 234, 230, 110, 713
0.230674, 16, -2040, 234, 230, 110, 713
0.230808, 16, -2040, 234, 230, 110, 713
0.230942, 16, -2040, 234, 230, 110, 713
0.231077, -192, -2069, 53, 254, 268, 753
0.231211, -192, -2069, 53, 254, 268, 753
0.231345, -192, -2069, 53, 254, 268, 753
0.231480, -192, -2069, 53, 254, 268, 753
0.231614, -192, -2069, 53, 254, 268, 753
0.231748, -192, -2069, 53, 254, 268, 753
0.231882, -192, -2069, 53, 254, 268, 753
0.232017, -192, -2069, 53, 254, 268, 753
0.232151, 213, -2074, 37, 264, 385, 787
0.232285, 213, -2074, 37, 264, 385, 787
0.232419, 213, -2074, 37, 264, 385, 787
0.232553, 213, -2074, 37, 264, 385, 787
0.232688, 213, -2074, 37, 264, 385, 787
0.232822, 213, -2074, 37, 264, 385, 787
0.232957, 213, -2074, 37, 264, 385, 787
0.233091, 276, -2087, 177, 339, 476, 533
0.233226, 276, -2087, 177, 339, 476, 533
0.233366, 276, -2087, 177, 339, 476, 533
0.233501, 276, -2087, 177, 339, 476, 533
0.233635, 276, -2087, 177, 339, 476, 533
0.233769, 276, -2087, 177, 339, 476, 533
0.233903, 276, -2087, 177, 339, 476, 533
0.234037, 276, -2087, 177, 339, 476, 533
0.234172, -252, -2072, 194, 441, 567, 376
0.234306, -252, -2072, 194, 441, 567, 376
0.234440, -252, -2072, 194, 441, 567, 376
0.234574, -252, -2072, 194, 441, 567, 376
0.234708, -252, -2072, 194, 441, 567, 376
0.234843, -252, -2072, 194, 441, 567, 376
0.234977, -252, -2072, 194, 441, 567, 376
0.235111, -285, -2036, 18, 439, 601, 498
0.235245, -285, -2036, 18, 439, 601, 498
0.235380, -285, -2036, 18, 439, 601, 498
0.235514, -285, -2036, 18, 439, 601, 498
0.235648, -285, -2036, 18, 439, 601, 498
0.235783, -285, -2036, 18, 439, 601, 498
0.235917, -285, -2036, 18, 439, 601, 498
0.236051, -285, -2036, 18, 439, 601, 498
0.236185, 54, -2068, -72, 353, 544, 482
0.236320, 54, -2068, -72, 353, 544, 482
0.236454, 54, -2068, -72, 353, 544, 482
0.236588, 54, -2068, -72, 353, 544, 482
0.236722, 54, -2068, -72, 353, 544, 482
0.236856, 54, -2068, -72, 353, 544, 482
0.236991, 54, -2068, -72, 353, 544, 482
0.237125, -30, -2127, -5, 318, 461, 317
0.237259, -30, -2127, -5, 318, 461, 317
0.237393, -30, -2127, -5, 318, 461, 317
0.237528, -30, -2127, -5, 318, 461, 317
0.237662, -30, -2127, -5, 318, 461, 317
0.237796, -30, -2127, -5, 318, 461, 317
0.237930, -30, -2127, -5, 318, 461, 317
0.238064, -30, -2127, -5, 318, 461, 317
0.238199, 28, -2093, 85, 335, 407, 258
0.238333, 28, -2093, 85, 335, 407, 258
0.238467, 28, -2093, 85, 335, 407, 258
0.238601, 28, -2093, 85, 335, 407, 258
0.238736, 28, -2093, 85, 335, 407, 258
0.238870, 28, -2093, 85, 335, 407, 258
0.239004, 28, -2093, 85, 335, 407, 258
0.239138, 285, -2022, 186, 365, 377, 119
0.239273, 285, -2022, 186, 365, 377, 119
0.239407, 285, -2022, 186, 365, 377, 119
0.239541, 285, -2022, 186, 365, 377, 119
0.239676, 285, -2022, 186, 365, 377, 119
0.239810, 285, -2022, 186, 365, 377, 119
0.239944, 285, -2022, 186, 365, 377, 119
0.240078, 285, -2022, 186, 365, 377, 119
0.240213, 134, -2006, 286, 433, 408, -94
0.240347, 134, -2006, 286, 433, 408, -94
0.240481, 134, -2006, 286, 433, 408, -94
0.240615, 134, -2006, 286, 433, 408, -94
0.240749, 134, -2006, 286, 433, 408, -94
0.240884, 134, -2006, 286, 433, 408, -94
0.241018, 134, -2006, 286, 433, 408, -94
0.241152, 29, -2000, 264, 542, 498, -167
0.241287, 29, -2000, 264, 542, 498, -167
0.241421, 29, -2000, 264, 542, 498, -167
0.241555, 29, -2000, 264, 542, 498, -167
0.241689, 29, -2000, 264, 542, 498, -167
0.241824, 29, -2000, 264, 542, 498, -167
0.241958, 29, -2000, 264, 542, 498, -167
0.242092, 29, -2000, 264, 542, 498, -167
0.242226, -194, -2005, 90, 607, 581, -172
0.242361, -194, -2005, 90, 607, 581, -172
0.242495, -194, -2005, 90, 607, 581, -172
0.242629, -194, -2005, 90, 607, 581, -172
0.242763, -194, -2005, 90, 607, 581, -172
0.242897, -194, -2005, 90, 607, 581, -172
0.243032, -194, -2005, 90, 607, 581, -172
0.243166, -194, -2005, 90, 607, 581, -172
0.243300, -1031, -2068, -131, 546, 643, 100
0.243435, -1031, -2068, -131, 546, 643, 100
0.243569, -1031, -2068, -131, 546, 643, 100
0.243703, -1031, -2068, -131, 546, 643, 100
0.243837, -1031, -2068, -131, 546, 643, 100
0.243972, -1031, -2068, -131, 546, 643, 100
0.244106, -1031, -2068, -131, 546, 643, 100
0.244240, -1363, -2131, -351, 360, 616, 859
0.244374, -1363, -2131, -351, 360, 616, 859
0.244508, -1363, -2131, -351, 360, 616, 859
0.244643, -1363, -2131, -351, 360, 616, 859
0.244777, -1363, -2131, -351, 360, 616, 859
0.244911, -1363, -2131, -351, 360, 616, 859
0.245045, -1363, -2131, -351, 360, 616, 859
0.245179, -1363, -2131, -351, 360, 616, 859
0.245314, -476, -2086, -378, 100, 398, 1494
0.245448, -476, -2086, -378, 100, 398, 1494
0.245582, -476, -2086, -378, 100, 398, 1494
0.245716, -476, -2086, -378, 100, 398, 1494
0.245851, -476, -2086, -378, 100, 398, 1494
0.245985, -476, -2086, -378, 100, 398, 1494
0.246119, -476, -2086, -378, 100, 398, 1494
0.246253, 437, -2014, -280, -165, 99, 1367
0.246388, 437, -2014, -280, -165, 99, 1367
0.246526, 437, -2014, -280, -165, 99, 1367
0.246661, 437, -2014, -280, -165, 99, 1367
0.246795, 437, -2014, -280, -165, 99, 1367
0.246929, 437, -2014, -280, -165, 99, 1367
0.247063, 437, -2014, -280, -165, 99, 1367
0.247198, 437, -2014, -280, -165, 99, 1367
0.247332, 266, -2017, -310, -431, -59, 860
0.247467, 266, -2017, -310, -431, -59, 860
0.247601, 266, -2017, -310, -431, -59, 860
0.247735, 266, -2017, -310, -431, -59, 860
0.247869, 266, -2017, -310, -431, -59, 860
0.248003, 266, -2017, -310, -431, -59, 860
0.248138, 266, -2017, -310, -431, -59, 860
0.248272, -323, -2051, -218, -657, -59, 702
0.248406, -323, -2051, -218, -657, -59, 702
0.248541, -323, -2051, -218, -657, -59, 702
0.248675, -323, -2051, -218, -657, -59, 702
0.248809, -323, -2051, -218, -657, -59, 702
0.248943, -323, -2051, -218, -657, -59, 702
0.249077, -323, -2051, -218, -657, -59, 702
0.249211, -323, -2051, -218, -657, -59, 702
0.249346, -339, -2075, 108, -708, -4, 894
0.249480, -339, -2075, 108, -708, -4, 894
0.249614, -339, -2075, 108, -708, -4, 894
0.249748, -339, -2075, 108, -708, -4, 894
0.249883, -339, -2075, 108, -708, -4, 894
0.250017, -339, -2075, 108, -708, -4, 894
0.250151, -339, -2075, 108, -708, -4, 894
0.250285, 146, -2061, 365, -605, 41, 950
0.250420, 146, -2061, 365, -605, 41, 950
0.250554, 146, -2061, 365, -605, 41, 950
0.250688, 146, -2061, 365, -605, 41, 950
0.250822, 146, -2061, 365, -605, 41, 950
0.250957, 146, -2061, 365, -605, 41, 950
0.251091, 146, -2061, 365, -605, 41, 950
0.251225, 146, -2061, 365, -605, 41, 950
0.251359, 577, -2031, 406, -464, 61, 631
0.251495, 577, -2031, 406, -464, 61, 631
0.251629, 577, -2031, 406, -464, 61, 631
0.251763, 577, -2031, 406, -464, 61, 631
0.251897, 577, -2031, 406, -464, 61, 631
0.252032, 577, -2031, 406, -464, 61, 631
0.252166, 577, -2031, 406, -464, 61, 631
0.252300, 453, -2029, 272, -332, 97, 162
0.252435, 453, -2029, 272, -332, 97, 162
0.252569, 453, -2029, 272, -332, 97, 162
0.252704, 453, -2029, 272, -332, 97, 162
0.252842, 453, -2029, 272, -332, 97, 162
0.252978, 453, -2029, 272, -332, 97, 162
0.253113, 453, -2029, 272, -332, 97, 162
0.253247, 453, -2029, 272, -332, 97, 162
0.253382, -38, -2045, 116, -259, 187, -63
0.253516, -38, -2045, 116, -259, 187, -63
0.253652, -38, -2045, 116, -259, 187, -63
0.253786, -38, -2045, 116, -259, 187, -63
0.253928, -38, -2045, 116, -259, 187, -63
0.254067, -38, -2045, 116, -259, 187, -63
0.254203, -38, -2045, 116, -259, 187, -63
0.254338, -362, -2057, 138, -206, 303, 66
0.254475, -362, -2057, 138, -206, 303, 66
0.254610, -362, -2057, 138, -206, 303, 66
0.254745, -362, -2057, 138, -206, 303, 66
0.254879, -362, -2057, 138, -206, 303, 66
0.255014, -362, -2057, 138, -206, 303, 66
0.255148, -362, -2057, 138, -206, 303, 66
0.255285, -362, -2057, 138, -206, 303, 66
0.255420, -362, -2044, 149, -99, 388, 330
0.255560, -362, -2044, 149, -99, 388, 330
0.255703, -362, -2044, 149, -99, 388, 330
0.255844, -362, -2044, 149, -99, 388, 330
0.255988, -362, -2044, 149, -99, 388, 330
0.256128, -362, -2044, 149, -99, 388, 330
0.256268, -362, -2044, 149, -99, 388, 330
0.256407, -131, -2038, 70, -48, 414, 483
0.256549, -131, -2038, 70, -48, 414, 483
0.256687, -131, -2038, 70, -48, 414, 483
0.256825, -131, -2038, 70, -48, 414, 483
0.256964, -131, -2038, 70, -48, 414, 483
0.257103, -131, -2038, 70, -48, 414, 483
0.257242, -131, -2038, 70, -48, 414, 483
0.257379, 22, -2066, 76, -67, 362, 440
0.257518, 22, -2066, 76, -67, 362, 440
0.257658, 22, -2066, 76, -67, 362, 440
0.257797, 22, -2066, 76, -67, 362, 440
0.257935, 22, -2066, 76, -67, 362, 440
0.258074, 22, -2066, 76, -67, 362, 440
0.258214, 22, -2066, 76, -67, 362, 440
0.258353, 22, -2066, 76, -67, 362, 440
0.258491, -205, -2088, 50, -71, 295, 373
0.258633, -205, -2088, 50, -71, 295, 373
0.258771, -205, -2088, 50, -71, 295, 373
0.258910, -205, -2088, 50, -71, 295, 373
0.259050, -205, -2088, 50, -71, 295, 373
0.259188, -205, -2088, 50, -71, 295, 373
0.259326, -205, -2088, 50, -71, 295, 373
0.259464, -490, -2086, 5, -115, 273, 508
0.259605, -490, -2086, 5, -115, 273, 508
0.259746, -490, -2086, 5, -115, 273, 508
0.259883, -490, -2086, 5, -115, 273, 508
0.260052, -490, -2086, 5, -115, 273, 508
0.260195, -490, -2086, 5, -115, 273, 508
0.260330, -490, -2086, 5, -115, 273, 508
0.260464, -398, -2085, 61, -181, 219, 741
0.260599, -398, -2085, 61, -181, 219, 741
0.260733, -398, -2085, 61, -181, 219, 741
0.260867, -398, -2085, 61, -181, 219, 741
0.261000, -398, -2085, 61, -181, 219, 741
0.261134, -398, -2085, 61, -181, 219, 741
0.261268, -398, -2085, 61, -181, 219, 741
0.261404, -398, -2085, 61, -181, 219, 741
0.261539, -216, -2055, 134, -184, 113, 833
0.261674, -216, -2055, 134, -184, 113, 833
0.261808, -216, -2055, 134, -184, 113, 833
0.261942, -216, -2055, 134, -184, 113, 833
0.262075, -216, -2055, 134, -184, 113, 833
0.262208, -216, -2055, 134, -184, 113, 833
0.262342, -216, -2055, 134, -184, 113, 833
0.262475, -211, -2020, 205, -148, 33, 827
0.262610, -211, -2020, 205, -148, 33, 827
0.262743, -211, -2020, 205, -148, 33, 827
0.262877, -211, -2020, 205, -148, 33, 827
0.263010, -211, -2020, 205, -148, 33, 827
0.263143, -211, -2020, 205, -148, 33, 827
0.263277, -211, -2020, 205, -148, 33, 827
0.263413, -211, -2020, 205, -148, 33, 827
0.263547, -57, -2032, 208, -120, 8, 807
0.263680, -57, -2032, 208, -120, 8, 807
0.263814, -57, -2032, 208, -120, 8, 807
0.263947, -57, -2032, 208, -120, 8, 807
0.264081, -57, -2032, 208, -120, 8, 807
0.264214, -57, -2032, 208, -120, 8, 807
0.264347, -57, -2032, 208, -120, 8, 807
0.264481, 263, -2049, 114, -101, 2, 641
0.264614, 263, -2049, 114, -101, 2, 641
0.264748, 263, -2049, 114, -101, 2, 641
0.264881, 263, -2049, 114, -101, 2, 641
0.265014, 263, -2049, 114, -101, 2, 641
0.265148, 263, -2049, 114, -101, 2, 641
0.265281, 263, -2049, 114, -101, 2, 641
0.265414, 263, -2049, 114, -101, 2, 641
0.265548, 104, -2055, 28, -74, 19, 362
0.265681, 104, -2055, 28, -74, 19, 362
0.265815, 104, -2055, 28, -74, 19, 362
0.265948, 104, -2055, 28, -74, 19, 362
0.266082, 104, -2055, 28, -74, 19, 362
0.266215, 104, -2055, 28, -74, 19, 362
0.266349, 104, -2055, 28, -74, 19, 362
0.266482, 104, -2055, 28, -74, 19, 362
0.266615, -413, -2059, -10, -74, 87, 332
0.266749, -413, -2059, -10, -74, 87, 332
0.266882, -413, -2059, -10, -74, 87, 332
0.267016, -413, -2059, -10, -74, 87, 332
0.267149, -413, -2059, -10, -74, 87, 332
0.267282, -413, -2059, -10, -74, 87, 332
0.267417, -413, -2059, -10, -74, 87, 332
0.267552, -438, -2058, 160, -73, 155, 570
0.267686, -438, -2058, 160, -73, 155, 570
0.267819, -438, -2058, 160, -73, 155, 570
0.267953, -438, -2058, 160, -73, 155, 570
0.268086, -438, -2058, 160, -73, 155, 570
0.268219, -438, -2058, 160, -73, 155, 570
0.268353, -438, -2058, 160, -73, 155, 570
0.268487, -438, -2058, 160, -73, 155, 570
0.268620, -17, -2061, 397, 21, 159, 668
0.268754, -17, -2061, 397, 21, 159, 668
0.268887, -17, -2061, 397, 21, 159, 668
0.269021, -17, -2061, 397, 21, 159, 668
0.269154, -17, -2061, 397, 21, 159, 668
0.269288, -17, -2061, 397, 21, 159, 668
0.269421, -17, -2061, 397, 21, 159, 668
0.269554, 368, -2054, 306, 124, 155, 454
0.269688, 368, -2054, 306, 124, 155, 454
0.269822, 368, -2054, 306, 124, 155, 454
0.269955, 368, -2054, 306, 124, 155, 454
0.270088, 368, -2054, 306, 124, 155, 454
0.270222, 368, -2054, 306, 124, 155, 454
0.270355, 368, -2054, 306, 124, 155, 454
0.270488, 368, -2054, 306, 124, 155, 454
0.270622, 550, -2032, 81, 126, 190, 54
0.270755, 550, -2032, 81, 126, 190, 54
0.270889, 550, -2032, 81, 126, 190, 54
0.271022, 550, -2032, 81, 126, 190, 54
0.271156, 550, -2032, 81, 126, 190, 54
0.271289, 550, -2032, 81, 126, 190, 54
0.271423, 550, -2032, 81, 126, 190, 54
0.271556, 342, -2039, 62, 106, 250, -341
0.271690, 342, -2039, 62, 106, 250, -341
0.271823, 342, -2039, 62, 106, 250, -341
0.271957, 342, -2039, 62, 106, 250, -341
0.272090, 342, -2039, 62, 106, 250, -341
0.272224, 342, -2039, 62, 106, 250, -341
0.272357, 342, -2039, 62, 106, 250, -341
0.272490, 342, -2039, 62, 106, 250, -341
0.272624, -122, -2059, 137, 127, 342, -506
0.272757, -122, -2059, 137, 127, 342, -506
0.272891, -122, -2059, 137, 127, 342, -506
0.273024, -122, -2059, 137, 127, 342, -506
0.273157, -122, -2059, 137, 127, 342, -506
0.273291, -122, -2059, 137, 127, 342, -506
0.273449, -122, -2059, 137, 127, 342, -506
0.273584, -319, -2043, 125, 153, 426, -390
0.273717, -319, -2043, 125, 153, 426, -390
0.273851, -319, -2043, 125, 153, 426, -390
0.273984, -319, -2043, 125, 153, 426, -390
0.274117, -319, -2043, 125, 153, 426, -390
0.274251, -319, -2043, 125, 153, 426, -390
0.274384, -319, -2043, 125, 153, 426, -390
0.274518, -319, -2043, 125, 153, 426, -390
0.274651, -143, -2023, 75, 138, 457, -250
0.274785, -143, -2023, 75, 138, 457, -250
0.274918, -143, -2023, 75, 138, 457, -250
0.275051, -143, -2023, 75, 138, 457, -250
0.275185, -143, -2023, 75, 138, 457, -250
0.275318, -143, -2023, 75, 138, 457, -250
0.275452, -143, -2023, 75, 138, 457, -250
0.275586, -143, -2023, 75, 138, 457, -250
0.275719, -81, -2031, 110, 104, 462, -258
0.275853, -81, -2031, 110, 104, 462, -258
0.275986, -81, -2031, 110, 104, 462, -258
0.276120, -81, -2031, 110, 104, 462, -258
0.276253, -81, -2031, 110, 104, 462, -258
0.276386, -81, -2031, 110, 104, 462, -258
0.276520, -81, -2031, 110, 104, 462, -258
0.276653, -351, -2054, 177, 118, 473, -240
0.276787, -351, -2054, 177, 118, 473, -240
0.276920, -351, -2054, 177, 118, 473, -240
0.277048, -351, -2054, 177, 118, 473, -240
0.277183, -351, -2054, 177, 118, 473, -240
0.277316, -351, -2054, 177, 118, 473, -240
0.277450, -351, -2054, 177, 118, 473, -240
0.277583, -351, -2054, 177, 118, 473, -240
0.277717, -623, -2065, 82, 141, 471, -33
0.277850, -623, -2065, 82, 141, 471, -33
0.277984, -623, -2065, 82, 141, 471, -33
0.278117, -623, -2065, 82, 141, 471, -33
0.278250, -623, -2065, 82, 141, 471, -33
0.278384, -623, -2065, 82, 141, 471, -33
0.278517, -623, -2065, 82, 141, 471, -33
0.278651, -571, -2067, -95, 68, 403, 256
0.278784, -571, -2067, -95, 68, 403, 256
0.278918, -571, -2067, -95, 68, 403, 256
0.279051, -571, -2067, -95, 68, 403, 256
0.279185, -571, -2067, -95, 68, 403, 256
0.279318, -571, -2067, -95, 68, 403, 256
0.279452, -571, -2067, -95, 68, 403, 256
0.279585, -571, -2067, -95, 68, 403, 256
0.279719, -256, -2066, -67, -54, 268, 410
0.279852, -256, -2066, -67, -54, 268, 410
0.279986, -256, -2066, -67, -54, 268, 410
0.280119, -256, -2066, -67, -54, 268, 410
0.280252, -256, -2066, -67, -54, 268, 410
0.280386, -256, -2066, -67, -54, 268, 410
0.280519, -256, -2066, -67, -54, 268, 410
0.280653, -256, -2066, -67, -54, 268, 410
0.280786, -72, -2044, 195, -96, 169, 363
0.280920, -72, -2044, 195, -96, 169, 363
0.281053, -72, -2044, 195, -96, 169, 363
0.281187, -72, -2044, 195, -96, 169, 363
0.281320, -72, -2044, 195, -96, 169, 363
0.281454, -72, -2044, 195, -96, 169, 363
0.281587, -72, -2044, 195, -96, 169, 363
0.281721, -59, -2034, 410, -22, 197, 257
0.281854, -59, -2034, 410, -22, 197, 257
0.281988, -59, -2034, 410, -22, 197, 257
0.282121, -59, -2034, 410, -22, 197, 257
0.282254, -59, -2034, 410, -22, 197, 257
0.282388, -59, -2034, 410, -22, 197, 257
0.282521, -59, -2034, 410, -22, 197, 257
0.282655, -59, -2034, 410, -22, 197, 257
0.282788, -67, -2055, 324, 73, 304, 167
0.282922, -67, -2055, 324, 73, 304, 167
0.283055, -67, -2055, 324, 73, 304, 167
0.283189, -67, -2055, 324, 73, 304, 167
0.283322, -67, -2055, 324, 73, 304, 167
0.283457, -67, -2055, 324, 73, 304, 167
0.283591, -67, -2055, 324, 73, 304, 167
0.283725, -118, -2060, 46, 76, 406, 108
0.283860, -118, -2060, 46, 76, 406, 108
0.283994, -118, -2060, 46, 76, 406, 108
0.284128, -118, -2060, 46, 76, 406, 108
0.284262, -118, -2060, 46, 76, 406, 108
0.284396, -118, -2060, 46, 76, 406, 108
0.284532, -118, -2060, 46, 76, 406, 108
0.284666, -118, -2060, 46, 76, 406, 108
0.284801, -54, -2048, -92, -10, 487, 99
0.284935, -54, -2048, -92, -10, 487, 99
0.285069, -54, -2048, -92, -10, 487, 99
0.285203, -54, -2048, -92, -10, 487, 99
0.285337, -54, -2048, -92, -10, 487, 99
0.285471, -54, -2048, -92, -10, 487, 99
0.285605, -54, -2048, -92, -10, 487, 99
0.285740, -54, -2048, -92, -10, 487, 99
0.285874, 167, -2030, -38, -118, 566, 30
0.286008, 167, -2030, -38, -118, 566, 30
0.286142, 167, -2030, -38, -118, 566, 30
0.286273, 167, -2030, -38, -118, 566, 30
0.286408, 167, -2030, -38, -118, 566, 30
0.286544, 167, -2030, -38, -118, 566, 30
0.286692, 167, -2030, -38, -118, 566, 30
0.286827, 259, -2017, 35, -215, 659, -156
0.286961, 259, -2017, 35, -215, 659, -156
0.287095, 259, -2017, 35, -215, 659, -156
0.287230, 259, -2017, 35, -215, 659, -156
0.287369, 259, -2017, 35, -215, 659, -156
0.287504, 259, -2017, 35, -215, 659, -156
0.287638, 259, -2017, 35, -215, 659, -156
0.287767, 259, -2017, 35, -215, 659, -156
0.287901, 80, -2034, 129, -275, 772, -339
0.288036, 80, -2034, 129, -275, 772, -339
0.288170, 80, -2034, 129, -275, 772, -339
0.288304, 80, -2034, 129, -275, 772, -339
0.288438, 80, -2034, 129, -275, 772, -339
0.288572, 80, -2034, 129, -275, 772, -339
0.288706, 80, -2034, 129, -275, 772, -339
0.288841, -375, -2053, 202, -279, 912, -335
0.288975, -375, -2053, 202, -279, 912, -335
0.289109, -375, -2053, 202, -279, 912, -335
0.289243, -375, -2053, 202, -279, 912, -335
0.289377, -375, -2053, 202, -279, 912, -335
0.289511, -375, -2053, 202, -279, 912, -335
0.289646, -375, -2053, 202, -279, 912, -335
0.289780, -375, -2053, 202, -279, 912, -335
0.289914, -707, -2046, 155, -273, 1053, -23
0.290048, -707, -2046, 155, -273, 1053, -23
0.290182, -707, -2046, 155, -273, 1053, -23
0.290317, -707, -2046, 155, -273, 1053, -23
0.290451, -707, -2046, 155, -273, 1053, -23
0.290585, -707, -2046, 155, -273, 1053, -23
0.290719, -707, -2046, 155, -273, 1053, -23
0.290853, -300, -2037, 76, -317, 1070, 315
0.290987, -300, -2037, 76, -317, 1070, 315
0.291122, -300, -2037, 76, -317, 1070, 315
0.291256, -300, -2037, 76, -317, 1070, 315
0.291390, -300, -2037, 76, -317, 1070, 315
0.291525, -300, -2037, 76, -317, 1070, 315
0.291659, -300, -2037, 76, -317, 1070, 315
0.291793, -300, -2037, 76, -317, 1070, 315
0.291927, 293, -2046, 100, -354, 940, 242
0.292056, 293, -2046, 100, -354, 940, 242
0.292191, 293, -2046, 100, -354, 940, 242
0.292326, 293, -2046, 100, -354, 940, 242
0.292461, 293, -2046, 100, -354, 940, 242
0.292595, 293, -2046, 100, -354, 940, 242
0.292729, 293, -2046, 100, -354, 940, 242
0.292863, 391, -2054, 192, -318, 821, -114
0.292998, 391, -2054, 192, -318, 821, -114
0.293132, 391, -2054, 192, -318, 821, -114
0.293266, 391, -2054, 192, -318, 821, -114
0.293405, 391, -2054, 192, -318, 821, -114
0.293540, 391, -2054, 192, -318, 821, -114
0.293674, 391, -2054, 192, -318, 821, -114
0.293808, 391, -2054, 192, -318, 821, -114
0.293942, 183, -2062, 210, -268, 839, -388
0.294076, 183, -2062, 210, -268, 839, -388
0.294211, 183, -2062, 210, -268, 839, -388
0.294345, 183, -2062, 210, -268, 839, -388
0.294479, 183, -2062, 210, -268, 839, -388
0.294613, 183, -2062, 210, -268, 839, -388
0.294747, 183, -2062, 210, -268, 839, -388
0.294881, -207, -2068, 233, -245, 967, -434
0.295016, -207, -2068, 233, -245, 967, -434
0.295150, -207, -2068, 233, -245, 967, -434
0.295284, -207, -2068, 233, -245, 967, -434
0.295419, -207, -2068, 233, -245, 967, -434
0.295553, -207, -2068, 233, -245, 967, -434
0.295687, -207, -2068, 233, -245, 967, -434
0.295821, -207, -2068, 233, -245, 967, -434
0.295955, -513, -2050, 289, -185, 1086, -228
0.296090, -513, -2050, 289, -185, 1086, -228
0.296224, -513, -2050, 289, -185, 1086, -228
0.296358, -513, -2050, 289, -185, 1086, -228
0.296492, -513, -2050, 289, -185, 1086, -228
0.296626, -513, -2050, 289, -185, 1086, -228
0.296760, -513, -2050, 289, -185, 1086, -228
0.296895, -542, -2026, 253, -113, 1135, 81
0.297029, -542, -2026, 253, -113, 1135, 81
0.297163, -542, -2026, 253, -113, 1135, 81
0.297297, -542, -2026, 253, -113, 1135, 81
0.297431, -542, -2026, 253, -113, 1135, 81
0.297566, -542, -2026, 253, -113, 1135, 81
0.297700, -542, -2026, 253, -113, 1135, 81
0.297834, -542, -2026, 253, -113, 1135, 81
0.297968, -433, -2021, 182, -87, 1118, 325
0.298102, -433, -2021, 182, -87, 1118, 325
0.298236, -433, -2021, 182, -87, 1118, 325
0.298370, -433, -2021, 182, -87, 1118, 325
0.298505, -433, -2021, 182, -87, 1118, 325
0.298639, -433, -2021, 182, -87, 1118, 325
0.298773, -433, -2021, 182, -87, 1118, 325
0.298907, -433, -2021, 182, -87, 1118, 325
0.299041, -143, -2035, 137, -57, 1036, 425
0.299176, -143, -2035, 137, -57, 1036, 425
0.299310, -143, -2035, 137, -57, 1036, 425
0.299454, -143, -2035, 137, -57, 1036, 425
0.299588, -143, -2035, 137, -57, 1036, 425
0.299723, -143, -2035, 137, -57, 1036, 425
0.299857, -143, -2035, 137, -57, 1036, 425
0.299991, 97, -2054, 152, 12, 938, 330
0.300125, 97, -2054, 152, 12, 938, 330
0.300260, 97, -2054, 152, 12, 938, 330
0.300395, 97, -2054, 152, 12, 938, 330
0.300530, 97, -2054, 152, 12, 938, 330
0.300664, 97, -2054, 152, 12, 938, 330
0.300798, 97, -2054, 152, 12, 938, 330
0.300933, 97, -2054, 152, 12, 938, 330
0.301067, -19, -2059, 211, 94, 906, 188
0.301202, -19, -2059, 211, 94, 906, 188
0.301337, -19, -2059, 211, 94, 906, 188
0.301471, -19, -2059, 211, 94, 906, 188
0.301605, -19, -2059, 211, 94, 906, 188
0.301739, -19, -2059, 211, 94, 906, 188
0.301873, -19, -2059, 211, 94, 906, 188
0.302007, -188, -2058, 155, 142, 966, 193
0.302142, -188, -2058, 155, 142, 966, 193
0.302276, -188, -2058, 155, 142, 966, 193
0.302410, -188, -2058, 155, 142, 966, 193
0.302544, -188, -2058, 155, 142, 966, 193
0.302678, -188, -2058, 155, 142, 966, 193
0.302812, -188, -2058, 155, 142, 966, 193
0.302946, -188, -2058, 155, 142, 966, 193
0.303081, -386, -2066, -33, 104, 1071, 328
0.303216, -386, -2066, -33, 104, 1071, 328
0.303350, -386, -2066, -33, 104, 1071, 328
0.303484, -386, -2066, -33, 104, 1071, 328
0.303618, -386, -2066, -33, 104, 1071, 328
0.303752, -386, -2066, -33, 104, 1071, 328
0.303886, -386, -2066, -33, 104, 1071, 328
0.304021, -640, -2071, -106, -15, 1148, 600
0.304155, -640, -2071, -106, -15, 1148, 600
0.304289, -640, -2071, -106, -15, 1148, 600
0.304423, -640, -2071, -106, -15, 1148, 600
0.304557, -640, -2071, -106, -15, 1148, 600
0.304691, -640, -2071, -106, -15, 1148, 600
0.304825, -640, -2071, -106, -15, 1148, 600
0.304959, -640, -2071, -106, -15, 1148, 600
0.305094, -461, -2048, 21, -128, 1141, 913
0.305228, -461, -2048, 21, -128, 1141, 913
0.305362, -461, -2048, 21, -128, 1141, 913
0.305496, -461, -2048, 21, -128, 1141, 913
0.305630, -461, -2048, 21, -128, 1141, 913
0.305764, -461, -2048, 21, -128, 1141, 913
0.305898, -461, -2048, 21, -128, 1141, 913
0.306033, -87, -2024, 163, -187, 1085, 991
0.306167, -87, -2024, 163, -187, 1085, 991
0.306301, -87, -2024, 163, -187, 1085, 991
0.306435, -87, -2024, 163, -187, 1085, 991
0.306569, -87, -2024, 163, -187, 1085, 991
0.306703, -87, -2024, 163, -187, 1085, 991
0.306838, -87, -2024, 163, -187, 1085, 991
0.306972, -87, -2024, 163, -187, 1085, 991
0.307106, 7, -2028, 180, -224, 1043, 865
0.307240, 7, -2028, 180, -224, 1043, 865
0.307374, 7, -2028, 180, -224, 1043, 865
0.307508, 7, -2028, 180, -224, 1043, 865
0.307642, 7, -2028, 180, -224, 1043, 865
0.307776, 7, -2028, 180, -224, 1043, 865
0.307911, 7, -2028, 180, -224, 1043, 865
0.308045, -11, -2048, 129, -258, 1026, 754
0.308179, -11, -2048, 129, -258, 1026, 754
0.308313, -11, -2048, 129, -258, 1026, 754
0.308447, -11, -2048, 129, -258, 1026, 754
0.308581, -11, -2048, 129, -258, 1026, 754
0.308715, -11, -2048, 129, -258, 1026, 754
0.308849, -11, -2048, 129, -258, 1026, 754
0.308984, -11, -2048, 129, -258, 1026, 754
0.309118, -66, -2052, 123, -272, 1044, 701
0.309252, -66, -2052, 123, -272, 1044, 701
0.309386, -66, -2052, 123, -272, 1044, 701
0.309520, -66, -2052, 123, -272, 1044, 701
0.309654, -66, -2052, 123, -272, 1044, 701
0.309788, -66, -2052, 123, -272, 1044, 701
0.309922, -66, -2052, 123, -272, 1044, 701
0.310057, -66, -2052, 123, -272, 1044, 701
0.310191, -146, -2038, 108, -274, 1105, 717
0.310325, -146, -2038, 108, -274, 1105, 717
0.310459, -146, -2038, 108, -274, 1105, 717
0.310593, -146, -2038, 108, -274, 1105, 717
0.310727, -146, -2038, 108, -274, 1105, 717
0.310861, -146, -2038, 108, -274, 1105, 717
0.310995, -146, -2038, 108, -274, 1105, 717
0.311129, 63, -2045, 75, -304, 1162, 755
0.311264, 63, -2045, 75, -304, 1162, 755
0.311398, 63, -2045, 75, -304, 1162, 755
0.311534, 63, -2045, 75, -304, 1162, 755
0.311668, 63, -2045, 75, -304, 1162, 755
0.311802, 63, -2045, 75, -304, 1162, 755
0.311936, 63, -2045, 75, -304, 1162, 755
0.312070, 63, -2045, 75, -304, 1162, 755
0.312201, 557, -2069, 133, -340, 1192, 585
0.312337, 557, -2069, 133, -340, 1192, 585
0.312482, 557, -2069, 133, -340, 1192, 585
0.312618, 557, -2069, 133, -340, 1192, 585
0.312752, 557, -2069, 133, -340, 1192, 585
0.312886, 557, -2069, 133, -340, 1192, 585
0.313020, 557, -2069, 133, -340, 1192, 585
0.313154, 883, -2071, 182, -333, 1265, 129
0.313289, 883, -2071, 182, -333, 1265, 129
0.313423, 883, -2071, 182, -333, 1265, 129
0.313557, 883, -2071, 182, -333, 1265, 129
0.313697, 883, -2071, 182, -333, 1265, 129
0.313831, 883, -2071, 182, -333, 1265, 129
0.313965, 883, -2071, 182, -333, 1265, 129
0.314099, 883, -2071, 182, -333, 1265, 129
0.314233, 890, -2048, 128, -332, 1425, -413
0.314367, 890, -2048, 128, -332, 1425, -413
0.314501, 890, -2048, 128, -332, 1425, -413
0.314636, 890, -2048, 128, -332, 1425, -413
0.314770, 890, -2048, 128, -332, 1425, -413
0.314904, 890, -2048, 128, -332, 1425, -413
0.315038, 890, -2048, 128, -332, 1425, -413
0.315172, 519, -2049, 110, -341, 1621, -836
0.315306, 519, -2049, 110, -341, 1621, -836
0.315441, 519, -2049, 110, -341, 1621, -836
0.315575, 519, -2049, 110, -341, 1621, -836
0.315710, 519, -2049, 110, -341, 1621, -836
0.315844, 519, -2049, 110, -341, 1621, -836
0.315978, 519, -2049, 110, -341, 1621, -836
0.316112, 519, -2049, 110, -341, 1621, -836
0.316246, -167, -2090, 107, -327, 1819, -908
0.316380, -167, -2090, 107, -327, 1819, -908
0.316514, -167, -2090, 107, -327, 1819, -908
0.316649, -167, -2090, 107, -327, 1819, -908
0.316783, -167, -2090, 107, -327, 1819, -908
0.316917, -167, -2090, 107, -327, 1819, -908
0.317051, -167, -2090, 107, -327, 1819, -908
0.317185, -279, -2100, 119, -317, 1952, -629
0.317319, -279, -2100, 119, -317, 1952, -629
0.317453, -279, -2100, 119, -317, 1952, -629
0.317587, -279, -2100, 119, -317, 1952, -629
0.317722, -279, -2100, 119, -317, 1952, -629
0.317856, -279, -2100, 119, -317, 1952, -629
0.317990, -279, -2100, 119, -317, 1952, -629
0.318124, -279, -2100, 119, -317, 1952, -629
0.318258, 221, -2061, 185, -264, 1905, -528
0.318392, 221, -2061, 185, -264, 1905, -528
0.318526, 221, -2061, 185, -264, 1905, -528
0.318661, 221, -2061, 185, -264, 1905, -528
0.318795, 221, -2061, 185, -264, 1905, -528
0.318929, 221, -2061, 185, -264, 1905, -528
0.319063, 221, -2061, 185, -264, 1905, -528
0.319197, 202, -2052, 207, -153, 1751, -755
0.319331, 202, -2052, 207, -153, 1751, -755
0.319466, 202, -2052, 207, -153, 1751, -755
0.319600, 202, -2052, 207, -153, 1751, -755
0.319734, 202, -2052, 207, -153, 1751, -755
0.319868, 202, -2052, 207, -153, 1751, -755
0.320002, 202, -2052, 207, -153, 1751, -755
0.320136, 202, -2052, 207, -153, 1751, -755
0.320271, -304, -2069, 249, -51, 1634, -831
0.320405, -304, -2069, 249, -51, 1634, -831
0.320539, -304, -2069, 249, -51, 1634, -831
0.320673, -304, -2069, 249, -51, 1634, -831
0.320807, -304, -2069, 249, -51, 1634, -831
0.320941, -304, -2069, 249, -51, 1634, -831
0.321075, -304, -2069, 249, -51, 1634, -831
0.321209, -304, -2069, 249, -51, 1634, -831
0.321344, -607, -2060, 229, 26, 1555, -568
0.321478, -607, -2060, 229, 26, 1555, -568
0.321612, -607, -2060, 229, 26, 1555, -568
0.321746, -607, -2060, 229, 26, 1555, -568
0.321880, -607, -2060, 229, 26, 1555, -568
0.322014, -607, -2060, 229, 26, 1555, -568
0.322148, -607, -2060, 229, 26, 1555, -568
0.322282, -334, -2067, 151, 76, 1451, -235
0.322416, -334, -2067, 151, 76, 1451, -235
0.322550, -334, -2067, 151, 76, 1451, -235
0.322684, -334, -2067, 151, 76, 1451, -235
0.322818, -334, -2067, 151, 76, 1451, -235
0.322952, -334, -2067, 151, 76, 1451, -235
0.323086, -334, -2067, 151, 76, 1451, -235
0.323220, -334, -2067, 151, 76, 1451, -235
0.323354, 229, -2091, 232, 166, 1314, -197
0.323489, 229, -2091, 232, 166, 1314, -197
0.323623, 229, -2091, 232, 166, 1314, -197
0.323757, 229, -2091, 232, 166, 1314, -197
0.323891, 229, -2091, 232, 166, 1314, -197
0.324025, 229, -2091, 232, 166, 1314, -197
0.324159, 229, -2091, 232, 166, 1314, -197
0.324293, 290, -2087, 313, 333, 1244, -446
0.324428, 290, -2087, 313, 333, 1244, -446
0.324562, 290, -2087, 313, 333, 1244, -446
0.324696, 290, -2087, 313, 333, 1244, -446
0.324830, 290, -2087, 313, 333, 1244, -446
0.324977, 290, -2087, 313, 333, 1244, -446
0.325111, 290, -2087, 313, 333, 1244, -446
0.325246, 290, -2087, 313, 333, 1244, -446
0.325380, -63, -2062, 217, 455, 1305, -587
0.325514, -63, -2062, 217, 455, 1305, -587
0.325648, -63, -2062, 217, 455, 1305, -587
0.325782, -63, -2062, 217, 455, 1305, -587
0.325916, -63, -2062, 217, 455, 1305, -587
0.326051, -63, -2062, 217, 455, 1305, -587
0.326185, -63, -2062, 217, 455, 1305, -587
0.326319, -294, -2028, 71, 442, 1409, -472
0.326453, -294, -2028, 71, 442, 1409, -472
0.326588, -294, -2028, 71, 442, 1409, -472
0.326721, -294, -2028, 71, 442, 1409, -472
0.326855, -294, -2028, 71, 442, 1409, -472
0.326988, -294, -2028, 71, 442, 1409, -472
0.327121, -294, -2028, 71, 442, 1409, -472
0.327255, -294, -2028, 71, 442, 1409, -472
0.327389, -280, -2011, -4, 368, 1465, -278
0.327524, -280, -2011, -4, 368, 1465, -278
0.327658, -280, -2011, -4, 368, 1465, -278
0.327792, -280, -2011, -4, 368, 1465, -278
0.327926, -280, -2011, -4, 368, 1465, -278
0.328060, -280, -2011, -4, 368, 1465, -278
0.328194, -280, -2011, -4, 368, 1465, -278
0.328328, -169, -2015, -24, 319, 1441, -164
0.328463, -169, -2015, -24, 319, 1441, -164
0.328597, -169, -2015, -24, 319, 1441, -164
0.328731, -169, -2015, -24, 319, 1441, -164
0.328865, -169, -2015, -24, 319, 1441, -164
0.328999, -169, -2015, -24, 319, 1441, -164
0.329133, -169, -2015, -24, 319, 1441, -164
0.329267, -169, -2015, -24, 319, 1441, -164
0.329402, -53, -2021, 28, 277, 1354, -150
0.329536, -53, -2021, 28, 277, 1354, -150
0.329670, -53, -2021, 28, 277, 1354, -150
0.329804, -53, -2021, 28, 277, 1354, -150
0.329938, -53, -2021, 28, 277, 1354, -150
0.330073, -53, -2021, 28, 277, 1354, -150
0.330207, -53, -2021, 28, 277, 1354, -150
0.330341, -53, -2021, 28, 277, 1354, -150
0.330475, 211, -2040, 186, 273, 1271, -248
0.330609, 211, -2040, 186, 273, 1271, -248
0.330743, 211, -2040, 186, 273, 1271, -248
0.330877, 211, -2040, 186, 273, 1271, -248
0.331012, 211, -2040, 186, 273, 1271, -248
0.331146, 211, -2040, 186, 273, 1271, -248
0.331280, 211, -2040, 186, 273, 1271, -248
0.331414, 417, -2070, 235, 323, 1249, -506
0.331549, 417, -2070, 235, 323, 1249, -506
0.331683, 417, -2070, 235, 323, 1249, -506
0.331817, 417, -2070, 235, 323, 1249, -506
0.331951, 417, -2070, 235, 323, 1249, -506
0.332085, 417, -2070, 235, 323, 1249, -506
0.332219, 417, -2070, 235, 323, 1249, -506
0.332354, 417, -2070, 235, 323, 1249, -506
0.332488, 301, -2080, 102, 318, 1299, -804
0.332622, 301, -2080, 102, 318, 1299, -804
0.332756, 301, -2080, 102, 318, 1299, -804
0.332890, 301, -2080, 102, 318, 1299, -804
0.333024, 301, -2080, 102, 318, 1299, -804
0.333158, 301, -2080, 102, 318, 1299, -804
0.333293, 301, -2080, 102, 318, 1299, -804
0.333427, 170, -2054, 49, 273, 1392, -965
0.333561, 170, -2054, 49, 273, 1392, -965
0.333695, 170, -2054, 49, 273, 1392, -965
0.333829, 170, -2054, 49, 273, 1392, -965
0.333963, 170, -2054, 49, 273, 1392, -965
0.334098, 170, -2054, 49, 273, 1392, -965
0.334232, 170, -2054, 49, 273, 1392, -965
0.334366, 170, -2054, 49, 273, 1392, -965
0.334500, 110, -2025, 78, 260, 1491, -1054
0.334634, 110, -2025, 78, 260, 1491, -1054
0.334768, 110, -2025, 78, 260, 1491, -1054
0.334902, 110, -2025, 78, 260, 1491, -1054
0.335037, 110, -2025, 78, 260, 1491, -1054
0.335171, 110, -2025, 78, 260, 1491, -1054
0.335305, 110, -2025, 78, 260, 1491, -1054
0.335439, -242, -2039, 46, 203, 1585, -1083
0.335574, -242, -2039, 46, 203, 1585, -1083
0.335708, -242, -2039, 46, 203, 1585, -1083
0.335842, -242, -2039, 46, 203, 1585, -1083
0.335976, -242, -2039, 46, 203, 1585, -1083
0.336110, -242, -2039, 46, 203, 1585, -1083
0.336244, -242, -2039, 46, 203, 1585, -1083
0.336378, -242, -2039, 46, 203, 1585, -1083
0.336513, -772, -2077, 2, 107, 1637, -849
0.336647, -772, -2077, 2, 107, 1637, -849
0.336781, -772, -2077, 2, 107, 1637, -849
0.336915, -772, -2077, 2, 107, 1637, -849
0.337049, -772, -2077, 2, 107, 1637, -849
0.337183, -772, -2077, 2, 107, 1637, -849
0.337317, -772, -2077, 2, 107, 1637, -849
0.337452, -846, -2071, 24, 71, 1572, -383
0.337586, -846, -2071, 24, 71, 1572, -383
0.337720, -846, -2071, 24, 71, 1572, -383
0.337859, -846, -2071, 24, 71, 1572, -383
0.337994, -846, -2071, 24, 71, 1572, -383
0.338128, -846, -2071, 24, 71, 1572, -383
0.338262, -846, -2071, 24, 71, 1572, -383
0.338397, -846, -2071, 24, 71, 1572, -383
0.338531, -612, -2029, 75, 92, 1392, -6
0.338665, -612, -2029, 75, 92, 1392, -6
0.338799, -612, -2029, 75, 92, 1392, -6
0.338933, -612, -2029, 75, 92, 1392, -6
0.339068, -612, -2029, 75, 92, 1392, -6
0.339202, -612, -2029, 75, 92, 1392, -6
0.339336, -612, -2029, 75, 92, 1392, -6
0.339471, -498, -2025, 139, 125, 1168, 204
0.339605, -498, -2025, 139, 125, 1168, 204
0.339739, -498, -2025, 139, 125, 1168, 204
0.339873, -498, -2025, 139, 125, 1168, 204
0.340007, -498, -2025, 139, 125, 1168, 204
0.340141, -498, -2025, 139, 125, 1168, 204
0.340275, -498, -2025, 139, 125, 1168, 204
0.340410, -498, -2025, 139, 125, 1168, 204
0.340544, -119, -2059, 243, 189, 960, 315
0.340678, -119, -2059, 243, 189, 960, 315
0.340812, -119, -2059, 243, 189, 960, 315
0.340946, -119, -2059, 243, 189, 960, 315
0.341080, -119, -2059, 243, 189, 960, 315
0.341214, -119, -2059, 243, 189, 960, 315
0.341349, -119, -2059, 243, 189, 960, 315
0.341483, -119, -2059, 243, 189, 960, 315
0.341617, 513, -2068, 295, 270, 841, 134
0.341751, 513, -2068, 295, 270, 841, 134
0.341885, 513, -2068, 295, 270, 841, 134
0.342019, 513, -2068, 295, 270, 841, 134
0.342153, 513, -2068, 295, 270, 841, 134
0.342287, 513, -2068, 295, 270, 841, 134
0.342422, 513, -2068, 295, 270, 841, 134
0.342556, 696, -2067, 258, 348, 875, -345
0.342690, 696, -2067, 258, 348, 875, -345
0.342824, 696, -2067, 258, 348, 875, -345
0.342958, 696, -2067, 258, 348, 875, -345
0.343092, 696, -2067, 258, 348, 875, -345
0.343227, 696, -2067, 258, 348, 875, -345
0.343361, 696, -2067, 258, 348, 875, -345
0.343501, 696, -2067, 258, 348, 875, -345
0.343635, 377, -2075, 69, 376, 1042, -734
0.343769, 377, -2075, 69, 376, 1042, -734
0.343904, 377, -2075, 69, 376, 1042, -734
0.344038, 377, -2075, 69, 376, 1042, -734
0.344172, 377, -2075, 69, 376, 1042, -734
0.344306, 377, -2075, 69, 376, 1042, -734
0.344440, 377, -2075, 69, 376, 1042, -734
0.344574, 215, -2067, -127, 257, 1255, -865
0.344709, 215, -2067, -127, 257, 1255, -865
0.344843, 215, -2067, -127, 257, 1255, -865
0.344977, 215, -2067, -127, 257, 1255, -865
0.345111, 215, -2067, -127, 257, 1255, -865
0.345245, 215, -2067, -127, 257, 1255, -865
0.345379, 215, -2067, -127, 257, 1255, -865
0.345513, 215, -2067, -127, 257, 1255, -865
0.345648, 223, -2071, -108, 86, 1430, -953
0.345782, 223, -2071, -108, 86, 1430, -953
0.345916, 223, -2071, -108, 86, 1430, -953
0.346050, 223, -2071, -108, 86, 1430, -953
0.346184, 223, -2071, -108, 86, 1430, -953
0.346318, 223, -2071, -108, 86, 1430, -953
0.346453, 223, -2071, -108, 86, 1430, -953
0.346587, 36, -2055, -124, -61, 1540, -1048
0.346721, 36, -2055, -124, -61, 1540, -1048
0.346855, 36, -2055, -124, -61, 1540, -1048
0.346989, 36, -2055, -124, -61, 1540, -1048
0.347124, 36, -2055, -124, -61, 1540, -1048
0.347258, 36, -2055, -124, -61, 1540, -1048
0.347392, 36, -2055, -124, -61, 1540, -1048
0.347527, 36, -2055, -124, -61, 1540, -1048
0.347661, 44, -2017, -156, -273, 1565, -1063
0.347795, 44, -2017, -156, -273, 1565, -1063
0.347929, 44, -2017, -156, -273, 1565, -1063
0.348063, 44, -2017, -156, -273, 1565, -1063
0.348197, 44, -2017, -156, -273, 1565, -1063
0.348332, 44, -2017, -156, -273, 1565, -1063
0.348466, 44, -2017, -156, -273, 1565, -1063
0.348600, 392, -2028, 96, -415, 1488, -1186
0.348734, 392, -2028, 96, -415, 1488, -1186
0.348868, 392, -2028, 96, -415, 1488, -1186
0.349002, 392, -2028, 96, -415, 1488, -1186
0.349137, 392, -2028, 96, -415, 1488, -1186
0.349271, 392, -2028, 96, -415, 1488, -1186
0.349405, 392, -2028, 96, -415, 1488, -1186
0.349539, 392, -2028, 96, -415, 1488, -1186
0.349673, 499, -2057, 450, -302, 1413, -1525
0.349808, 499, -2057, 450, -302, 1413, -1525
0.349942, 499, -2057, 450, -302, 1413, -1525
0.350076, 499, -2057, 450, -302, 1413, -1525
0.350210, 499, -2057, 450, -302, 1413, -1525
0.350344, 499, -2057, 450, -302, 1413, -1525
0.350478, 499, -2057, 450, -302, 1413, -1525
0.350617, 269, -2069, 560, -56, 1444, -1820
0.350752, 269, -2069, 560, -56, 1444, -1820
0.350886, 269, -2069, 560, -56, 1444, -1820
0.351020, 269, -2069, 560, -56, 1444, -1820
0.351154, 269, -2069, 560, -56, 1444, -1820
0.351289, 269, -2069, 560, -56, 1444, -1820
0.351423, 269, -2069, 560, -56, 1444, -1820
0.351557, 269, -2069, 560, -56, 1444, -1820
0.351690, 105, -2063, 479, 125, 1528, -1918
0.351824, 105, -2063, 479, 125, 1528, -1918
0.351958, 105, -2063, 479, 125, 1528, -1918
0.352091, 105, -2063, 479, 125, 1528, -1918
0.352224, 105, -2063, 479, 125, 1528, -1918
0.352358, 105, -2063, 479, 125, 1528, -1918
0.352491, 105, -2063, 479, 125, 1528, -1918
0.352625, 105, -2063, 479, 125, 1528, -1918
0.352758, 40, -2046, 508, 286, 1601, -1930
0.352892, 40, -2046, 508, 286, 1601, -1930
0.353025, 40, -2046, 508, 286, 1601, -1930
0.353159, 40, -2046, 508, 286, 1601, -1930
0.353292, 40, -2046, 508, 286, 1601, -1930
0.353425, 40, -2046, 508, 286, 1601, -1930
0.353559, 40, -2046, 508, 286, 1601, -1930
0.353692, -197, -2044, 504, 530, 1669, -1885
0.353826, -197, -2044, 504, 530, 1669, -1885
0.353959, -197, -2044, 504, 530, 1669, -1885
0.354093, -197, -2044, 504, 530, 1669, -1885
0.354226, -197, -2044, 504, 530, 1669, -1885
0.354360, -197, -2044, 504, 530, 1669, -1885
0.354493, -197, -2044, 504, 530, 1669, -1885
0.354627, -197, -2044, 504, 530, 1669, -1885
0.354760, -594, -2066, 140, 686, 1717, -1659
0.354894, -594, -2066, 140, 686, 1717, -1659
0.355027, -594, -2066, 140, 686, 1717, -1659
0.355161, -594, -2066, 140, 686, 1717, -1659
0.355294, -594, -2066, 140, 686, 1717, -1659
0.355429, -594, -2066, 140, 686, 1717, -1659
0.355564, -594, -2066, 140, 686, 1717, -1659
0.355698, -857, -2075, -246, 608, 1687, -1214
0.355832, -857, -2075, -246, 608, 1687, -1214
0.355967, -857, -2075, -246, 608, 1687, -1214
0.356101, -857, -2075, -246, 608, 1687, -1214
0.356235, -857, -2075, -246, 608, 1687, -1214
0.356369, -857, -2075, -246, 608, 1687, -1214
0.356503, -857, -2075, -246, 608, 1687, -1214
0.356637, -857, -2075, -246, 608, 1687, -1214
0.356771, -741, -2041, -327, 448, 1543, -709
0.356905, -741, -2041, -327, 448, 1543, -709
0.357040, -741, -2041, -327, 448, 1543, -709
0.357174, -741, -2041, -327, 448, 1543, -709
0.357308, -741, -2041, -327, 448, 1543, -709
0.357442, -741, -2041, -327, 448, 1543, -709
0.357576, -741, -2041, -327, 448, 1543, -709
0.357710, -305, -2026, -267, 296, 1318, -395
0.357844, -305, -2026, -267, 296, 1318, -395
0.357978, -305, -2026, -267, 296, 1318, -395
0.358112, -305, -2026, -267, 296, 1318, -395
0.358247, -305, -2026, -267, 296, 1318, -395
0.358380, -305, -2026, -267, 296, 1318, -395
0.358515, -305, -2026, -267, 296, 1318, -395
0.358649, -305, -2026, -267, 296, 1318, -395
0.358783, 132, -2050, -92, 143, 1085, -415
0.358918, 132, -2050, -92, 143, 1085, -415
0.359052, 132, -2050, -92, 143, 1085, -415
0.359186, 132, -2050, -92, 143, 1085, -415
0.359320, 132, -2050, -92, 143, 1085, -415
0.359455, 132, -2050, -92, 143, 1085, -415
0.359589, 132, -2050, -92, 143, 1085, -415
0.359723, 132, -2050, -92, 143, 1085, -415
0.359857, 155, -2051, 118, 92, 943, -635
0.359991, 155, -2051, 118, 92, 943, -635
0.360126, 155, -2051, 118, 92, 943, -635
0.360260, 155, -2051, 118, 92, 943, -635
0.360394, 155, -2051, 118, 92, 943, -635
0.360528, 155, -2051, 118, 92, 943, -635
0.360662, 155, -2051, 118, 92, 943, -635
0.360796, -118, -2042, 188, 116, 935, -736
0.360931, -118, -2042, 188, 116, 935, -736
0.361065, -118, -2042, 188, 116, 935, -736
0.361199, -118, -2042, 188, 116, 935, -736
0.361333, -118, -2042, 188, 116, 935, -736
0.361467, -118, -2042, 188, 116, 935, -736
0.361601, -118, -2042, 188, 116, 935, -736
0.361735, -118, -2042, 188, 116, 935, -736
0.361870, -47, -2051, 245, 142, 967, -693
0.362004, -47, -2051, 245, 142, 967, -693
0.362138, -47, -2051, 245, 142, 967, -693
0.362272, -47, -2051, 245, 142, 967, -693
0.362406, -47, -2051, 245, 142, 967, -693
0.362540, -47, -2051, 245, 142, 967, -693
0.362674, -47, -2051, 245, 142, 967, -693
0.362808, 225, -2066, 332, 211, 972, -795
0.362943, 225, -2066, 332, 211, 972, -795
0.363077, 225, -2066, 332, 211, 972, -795
0.363216, 225, -2066, 332, 211, 972, -795
0.363351, 225, -2066, 332, 211, 972, -795
0.363485, 225, -2066, 332, 211, 972, -795
0.363620, 225, -2066, 332, 211, 972, -795
0.363754, 225, -2066, 332, 211, 972, -795
0.363888, 30, -2056, 290, 294, 1003, -1002
0.364022, 30, -2056, 290, 294, 1003, -1002
0.364157, 30, -2056, 290, 294, 1003, -1002
0.364291, 30, -2056, 290, 294, 1003, -1002
0.364425, 30, -2056, 290, 294, 1003, -1002
0.364559, 30, -2056, 290, 294, 1003, -1002
0.364693, 30, -2056, 290, 294, 1003, -1002
0.364828, -210, -2031, 74, 303, 1058, -1002
0.364962, -210, -2031, 74, 303, 1058, -1002
0.365096, -210, -2031, 74, 303, 1058, -1002
0.365230, -210, -2031, 74, 303, 1058, -1002
0.365364, -210, -2031, 74, 303, 1058, -1002
0.365499, -210, -2031, 74, 303, 1058, -1002
0.365633, -210, -2031, 74, 303, 1058, -1002
0.365767, -210, -2031, 74, 303, 1058, -1002
0.365901, 243, -2031, -83, 236, 1051, -959
0.366035, 243, -2031, -83, 236, 1051, -959
0.366169, 243, -2031, -83, 236, 1051, -959
0.366303, 243, -2031, -83, 236, 1051, -959
0.366438, 243, -2031, -83, 236, 1051, -959
0.366572, 243, -2031, -83, 236, 1051, -959
0.366706, 243, -2031, -83, 236, 1051, -959
0.366840, 678, -2047, -44, 161, 1000, -1263
0.366974, 678, -2047, -44, 161, 1000, -1263
0.367108, 678, -2047, -44, 161, 1000, -1263
0.367243, 678, -2047, -44, 161, 1000, -1263
0.367377, 678, -2047, -44, 161, 1000, -1263
0.367511, 678, -2047, -44, 161, 1000, -1263
0.367646, 678, -2047, -44, 161, 1000, -1263
0.367780, 678, -2047, -44, 161, 1000, -1263
0.367914, 593, -2065, 93, 107, 1035, -1709
0.368048, 593, -2065, 93, 107, 1035, -1709
0.368182, 593, -2065, 93, 107, 1035, -1709
0.368316, 593, -2065, 93, 107, 1035, -1709
0.368450, 593, -2065, 93, 107, 1035, -1709
0.368585, 593, -2065, 93, 107, 1035, -1709
0.368719, 593, -2065, 93, 107, 1035, -1709
0.368853, 593, -2065, 93, 107, 1035, -1709
0.368987, 482, -2064, 252, 130, 1188, -1986
0.369121, 482, -2064, 252, 130, 1188, -1986
0.369255, 482, -2064, 252, 130, 1188, -1986
0.369389, 482, -2064, 252, 130, 1188, -1986
0.369524, 482, -2064, 252, 130, 1188, -1986
0.369658, 482, -2064, 252, 130, 1188, -1986
0.369792, 482, -2064, 252, 130, 1188, -1986
0.369926, 432, -2048, 324, 224, 1370, -2164
0.370060, 432, -2048, 324, 224, 1370, -2164
0.370194, 432, -2048, 324, 224, 1370, -2164
0.370328, 432, -2048, 324, 224, 1370, -2164
0.370462, 432, -2048, 324, 224, 1370, -2164
0.370596, 432, -2048, 324, 224, 1370, -2164
0.370731, 432, -2048, 324, 224, 1370, -2164
0.370865, 432, -2048, 324, 224, 1370, -2164
0.370999, 466, -2049, 389, 348, 1507, -2343
0.371133, 466, -2049, 389, 348, 1507, -2343
0.371267, 466, -2049, 389, 348, 1507, -2343
0.371402, 466, -2049, 389, 348, 1507, -2343
0.371536, 466, -2049, 389, 348, 1507, -2343
0.371670, 466, -2049, 389, 348, 1507, -2343
0.371804, 466, -2049, 389, 348, 1507, -2343
0.371938, 133, -2100, 294, 535, 1589, -2523
0.372073, 133, -2100, 294, 535, 1589, -2523
0.372207, 133, -2100, 294, 535, 1589, -2523
0.372341, 133, -2100, 294, 535, 1589, -2523
0.372475, 133, -2100, 294, 535, 1589, -2523
0.372609, 133, -2100, 294, 535, 1589, -2523
0.372743, 133, -2100, 294, 535, 1589, -2523
0.372877, 133, -2100, 294, 535, 1589, -2523
0.373012, -1161, -2124, -294, 500, 1646, -2281
0.373146, -1161, -2124, -294, 500, 1646, -2281
0.373280, -1161, -2124, -294, 500, 1646, -2281
0.373414, -1161, -2124, -294, 500, 1646, -2281
0.373548, -1161, -2124, -294, 500, 1646, -2281
0.373683, -1161, -2124, -294, 500, 1646, -2281
0.373817, -1161, -2124, -294, 500, 1646, -2281
0.373951, -1688, -2053, -642, 103, 1551, -1283
0.374085, -1688, -2053, -642, 103, 1551, -1283
0.374219, -1688, -2053, -642, 103, 1551, -1283
0.374353, -1688, -2053, -642, 103, 1551, -1283
0.374487, -1688, -2053, -642, 103, 1551, -1283
0.374622, -1688, -2053, -642, 103, 1551, -1283
0.374756, -1688, -2053, -642, 103, 1551, -1283
0.374890, -1688, -2053, -642, 103, 1551, -1283
0.375024, -368, -2025, -248, -186, 1187, -469
0.375158, -368, -2025, -248, -186, 1187, -469
0.375292, -368, -2025, -248, -186, 1187, -469
0.375427, -368, -2025, -248, -186, 1187, -469
0.375570, -368, -2025, -248, -186, 1187, -469
0.375705, -368, -2025, -248, -186, 1187, -469
0.375839, -368, -2025, -248, -186, 1187, -469
0.375973, 433, -2076, 91, -215, 794, -642
0.376107, 433, -2076, 91, -215, 794, -642
0.376241, 433, -2076, 91, -215, 794, -642
0.376375, 433, -2076, 91, -215, 794, -642
0.376509, 433, -2076, 91, -215, 794, -642
0.376643, 433, -2076, 91, -215, 794, -642
0.376777, 433, -2076, 91, -215, 794, -642
0.376911, 433, -2076, 91, -215, 794, -642
0.377045, -99, -2106, 96, -242, 612, -986
0.377180, -99, -2106, 96, -242, 612, -986
0.377313, -99, -2106, 96, -242, 612, -986
0.377447, -99, -2106, 96, -242, 612, -986
0.377581, -99, -2106, 96, -242, 612, -986
0.377715, -99, -2106, 96, -242, 612, -986
0.377849, -99, -2106, 96, -242, 612, -986
0.377983, -356, -2077, 71, -267, 603, -847
0.378117, -356, -2077, 71, -267, 603, -847
0.378251, -356, -2077, 71, -267, 603, -847
0.378386, -356, -2077, 71, -267, 603, -847
0.378520, -356, -2077, 71, -267, 603, -847
0.378654, -356, -2077, 71, -267, 603, -847
0.378788, -356, -2077, 71, -267, 603, -847
0.378922, -356, -2077, 71, -267, 603, -847
0.379056, -123, -2033, 73, -279, 658, -628
0.379190, -123, -2033, 73, -279, 658, -628
