Time, ax, ay, az, gx, gy, gz
0.000014, 208, -2155, -355, 355, 718, -1176
0.000181, 208, -2155, -355, 355, 718, -1176
0.000324, 208, -2155, -355, 355, 718, -1176
0.000463, 208, -2155, -355, 355, 718, -1176
0.000602, 208, -2155, -355, 355, 718, -1176
0.000745, 208, -2155, -355, 355, 718, -1176
0.000909, -520, -2131, -50, 424, 685, -1020
0.001052, -520, -2131, -50, 424, 685, -1020
0.001200, -520, -2131, -50, 424, 685, -1020
0.001342, -520, -2131, -50, 424, 685, -1020
0.001481, -520, -2131, -50, 424, 685, -1020
0.001619, -520, -2131, -50, 424, 685, -1020
0.001756, -520, -2131, -50, 424, 685, -1020
0.001893, -804, -2113, -542, 181, 671, -513
0.002035, -804, -2113, -542, 181, 671, -513
0.002173, -804, -2113, -542, 181, 671, -513
0.002310, -804, -2113, -542, 181, 671, -513
0.002448, -804, -2113, -542, 181, 671, -513
0.002585, -804, -2113, -542, 181, 671, -513
0.002722, -804, -2113, -542, 181, 671, -513
0.002859, 70, -2059, 296, -69, 591, -119
0.003001, 70, -2059, 296, -69, 591, -119
0.003138, 70, -2059, 296, -69, 591, -119
0.003276, 70, -2059, 296, -69, 591, -119
0.003413, 70, -2059, 296, -69, 591, -119
0.003550, 70, -2059, 296, -69, 591, -119
0.003688, 70, -2059, 296, -69, 591, -119
0.003825, 70, -2059, 296, -69, 591, -119
0.003962, 1378, -1944, 1333, 521, 452, -526
0.004104, 1378, -1944, 1333, 521, 452, -526
0.004242, 1378, -1944, 1333, 521, 452, -526
0.004379, 1378, -1944, 1333, 521, 452, -526
0.004517, 1378, -1944, 1333, 521, 452, -526
0.004654, 1378, -1944, 1333, 521, 452, -526
0.004791, 1378, -1944, 1333, 521, 452, -526
0.004928, 1100, -1857, 332, 1051, 619, -1497
0.005069, 1100, -1857, 332, 1051, 619, -1497
0.005209, 1100, -1857, 332, 1051, 619, -1497
0.005351, 1100, -1857, 332, 1051, 619, -1497
0.005490, 1100, -1857, 332, 1051, 619, -1497
0.005627, 1100, -1857, 332, 1051, 619, -1497
0.005764, 1100, -1857, 332, 1051, 619, -1497
0.005901, -293, -2019, -1103, 582, 927, -1824
0.006042, -293, -2019, -1103, 582, 927, -1824
0.006180, -293, -2019, -1103, 582, 927, -1824
0.006318, -293, -2019, -1103, 582, 927, -1824
0.006478, -293, -2019, -1103, 582, 927, -1824
0.006622, -293, -2019, -1103, 582, 927, -1824
0.006762, -293, -2019, -1103, 582, 927, -1824
0.006901, -809, -2203, -972, -93, 940, -1239
0.007039, -809, -2203, -972, -93, 940, -1239
0.007178, -809, -2203, -972, -93, 940, -1239
0.007316, -809, -2203, -972, -93, 940, -1239
0.007454, -809, -2203, -972, -93, 940, -1239
0.007591, -809, -2203, -972, -93, 940, -1239
0.007728, -809, -2203, -972, -93, 940, -1239
0.007866, -809, -2203, -972, -93, 940, -1239
0.008003, -387, -2167, -38, -171, 794, -598
0.008144, -387, -2167, -38, -171, 794, -598
0.008282, -387, -2167, -38, -171, 794, -598
0.008419, -387, -2167, -38, -171, 794, -598
0.008557, -387, -2167, -38, -171, 794, -598
0.008694, -387, -2167, -38, -171, 794, -598
0.008831, -387, -2167, -38, -171, 794, -598
0.008968, 147, -2081, 581, 36, 796, -410
0.009109, 147, -2081, 581, 36, 796, -410
0.009249, 147, -2081, 581, 36, 796, -410
0.009387, 147, -2081, 581, 36, 796, -410
0.009525, 147, -2081, 581, 36, 796, -410
0.009662, 147, -2081, 581, 36, 796, -410
0.009799, 147, -2081, 581, 36, 796, -410
0.009936, 708, -2025, 1010, 312, 816, -643
0.010074, 708, -2025, 1010, 312, 816, -643
0.010211, 708, -2025, 1010, 312, 816, -643
0.010349, 708, -2025, 1010, 312, 816, -643
0.010486, 708, -2025, 1010, 312, 816, -643
0.010623, 708, -2025, 1010, 312, 816, -643
0.010760, 708, -2025, 1010, 312, 816, -643
0.010898, 708, -2025, 1010, 312, 816, -643
0.011035, 1065, -1934, 1340, 948, 802, -1204
0.011176, 1065, -1934, 1340, 948, 802, -1204
0.011313, 1065, -1934, 1340, 948, 802, -1204
0.011450, 1065, -1934, 1340, 948, 802, -1204
0.011587, 1065, -1934, 1340, 948, 802, -1204
0.011725, 1065, -1934, 1340, 948, 802, -1204
0.011862, 1065, -1934, 1340, 948, 802, -1204
0.011999, 497, -1937, 443, 1610, 1008, -1738
0.012140, 497, -1937, 443, 1610, 1008, -1738
0.012277, 497, -1937, 443, 1610, 1008, -1738
0.012414, 497, -1937, 443, 1610, 1008, -1738
0.012552, 497, -1937, 443, 1610, 1008, -1738
0.012689, 497, -1937, 443, 1610, 1008, -1738
0.012826, 497, -1937, 443, 1610, 1008, -1738
0.013005, -746, -2099, -1322, 1341, 1257, -1612
0.013146, -746, -2099, -1322, 1341, 1257, -1612
0.013285, -746, -2099, -1322, 1341, 1257, -1612
0.013423, -746, -2099, -1322, 1341, 1257, -1612
0.013561, -746, -2099, -1322, 1341, 1257, -1612
0.013699, -746, -2099, -1322, 1341, 1257, -1612
0.013836, -746, -2099, -1322, 1341, 1257, -1612
0.013974, -746, -2099, -1322, 1341, 1257, -1612
0.014111, -1121, -2141, -1341, 559, 1092, -770
0.014252, -1121, -2141, -1341, 559, 1092, -770
0.014390, -1121, -2141, -1341, 559, 1092, -770
0.014527, -1121, -2141, -1341, 559, 1092, -770
0.014664, -1121, -2141, -1341, 559, 1092, -770
0.014801, -1121, -2141, -1341, 559, 1092, -770
0.014939, -1121, -2141, -1341, 559, 1092, -770
0.015076, -658, -2075, -500, 314, 723, -2
0.015218, -658, -2075, -500, 314, 723, -2
0.015356, -658, -2075, -500, 314, 723, -2
0.015493, -658, -2075, -500, 314, 723, -2
0.015631, -658, -2075, -500, 314, 723, -2
0.015768, -658, -2075, -500, 314, 723, -2
0.015905, -658, -2075, -500, 314, 723, -2
0.016042, -339, -2060, -607, 10, 603, 343
0.016183, -339, -2060, -607, 10, 603, 343
0.016320, -339, -2060, -607, 10, 603, 343
0.016457, -339, -2060, -607, 10, 603, 343
0.016594, -339, -2060, -607, 10, 603, 343
0.016732, -339, -2060, -607, 10, 603, 343
0.016869, -339, -2060, -607, 10, 603, 343
0.017006, -339, -2060, -607, 10, 603, 343
0.017143, 268, -2047, -238, -509, 510, 383
0.017285, 268, -2047, -238, -509, 510, 383
0.017423, 268, -2047, -238, -509, 510, 383
0.017560, 268, -2047, -238, -509, 510, 383
0.017698, 268, -2047, -238, -509, 510, 383
0.017835, 268, -2047, -238, -509, 510, 383
0.017973, 268, -2047, -238, -509, 510, 383
0.018111, 542, -2056, 371, -469, 363, 50
0.018252, 542, -2056, 371, -469, 363, 50
0.018391, 542, -2056, 371, -469, 363, 50
0.018528, 542, -2056, 371, -469, 363, 50
0.018666, 542, -2056, 371, -469, 363, 50
0.018804, 542, -2056, 371, -469, 363, 50
0.018942, 542, -2056, 371, -469, 363, 50
0.019079, -15, -2064, 352, -233, 494, -218
0.019221, -15, -2064, 352, -233, 494, -218
0.019359, -15, -2064, 352, -233, 494, -218
0.019497, -15, -2064, 352, -233, 494, -218
0.019634, -15, -2064, 352, -233, 494, -218
0.019773, -15, -2064, 352, -233, 494, -218
0.019910, -15, -2064, 352, -233, 494, -218
0.020047, -15, -2064, 352, -233, 494, -218
0.020185, -150, -2081, 353, -157, 631, -103
0.020321, -150, -2081, 353, -157, 631, -103
0.020456, -150, -2081, 353, -157, 631, -103
0.020592, -150, -2081, 353, -157, 631, -103
0.020727, -150, -2081, 353, -157, 631, -103
0.020863, -150, -2081, 353, -157, 631, -103
0.020998, -150, -2081, 353, -157, 631, -103
0.021134, 209, -2118, 537, 69, 496, -43
0.021271, 209, -2118, 537, 69, 496, -43
0.021410, 209, -2118, 537, 69, 496, -43
0.021548, 209, -2118, 537, 69, 496, -43
0.021686, 209, -2118, 537, 69, 496, -43
0.021824, 209, -2118, 537, 69, 496, -43
0.021961, 209, -2118, 537, 69, 496, -43
0.022098, 610, -2127, 739, 528, 407, -255
0.022237, 610, -2127, 739, 528, 407, -255
0.022376, 610, -2127, 739, 528, 407, -255
0.022514, 610, -2127, 739, 528, 407, -255
0.022651, 610, -2127, 739, 528, 407, -255
0.022790, 610, -2127, 739, 528, 407, -255
0.022927, 610, -2127, 739, 528, 407, -255
0.023065, 610, -2127, 739, 528, 407, -255
0.023203, 898, -2105, 643, 1003, 516, -681
0.023344, 898, -2105, 643, 1003, 516, -681
0.023483, 898, -2105, 643, 1003, 516, -681
0.023621, 898, -2105, 643, 1003, 516, -681
0.023758, 898, -2105, 643, 1003, 516, -681
0.023897, 898, -2105, 643, 1003, 516, -681
0.024034, 898, -2105, 643, 1003, 516, -681
0.024172, 613, -1994, 585, 1372, 723, -1125
0.024314, 613, -1994, 585, 1372, 723, -1125
0.024453, 613, -1994, 585, 1372, 723, -1125
0.024590, 613, -1994, 585, 1372, 723, -1125
0.024728, 613, -1994, 585, 1372, 723, -1125
0.024865, 613, -1994, 585, 1372, 723, -1125
0.025003, 613, -1994, 585, 1372, 723, -1125
0.025140, 67, -1933, 446, 1748, 987, -1261
0.025279, 67, -1933, 446, 1748, 987, -1261
0.025418, 67, -1933, 446, 1748, 987, -1261
0.025555, 67, -1933, 446, 1748, 987, -1261
0.025692, 67, -1933, 446, 1748, 987, -1261
0.025831, 67, -1933, 446, 1748, 987, -1261
0.025969, 67, -1933, 446, 1748, 987, -1261
0.026115, 67, -1933, 446, 1748, 987, -1261
0.026252, -310, -2014, -636, 1729, 1257, -1070
0.026394, -310, -2014, -636, 1729, 1257, -1070
0.026532, -310, -2014, -636, 1729, 1257, -1070
0.026670, -310, -2014, -636, 1729, 1257, -1070
0.026807, -310, -2014, -636, 1729, 1257, -1070
0.026944, -310, -2014, -636, 1729, 1257, -1070
0.027082, -310, -2014, -636, 1729, 1257, -1070
0.027219, -380, -2134, -1720, 943, 1319, -729
0.027361, -380, -2134, -1720, 943, 1319, -729
0.027498, -380, -2134, -1720, 943, 1319, -729
0.027635, -380, -2134, -1720, 943, 1319, -729
0.027773, -380, -2134, -1720, 943, 1319, -729
0.027910, -380, -2134, -1720, 943, 1319, -729
0.028047, -380, -2134, -1720, 943, 1319, -729
0.028186, -267, -2189, -1629, 1, 1064, -449
0.028324, -267, -2189, -1629, 1, 1064, -449
0.028461, -267, -2189, -1629, 1, 1064, -449
0.028598, -267, -2189, -1629, 1, 1064, -449
0.028736, -267, -2189, -1629, 1, 1064, -449
0.028873, -267, -2189, -1629, 1, 1064, -449
0.029010, -267, -2189, -1629, 1, 1064, -449
0.029148, -267, -2189, -1629, 1, 1064, -449
0.029286, -206, -2049, -666, -569, 766, -286
0.029427, -206, -2049, -666, -569, 766, -286
0.029565, -206, -2049, -666, -569, 766, -286
0.029702, -206, -2049, -666, -569, 766, -286
0.029839, -206, -2049, -666, -569, 766, -286
0.029977, -206, -2049, -666, -569, 766, -286
0.030114, -206, -2049, -666, -569, 766, -286
0.030252, -91, -1956, 322, -795, 660, -213
0.030393, -91, -1956, 322, -795, 660, -213
0.030531, -91, -1956, 322, -795, 660, -213
0.030668, -91, -1956, 322, -795, 660, -213
0.030805, -91, -1956, 322, -795, 660, -213
0.030943, -91, -1956, 322, -795, 660, -213
0.031080, -91, -1956, 322, -795, 660, -213
0.031218, -278, -2058, 825, -708, 675, -187
0.031356, -278, -2058, 825, -708, 675, -187
0.031495, -278, -2058, 825, -708, 675, -187
0.031632, -278, -2058, 825, -708, 675, -187
0.031769, -278, -2058, 825, -708, 675, -187
0.031907, -278, -2058, 825, -708, 675, -187
0.032044, -278, -2058, 825, -708, 675, -187
0.032181, -278, -2058, 825, -708, 675, -187
0.032319, -404, -2050, 975, -297, 670, -18
0.032460, -404, -2050, 975, -297, 670, -18
0.032599, -404, -2050, 975, -297, 670, -18
0.032736, -404, -2050, 975, -297, 670, -18
0.032874, -404, -2050, 975, -297, 670, -18
0.033011, -404, -2050, 975, -297, 670, -18
0.033148, -404, -2050, 975, -297, 670, -18
0.033286, -122, -1962, 446, 153, 610, 130
0.033428, -122, -1962, 446, 153, 610, 130
0.033567, -122, -1962, 446, 153, 610, 130
0.033705, -122, -1962, 446, 153, 610, 130
0.033844, -122, -1962, 446, 153, 610, 130
0.033981, -122, -1962, 446, 153, 610, 130
0.034119, -122, -1962, 446, 153, 610, 130
0.034257, -169, -2022, -758, 44, 506, 143
0.034394, -169, -2022, -758, 44, 506, 143
0.034533, -169, -2022, -758, 44, 506, 143
0.034671, -169, -2022, -758, 44, 506, 143
0.034808, -169, -2022, -758, 44, 506, 143
0.034946, -169, -2022, -758, 44, 506, 143
0.035083, -169, -2022, -758, 44, 506, 143
0.035220, -169, -2022, -758, 44, 506, 143
0.035358, 7, -2082, -1041, -521, 301, 224
0.035499, 7, -2082, -1041, -521, 301, 224
0.035637, 7, -2082, -1041, -521, 301, 224
0.035774, 7, -2082, -1041, -521, 301, 224
0.035911, 7, -2082, -1041, -521, 301, 224
0.036049, 7, -2082, -1041, -521, 301, 224
0.036186, 7, -2082, -1041, -521, 301, 224
0.036323, 635, -2074, -176, -751, 132, 96
0.036465, 635, -2074, -176, -751, 132, 96
0.036603, 635, -2074, -176, -751, 132, 96
0.036741, 635, -2074, -176, -751, 132, 96
0.036878, 635, -2074, -176, -751, 132, 96
0.037015, 635, -2074, -176, -751, 132, 96
0.037153, 635, -2074, -176, -751, 132, 96
0.037291, 635, -2074, -176, -751, 132, 96
0.037426, 437, -2112, 151, -675, 317, -301
0.037562, 437, -2112, 151, -675, 317, -301
0.037698, 437, -2112, 151, -675, 317, -301
0.037833, 437, -2112, 151, -675, 317, -301
0.037969, 437, -2112, 151, -675, 317, -301
0.038105, 437, -2112, 151, -675, 317, -301
0.038240, 437, -2112, 151, -675, 317, -301
0.038376, -185, -2102, 28, -757, 731, -386
0.038512, -185, -2102, 28, -757, 731, -386
0.038647, -185, -2102, 28, -757, 731, -386
0.038783, -185, -2102, 28, -757, 731, -386
0.038918, -185, -2102, 28, -757, 731, -386
0.039060, -185, -2102, 28, -757, 731, -386
0.039199, -185, -2102, 28, -757, 731, -386
0.039336, -123, -2033, 435, -711, 973, -188
0.039473, -123, -2033, 435, -711, 973, -188
0.039612, -123, -2033, 435, -711, 973, -188
0.039749, -123, -2033, 435, -711, 973, -188
0.039886, -123, -2033, 435, -711, 973, -188
0.040023, -123, -2033, 435, -711, 973, -188
0.040160, -123, -2033, 435, -711, 973, -188
0.040297, -123, -2033, 435, -711, 973, -188
0.040435, 364, -1990, 1102, -239, 1092, -226
0.040576, 364, -1990, 1102, -239, 1092, -226
0.040714, 364, -1990, 1102, -239, 1092, -226
0.040851, 364, -1990, 1102, -239, 1092, -226
0.040989, 364, -1990, 1102, -239, 1092, -226
0.041126, 364, -1990, 1102, -239, 1092, -226
0.041264, 364, -1990, 1102, -239, 1092, -226
0.041396, 671, -2027, 1605, 520, 1195, -642
0.041538, 671, -2027, 1605, 520, 1195, -642
0.041676, 671, -2027, 1605, 520, 1195, -642
0.041815, 671, -2027, 1605, 520, 1195, -642
0.041953, 671, -2027, 1605, 520, 1195, -642
0.042090, 671, -2027, 1605, 520, 1195, -642
0.042227, 671, -2027, 1605, 520, 1195, -642
0.042363, -2, -2146, 1031, 1246, 1190, -1079
0.042502, -2, -2146, 1031, 1246, 1190, -1079
0.042641, -2, -2146, 1031, 1246, 1190, -1079
0.042779, -2, -2146, 1031, 1246, 1190, -1079
0.042917, -2, -2146, 1031, 1246, 1190, -1079
0.043056, -2, -2146, 1031, 1246, 1190, -1079
0.043193, -2, -2146, 1031, 1246, 1190, -1079
0.043330, -2, -2146, 1031, 1246, 1190, -1079
0.043469, -1100, -2160, -478, 1410, 1100, -853
0.043610, -1100, -2160, -478, 1410, 1100, -853
0.043748, -1100, -2160, -478, 1410, 1100, -853
0.043885, -1100, -2160, -478, 1410, 1100, -853
0.044024, -1100, -2160, -478, 1410, 1100, -853
0.044161, -1100, -2160, -478, 1410, 1100, -853
0.044298, -1100, -2160, -478, 1410, 1100, -853
0.044436, -965, -2068, -768, 1138, 882, -76
0.044578, -965, -2068, -768, 1138, 882, -76
0.044716, -965, -2068, -768, 1138, 882, -76
0.044854, -965, -2068, -768, 1138, 882, -76
0.044991, -965, -2068, -768, 1138, 882, -76
0.045130, -965, -2068, -768, 1138, 882, -76
0.045269, -965, -2068, -768, 1138, 882, -76
0.045407, -258, -2032, -64, 1117, 586, 355
0.045545, -258, -2032, -64, 1117, 586, 355
0.045683, -258, -2032, -64, 1117, 586, 355
0.045820, -258, -2032, -64, 1117, 586, 355
0.045958, -258, -2032, -64, 1117, 586, 355
0.046095, -258, -2032, -64, 1117, 586, 355
0.046233, -258, -2032, -64, 1117, 586, 355
0.046371, -258, -2032, -64, 1117, 586, 355
0.046508, -143, -2041, -367, 1057, 458, 345
0.046650, -143, -2041, -367, 1057, 458, 345
0.046788, -143, -2041, -367, 1057, 458, 345
0.046927, -143, -2041, -367, 1057, 458, 345
0.047064, -143, -2041, -367, 1057, 458, 345
0.047201, -143, -2041, -367, 1057, 458, 345
0.047338, -143, -2041, -367, 1057, 458, 345
0.047476, -64, -2050, -860, 500, 417, 329
0.047618, -64, -2050, -860, 500, 417, 329
0.047756, -64, -2050, -860, 500, 417, 329
0.047893, -64, -2050, -860, 500, 417, 329
0.048031, -64, -2050, -860, 500, 417, 329
0.048168, -64, -2050, -860, 500, 417, 329
0.048305, -64, -2050, -860, 500, 417, 329
0.048443, -64, -2050, -860, 500, 417, 329
0.048580, 100, -2038, -373, 72, 356, 298
0.048722, 100, -2038, -373, 72, 356, 298
0.048860, 100, -2038, -373, 72, 356, 298
0.048997, 100, -2038, -373, 72, 356, 298
0.049135, 100, -2038, -373, 72, 356, 298
0.049272, 100, -2038, -373, 72, 356, 298
0.049411, 100, -2038, -373, 72, 356, 298
0.049548, 87, -2034, 161, 61, 471, 222
0.049690, 87, -2034, 161, 61, 471, 222
0.049828, 87, -2034, 161, 61, 471, 222
0.049966, 87, -2034, 161, 61, 471, 222
0.050104, 87, -2034, 161, 61, 471, 222
0.050242, 87, -2034, 161, 61, 471, 222
0.050379, 87, -2034, 161, 61, 471, 222
0.050518, 149, -2118, 290, 82, 650, 135
0.050659, 149, -2118, 290, 82, 650, 135
0.050797, 149, -2118, 290, 82, 650, 135
0.050934, 149, -2118, 290, 82, 650, 135
0.051072, 149, -2118, 290, 82, 650, 135
0.051210, 149, -2118, 290, 82, 650, 135
0.051348, 149, -2118, 290, 82, 650, 135
0.051486, 149, -2118, 290, 82, 650, 135
0.051624, 112, -2146, 320, 143, 634, -8
0.051765, 112, -2146, 320, 143, 634, -8
0.051904, 112, -2146, 320, 143, 634, -8
0.052042, 112, -2146, 320, 143, 634, -8
0.052188, 112, -2146, 320, 143, 634, -8
0.052325, 112, -2146, 320, 143, 634, -8
0.052463, 112, -2146, 320, 143, 634, -8
0.052601, -88, -2003, 252, 338, 558, -81
0.052743, -88, -2003, 252, 338, 558, -81
0.052881, -88, -2003, 252, 338, 558, -81
0.053019, -88, -2003, 252, 338, 558, -81
0.053160, -88, -2003, 252, 338, 558, -81
0.053301, -88, -2003, 252, 338, 558, -81
0.053442, -88, -2003, 252, 338, 558, -81
0.053581, -116, -1950, -28, 393, 561, -50
0.053721, -116, -1950, -28, 393, 561, -50
0.053855, -116, -1950, -28, 393, 561, -50
0.053990, -116, -1950, -28, 393, 561, -50
0.054124, -116, -1950, -28, 393, 561, -50
0.054258, -116, -1950, -28, 393, 561, -50
0.054392, -116, -1950, -28, 393, 561, -50
0.054533, -122, -2052, -247, 209, 535, -31
0.054668, -122, -2052, -247, 209, 535, -31
0.054802, -122, -2052, -247, 209, 535, -31
0.054936, -122, -2052, -247, 209, 535, -31
0.055070, -122, -2052, -247, 209, 535, -31
0.055204, -122, -2052, -247, 209, 535, -31
0.055338, -122, -2052, -247, 209, 535, -31
0.055472, -122, -2052, -247, 209, 535, -31
0.055606, -157, -2089, -99, 93, 433, 11
0.055740, -157, -2089, -99, 93, 433, 11
0.055874, -157, -2089, -99, 93, 433, 11
0.056009, -157, -2089, -99, 93, 433, 11
0.056143, -157, -2089, -99, 93, 433, 11
0.056277, -157, -2089, -99, 93, 433, 11
0.056411, -157, -2089, -99, 93, 433, 11
0.056545, -157, -2089, -99, 93, 433, 11
0.056679, 177, -2063, 193, 174, 400, 24
0.056814, 177, -2063, 193, 174, 400, 24
0.056948, 177, -2063, 193, 174, 400, 24
0.057082, 177, -2063, 193, 174, 400, 24
0.057216, 177, -2063, 193, 174, 400, 24
0.057351, 177, -2063, 193, 174, 400, 24
0.057486, 177, -2063, 193, 174, 400, 24
0.057620, 293, -2076, 139, 260, 514, -176
0.057754, 293, -2076, 139, 260, 514, -176
0.057888, 293, -2076, 139, 260, 514, -176
0.058022, 293, -2076, 139, 260, 514, -176
0.058157, 293, -2076, 139, 260, 514, -176
0.058291, 293, -2076, 139, 260, 514, -176
0.058425, 293, -2076, 139, 260, 514, -176
0.058559, 293, -2076, 139, 260, 514, -176
0.058693, -342, -2099, -328, 142, 661, -274
0.058828, -342, -2099, -328, 142, 661, -274
0.058962, -342, -2099, -328, 142, 661, -274
0.059096, -342, -2099, -328, 142, 661, -274
0.059230, -342, -2099, -328, 142, 661, -274
0.059364, -342, -2099, -328, 142, 661, -274
0.059499, -342, -2099, -328, 142, 661, -274
0.059633, -665, -2090, -354, -108, 694, 65
0.059767, -665, -2090, -354, -108, 694, 65
0.059901, -665, -2090, -354, -108, 694, 65
0.060036, -665, -2090, -354, -108, 694, 65
0.060170, -665, -2090, -354, -108, 694, 65
0.060304, -665, -2090, -354, -108, 694, 65
0.060438, -665, -2090, -354, -108, 694, 65
0.060572, -665, -2090, -354, -108, 694, 65
0.060706, -319, -2031, 297, -122, 610, 414
0.060841, -319, -2031, 297, -122, 610, 414
0.060975, -319, -2031, 297, -122, 610, 414
0.061109, -319, -2031, 297, -122, 610, 414
0.061244, -319, -2031, 297, -122, 610, 414
0.061378, -319, -2031, 297, -122, 610, 414
0.061512, -319, -2031, 297, -122, 610, 414
0.061646, -23, -1978, 749, 140, 528, 436
0.061781, -23, -1978, 749, 140, 528, 436
0.061915, -23, -1978, 749, 140, 528, 436
0.062049, -23, -1978, 749, 140, 528, 436
0.062183, -23, -1978, 749, 140, 528, 436
0.062318, -23, -1978, 749, 140, 528, 436
0.062452, -23, -1978, 749, 140, 528, 436
0.062586, -23, -1978, 749, 140, 528, 436
0.062720, -29, -2070, 241, 314, 484, 313
0.062854, -29, -2070, 241, 314, 484, 313
0.062989, -29, -2070, 241, 314, 484, 313
0.063123, -29, -2070, 241, 314, 484, 313
0.063257, -29, -2070, 241, 314, 484, 313
0.063391, -29, -2070, 241, 314, 484, 313
0.063525, -29, -2070, 241, 314, 484, 313
0.063659, -353, -2156, -1085, 6, 416, 319
0.063794, -353, -2156, -1085, 6, 416, 319
0.063928, -353, -2156, -1085, 6, 416, 319
0.064062, -353, -2156, -1085, 6, 416, 319
0.064196, -353, -2156, -1085, 6, 416, 319
0.064331, -353, -2156, -1085, 6, 416, 319
0.064465, -353, -2156, -1085, 6, 416, 319
0.064599, -353, -2156, -1085, 6, 416, 319
0.064733, -589, -2063, -1658, -764, 244, 602
0.064867, -589, -2063, -1658, -764, 244, 602
0.065001, -589, -2063, -1658, -764, 244, 602
0.065136, -589, -2063, -1658, -764, 244, 602
0.065270, -589, -2063, -1658, -764, 244, 602
0.065423, -589, -2063, -1658, -764, 244, 602
0.065559, -589, -2063, -1658, -764, 244, 602
0.065693, -393, -1996, -781, -1398, 22, 962
0.065827, -393, -1996, -781, -1398, 22, 962
0.065962, -393, -1996, -781, -1398, 22, 962
0.066096, -393, -1996, -781, -1398, 22, 962
0.066230, -393, -1996, -781, -1398, 22, 962
0.066364, -393, -1996, -781, -1398, 22, 962
0.066498, -393, -1996, -781, -1398, 22, 962
0.066633, -393, -1996, -781, -1398, 22, 962
0.066767, -3, -2027, 320, -1578, -59, 1096
0.066901, -3, -2027, 320, -1578, -59, 1096
0.067035, -3, -2027, 320, -1578, -59, 1096
0.067170, -3, -2027, 320, -1578, -59, 1096
0.067304, -3, -2027, 320, -1578, -59, 1096
0.067438, -3, -2027, 320, -1578, -59, 1096
0.067573, -3, -2027, 320, -1578, -59, 1096
0.067707, 507, -2028, 921, -1419, 23, 925
0.067842, 507, -2028, 921, -1419, 23, 925
0.067976, 507, -2028, 921, -1419, 23, 925
0.068110, 507, -2028, 921, -1419, 23, 925
0.068245, 507, -2028, 921, -1419, 23, 925
0.068379, 507, -2028, 921, -1419, 23, 925
0.068513, 507, -2028, 921, -1419, 23, 925
0.068647, 507, -2028, 921, -1419, 23, 925
0.068781, 1009, -2009, 1302, -913, 186, 439
0.068916, 1009, -2009, 1302, -913, 186, 439
0.069050, 1009, -2009, 1302, -913, 186, 439
0.069184, 1009, -2009, 1302, -913, 186, 439
0.069319, 1009, -2009, 1302, -913, 186, 439
0.069453, 1009, -2009, 1302, -913, 186, 439
0.069587, 1009, -2009, 1302, -913, 186, 439
0.069721, 1009, -2009, 1302, -913, 186, 439
0.069856, 905, -2025, 1527, -78, 467, -209
0.069990, 905, -2025, 1527, -78, 467, -209
0.070124, 905, -2025, 1527, -78, 467, -209
0.070259, 905, -2025, 1527, -78, 467, -209
0.070393, 905, -2025, 1527, -78, 467, -209
0.070527, 905, -2025, 1527, -78, 467, -209
0.070661, 905, -2025, 1527, -78, 467, -209
0.070795, 78, -2048, 693, 643, 794, -560
0.070930, 78, -2048, 693, 643, 794, -560
0.071064, 78, -2048, 693, 643, 794, -560
0.071198, 78, -2048, 693, 643, 794, -560
0.071333, 78, -2048, 693, 643, 794, -560
0.071467, 78, -2048, 693, 643, 794, -560
0.071601, 78, -2048, 693, 643, 794, -560
0.071735, 78, -2048, 693, 643, 794, -560
0.071869, -721, -2101, -1073, 516, 896, -300
0.072004, -721, -2101, -1073, 516, 896, -300
0.072138, -721, -2101, -1073, 516, 896, -300
0.072272, -721, -2101, -1073, 516, 896, -300
0.072406, -721, -2101, -1073, 516, 896, -300
0.072540, -721, -2101, -1073, 516, 896, -300
0.072675, -721, -2101, -1073, 516, 896, -300
0.072809, -656, -2136, -1286, -168, 659, 295
0.072943, -656, -2136, -1286, -168, 659, 295
0.073077, -656, -2136, -1286, -168, 659, 295
0.073211, -656, -2136, -1286, -168, 659, 295
0.073346, -656, -2136, -1286, -168, 659, 295
0.073480, -656, -2136, -1286, -168, 659, 295
0.073615, -656, -2136, -1286, -168, 659, 295
0.073749, -656, -2136, -1286, -168, 659, 295
0.073883, 171, -2029, 107, -293, 353, 578
0.074017, 171, -2029, 107, -293, 353, 578
0.074152, 171, -2029, 107, -293, 353, 578
0.074286, 171, -2029, 107, -293, 353, 578
0.074420, 171, -2029, 107, -293, 353, 578
0.074554, 171, -2029, 107, -293, 353, 578
0.074688, 171, -2029, 107, -293, 353, 578
0.074823, 616, -1986, 636, 3, 329, 280
0.074957, 616, -1986, 636, 3, 329, 280
0.075091, 616, -1986, 636, 3, 329, 280
0.075225, 616, -1986, 636, 3, 329, 280
0.075359, 616, -1986, 636, 3, 329, 280
0.075495, 616, -1986, 636, 3, 329, 280
0.075633, 616, -1986, 636, 3, 329, 280
0.075770, 616, -1986, 636, 3, 329, 280
0.075906, 328, -2083, -118, -40, 466, -126
0.076041, 328, -2083, -118, -40, 466, -126
0.076176, 328, -2083, -118, -40, 466, -126
0.076310, 328, -2083, -118, -40, 466, -126
0.076445, 328, -2083, -118, -40, 466, -126
0.076579, 328, -2083, -118, -40, 466, -126
0.076713, 328, -2083, -118, -40, 466, -126
0.076847, 214, -2093, -807, -395, 461, -258
0.076982, 214, -2093, -807, -395, 461, -258
0.077116, 214, -2093, -807, -395, 461, -258
0.077251, 214, -2093, -807, -395, 461, -258
0.077386, 214, -2093, -807, -395, 461, -258
0.077520, 214, -2093, -807, -395, 461, -258
0.077654, 214, -2093, -807, -395, 461, -258
0.077788, 214, -2093, -807, -395, 461, -258
0.077922, 281, -2040, -350, -634, 389, -341
0.078057, 281, -2040, -350, -634, 389, -341
0.078204, 281, -2040, -350, -634, 389, -341
0.078339, 281, -2040, -350, -634, 389, -341
0.078474, 281, -2040, -350, -634, 389, -341
0.078608, 281, -2040, -350, -634, 389, -341
0.078742, 281, -2040, -350, -634, 389, -341
0.078876, -170, -2052, 535, -519, 385, -383
0.079010, -170, -2052, 535, -519, 385, -383
0.079145, -170, -2052, 535, -519, 385, -383
0.079279, -170, -2052, 535, -519, 385, -383
0.079413, -170, -2052, 535, -519, 385, -383
0.079547, -170, -2052, 535, -519, 385, -383
0.079682, -170, -2052, 535, -519, 385, -383
0.079816, -170, -2052, 535, -519, 385, -383
0.079950, -475, -2102, 758, -236, 373, -134
0.080084, -475, -2102, 758, -236, 373, -134
0.080218, -475, -2102, 758, -236, 373, -134
0.080353, -475, -2102, 758, -236, 373, -134
0.080487, -475, -2102, 758, -236, 373, -134
0.080621, -475, -2102, 758, -236, 373, -134
0.080755, -475, -2102, 758, -236, 373, -134
0.080889, -85, -2100, 443, 33, 294, 123
0.081024, -85, -2100, 443, 33, 294, 123
0.081158, -85, -2100, 443, 33, 294, 123
0.081293, -85, -2100, 443, 33, 294, 123
0.081427, -85, -2100, 443, 33, 294, 123
0.081561, -85, -2100, 443, 33, 294, 123
0.081695, -85, -2100, 443, 33, 294, 123
0.081829, -85, -2100, 443, 33, 294, 123
0.081964, 258, -2068, 31, 233, 227, 66
0.082098, 258, -2068, 31, 233, 227, 66
0.082232, 258, -2068, 31, 233, 227, 66
0.082366, 258, -2068, 31, 233, 227, 66
0.082500, 258, -2068, 31, 233, 227, 66
0.082635, 258, -2068, 31, 233, 227, 66
0.082769, 258, -2068, 31, 233, 227, 66
0.082903, 258, -2068, 31, 233, 227, 66
0.083037, 329, -2046, -98, 291, 198, -122
0.083171, 329, -2046, -98, 291, 198, -122
0.083306, 329, -2046, -98, 291, 198, -122
0.083440, 329, -2046, -98, 291, 198, -122
0.083574, 329, -2046, -98, 291, 198, -122
0.083708, 329, -2046, -98, 291, 198, -122
0.083842, 329, -2046, -98, 291, 198, -122
0.083976, 331, -2027, 225, 369, 153, -279
0.084111, 331, -2027, 225, 369, 153, -279
0.084245, 331, -2027, 225, 369, 153, -279
0.084379, 331, -2027, 225, 369, 153, -279
0.084513, 331, -2027, 225, 369, 153, -279
0.084647, 331, -2027, 225, 369, 153, -279
0.084781, 331, -2027, 225, 369, 153, -279
0.084915, 331, -2027, 225, 369, 153, -279
0.085050, 268, -2044, 725, 676, 184, -395
0.085184, 268, -2044, 725, 676, 184, -395
0.085318, 268, -2044, 725, 676, 184, -395
0.085452, 268, -2044, 725, 676, 184, -395
0.085586, 268, -2044, 725, 676, 184, -395
0.085721, 268, -2044, 725, 676, 184, -395
0.085855, 268, -2044, 725, 676, 184, -395
0.085989, 135, -2056, 668, 1087, 383, -463
0.086123, 135, -2056, 668, 1087, 383, -463
0.086257, 135, -2056, 668, 1087, 383, -463
0.086390, 135, -2056, 668, 1087, 383, -463
0.086524, 135, -2056, 668, 1087, 383, -463
0.086657, 135, -2056, 668, 1087, 383, -463
0.086791, 135, -2056, 668, 1087, 383, -463
0.086924, 135, -2056, 668, 1087, 383, -463
0.087059, -212, -2029, -85, 1208, 599, -414
0.087192, -212, -2029, -85, 1208, 599, -414
0.087326, -212, -2029, -85, 1208, 599, -414
0.087459, -212, -2029, -85, 1208, 599, -414
0.087593, -212, -2029, -85, 1208, 599, -414
0.087726, -212, -2029, -85, 1208, 599, -414
0.087859, -212, -2029, -85, 1208, 599, -414
0.087993, -416, -2046, -537, 980, 623, -174
0.088127, -416, -2046, -537, 980, 623, -174
0.088260, -416, -2046, -537, 980, 623, -174
0.088394, -416, -2046, -537, 980, 623, -174
0.088527, -416, -2046, -537, 980, 623, -174
0.088660, -416, -2046, -537, 980, 623, -174
0.088794, -416, -2046, -537, 980, 623, -174
0.088927, -416, -2046, -537, 980, 623, -174
0.089061, -259, -2077, -466, 757, 443, 67
0.089194, -259, -2077, -466, 757, 443, 67
0.089328, -259, -2077, -466, 757, 443, 67
0.089462, -259, -2077, -466, 757, 443, 67
0.089595, -259, -2077, -466, 757, 443, 67
0.089729, -259, -2077, -466, 757, 443, 67
0.089862, -259, -2077, -466, 757, 443, 67
0.089996, -259, -2077, -466, 757, 443, 67
0.090129, -212, -2053, -559, 508, 203, 180
0.090263, -212, -2053, -559, 508, 203, 180
0.090396, -212, -2053, -559, 508, 203, 180
0.090530, -212, -2053, -559, 508, 203, 180
0.090663, -212, -2053, -559, 508, 203, 180
0.090796, -212, -2053, -559, 508, 203, 180
0.090930, -212, -2053, -559, 508, 203, 180
0.091063, -35, -2044, -453, 116, -5, 262
0.091201, -35, -2044, -453, 116, -5, 262
0.091335, -35, -2044, -453, 116, -5, 262
0.091469, -35, -2044, -453, 116, -5, 262
0.091602, -35, -2044, -453, 116, -5, 262
0.091736, -35, -2044, -453, 116, -5, 262
0.091869, -35, -2044, -453, 116, -5, 262
0.092003, -35, -2044, -453, 116, -5, 262
0.092136, 525, -2007, 452, 35, -116, 160
0.092270, 525, -2007, 452, 35, -116, 160
0.092403, 525, -2007, 452, 35, -116, 160
0.092537, 525, -2007, 452, 35, -116, 160
0.092670, 525, -2007, 452, 35, -116, 160
0.092804, 525, -2007, 452, 35, -116, 160
0.092937, 525, -2007, 452, 35, -116, 160
0.093071, 568, -2024, 933, 485, 1, -231
0.093204, 568, -2024, 933, 485, 1, -231
0.093338, 568, -2024, 933, 485, 1, -231
0.093472, 568, -2024, 933, 485, 1, -231
0.093605, 568, -2024, 933, 485, 1, -231
0.093739, 568, -2024, 933, 485, 1, -231
0.093872, 568, -2024, 933, 485, 1, -231
0.094006, 568, -2024, 933, 485, 1, -231
0.094139, -429, -2150, -220, 657, 275, -383
0.094273, -429, -2150, -220, 657, 275, -383
0.094407, -429, -2150, -220, 657, 275, -383
0.094541, -429, -2150, -220, 657, 275, -383
0.094676, -429, -2150, -220, 657, 275, -383
0.094810, -429, -2150, -220, 657, 275, -383
0.094944, -429, -2150, -220, 657, 275, -383
0.095078, -1094, -2128, -1312, 84, 325, 169
0.095212, -1094, -2128, -1312, 84, 325, 169
0.095346, -1094, -2128, -1312, 84, 325, 169
0.095480, -1094, -2128, -1312, 84, 325, 169
0.095614, -1094, -2128, -1312, 84, 325, 169
0.095748, -1094, -2128, -1312, 84, 325, 169
0.095882, -1094, -2128, -1312, 84, 325, 169
0.096016, -1094, -2128, -1312, 84, 325, 169
0.096150, -412, -2016, -723, -443, 56, 825
0.096284, -412, -2016, -723, -443, 56, 825
0.096418, -412, -2016, -723, -443, 56, 825
0.096552, -412, -2016, -723, -443, 56, 825
0.096686, -412, -2016, -723, -443, 56, 825
0.096820, -412, -2016, -723, -443, 56, 825
0.096954, -412, -2016, -723, -443, 56, 825
0.097088, -412, -2016, -723, -443, 56, 825
0.097222, 296, -1993, 245, -516, -143, 864
0.097363, 296, -1993, 245, -516, -143, 864
0.097498, 296, -1993, 245, -516, -143, 864
0.097632, 296, -1993, 245, -516, -143, 864
0.097766, 296, -1993, 245, -516, -143, 864
0.097901, 296, -1993, 245, -516, -143, 864
0.098032, 296, -1993, 245, -516, -143, 864
0.098166, 366, -2067, 439, -508, -153, 560
0.098300, 366, -2067, 439, -508, -153, 560
0.098435, 366, -2067, 439, -508, -153, 560
0.098569, 366, -2067, 439, -508, -153, 560
0.098703, 366, -2067, 439, -508, -153, 560
0.098837, 366, -2067, 439, -508, -153, 560
0.098972, 366, -2067, 439, -508, -153, 560
0.099106, 366, -2067, 439, -508, -153, 560
0.099240, 362, -2174, 62, -528, -130, 316
0.099374, 362, -2174, 62, -528, -130, 316
0.099509, 362, -2174, 62, -528, -130, 316
0.099643, 362, -2174, 62, -528, -130, 316
0.099777, 362, -2174, 62, -528, -130, 316
0.099911, 362, -2174, 62, -528, -130, 316
0.100045, 362, -2174, 62, -528, -130, 316
0.100180, 226, -2150, -334, -571, -10, 183
0.100314, 226, -2150, -334, -571, -10, 183
0.100448, 226, -2150, -334, -571, -10, 183
0.100583, 226, -2150, -334, -571, -10, 183
0.100717, 226, -2150, -334, -571, -10, 183
0.100851, 226, -2150, -334, -571, -10, 183
0.100985, 226, -2150, -334, -571, -10, 183
0.101120, 226, -2150, -334, -571, -10, 183
0.101254, 150, -2046, -190, -654, 166, 181
0.101389, 150, -2046, -190, -654, 166, 181
0.101523, 150, -2046, -190, -654, 166, 181
0.101652, 150, -2046, -190, -654, 166, 181
0.101788, 150, -2046, -190, -654, 166, 181
0.101924, 150, -2046, -190, -654, 166, 181
0.102059, 150, -2046, -190, -654, 166, 181
0.102194, 492, -1981, 221, -668, 210, 121
0.102329, 492, -1981, 221, -668, 210, 121
0.102466, 492, -1981, 221, -668, 210, 121
0.102604, 492, -1981, 221, -668, 210, 121
0.102746, 492, -1981, 221, -668, 210, 121
0.102887, 492, -1981, 221, -668, 210, 121
0.103022, 492, -1981, 221, -668, 210, 121
0.103156, 492, -1981, 221, -668, 210, 121
0.103290, 818, -1944, 541, -542, 168, -228
0.103425, 818, -1944, 541, -542, 168, -228
0.103561, 818, -1944, 541, -542, 168, -228
0.103698, 818, -1944, 541, -542, 168, -228
0.103832, 818, -1944, 541, -542, 168, -228
0.103967, 818, -1944, 541, -542, 168, -228
0.104122, 818, -1944, 541, -542, 168, -228
0.104261, 461, -1986, 686, -259, 248, -655
0.104396, 461, -1986, 686, -259, 248, -655
0.104530, 461, -1986, 686, -259, 248, -655
0.104664, 461, -1986, 686, -259, 248, -655
0.104800, 461, -1986, 686, -259, 248, -655
0.104935, 461, -1986, 686, -259, 248, -655
0.105069, 461, -1986, 686, -259, 248, -655
0.105203, 461, -1986, 686, -259, 248, -655
0.105340, -260, -2078, 346, 14, 497, -678
0.105475, -260, -2078, 346, 14, 497, -678
0.105605, -260, -2078, 346, 14, 497, -678
0.105735, -260, -2078, 346, 14, 497, -678
0.105871, -260, -2078, 346, 14, 497, -678
0.106006, -260, -2078, 346, 14, 497, -678
0.106140, -260, -2078, 346, 14, 497, -678
0.106274, -352, -2085, -250, 53, 660, -297
0.106409, -352, -2085, -250, 53, 660, -297
0.106543, -352, -2085, -250, 53, 660, -297
0.106677, -352, -2085, -250, 53, 660, -297
0.106811, -352, -2085, -250, 53, 660, -297
0.106946, -352, -2085, -250, 53, 660, -297
0.107080, -352, -2085, -250, 53, 660, -297
0.107214, -352, -2085, -250, 53, 660, -297
0.107348, 213, -2059, -488, -113, 530, -61
0.107483, 213, -2059, -488, -113, 530, -61
0.107617, 213, -2059, -488, -113, 530, -61
0.107751, 213, -2059, -488, -113, 530, -61
0.107885, 213, -2059, -488, -113, 530, -61
0.108019, 213, -2059, -488, -113, 530, -61
0.108153, 213, -2059, -488, -113, 530, -61
0.108287, 610, -2109, -81, -219, 303, -255
0.108422, 610, -2109, -81, -219, 303, -255
0.108556, 610, -2109, -81, -219, 303, -255
0.108690, 610, -2109, -81, -219, 303, -255
0.108824, 610, -2109, -81, -219, 303, -255
0.108958, 610, -2109, -81, -219, 303, -255
0.109092, 610, -2109, -81, -219, 303, -255
0.109235, 610, -2109, -81, -219, 303, -255
0.109369, 635, -2088, 588, -2, 251, -601
0.109503, 635, -2088, 588, -2, 251, -601
0.109637, 635, -2088, 588, -2, 251, -601
0.109772, 635, -2088, 588, -2, 251, -601
0.109906, 635, -2088, 588, -2, 251, -601
0.110040, 635, -2088, 588, -2, 251, -601
0.110174, 635, -2088, 588, -2, 251, -601
0.110308, 611, -1993, 641, 369, 380, -886
0.110443, 611, -1993, 641, 369, 380, -886
0.110577, 611, -1993, 641, 369, 380, -886
0.110711, 611, -1993, 641, 369, 380, -886
0.110845, 611, -1993, 641, 369, 380, -886
0.110979, 611, -1993, 641, 369, 380, -886
0.111114, 611, -1993, 641, 369, 380, -886
0.111248, 611, -1993, 641, 369, 380, -886
0.111382, 231, -2029, 237, 548, 582, -1084
0.111516, 231, -2029, 237, 548, 582, -1084
0.111650, 231, -2029, 237, 548, 582, -1084
0.111784, 231, -2029, 237, 548, 582, -1084
0.111927, 231, -2029, 237, 548, 582, -1084
0.112062, 231, -2029, 237, 548, 582, -1084
0.112197, 231, -2029, 237, 548, 582, -1084
0.112331, -673, -2124, -190, 571, 712, -904
0.112465, -673, -2124, -190, 571, 712, -904
0.112600, -673, -2124, -190, 571, 712, -904
0.112734, -673, -2124, -190, 571, 712, -904
0.112868, -673, -2124, -190, 571, 712, -904
0.113002, -673, -2124, -190, 571, 712, -904
0.113136, -673, -2124, -190, 571, 712, -904
0.113271, -673, -2124, -190, 571, 712, -904
0.113405, -1084, -2117, -631, 434, 629, -204
0.113540, -1084, -2117, -631, 434, 629, -204
0.113674, -1084, -2117, -631, 434, 629, -204
0.113808, -1084, -2117, -631, 434, 629, -204
0.113942, -1084, -2117, -631, 434, 629, -204
0.114077, -1084, -2117, -631, 434, 629, -204
0.114211, -1084, -2117, -631, 434, 629, -204
0.114345, -314, -2008, -444, 162, 314, 439
0.114479, -314, -2008, -444, 162, 314, 439
0.114614, -314, -2008, -444, 162, 314, 439
0.114748, -314, -2008, -444, 162, 314, 439
0.114882, -314, -2008, -444, 162, 314, 439
0.115016, -314, -2008, -444, 162, 314, 439
0.115150, -314, -2008, -444, 162, 314, 439
0.115285, -314, -2008, -444, 162, 314, 439
0.115419, 516, -1948, 66, 53, -26, 402
0.115553, 516, -1948, 66, 53, -26, 402
0.115688, 516, -1948, 66, 53, -26, 402
0.115822, 516, -1948, 66, 53, -26, 402
0.115956, 516, -1948, 66, 53, -26, 402
0.116090, 516, -1948, 66, 53, -26, 402
0.116225, 516, -1948, 66, 53, -26, 402
0.116359, 516, -1948, 66, 53, -26, 402
0.116493, 189, -2029, -148, -22, -119, 45
0.116627, 189, -2029, -148, -22, -119, 45
0.116762, 189, -2029, -148, -22, -119, 45
0.116896, 189, -2029, -148, -22, -119, 45
0.117048, 189, -2029, -148, -22, -119, 45
0.117183, 189, -2029, -148, -22, -119, 45
0.117318, 189, -2029, -148, -22, -119, 45
0.117452, -550, -2145, -793, -384, -62, 141
0.117587, -550, -2145, -793, -384, -62, 141
0.117721, -550, -2145, -793, -384, -62, 141
0.117855, -550, -2145, -793, -384, -62, 141
0.117989, -550, -2145, -793, -384, -62, 141
0.118123, -550, -2145, -793, -384, -62, 141
0.118257, -550, -2145, -793, -384, -62, 141
0.118392, -453, -2169, -857, -858, -123, 617
0.118526, -453, -2169, -857, -858, -123, 617
0.118660, -453, -2169, -857, -858, -123, 617
0.118794, -453, -2169, -857, -858, -123, 617
0.118928, -453, -2169, -857, -858, -123, 617
0.119063, -453, -2169, -857, -858, -123, 617
0.119197, -453, -2169, -857, -858, -123, 617
0.119331, -453, -2169, -857, -858, -123, 617
0.119465, 142, -2084, -108, -1060, -261, 832
0.119599, 142, -2084, -108, -1060, -261, 832
0.119734, 142, -2084, -108, -1060, -261, 832
0.119868, 142, -2084, -108, -1060, -261, 832
0.120002, 142, -2084, -108, -1060, -261, 832
0.120136, 142, -2084, -108, -1060, -261, 832
0.120270, 142, -2084, -108, -1060, -261, 832
0.120404, 142, -2084, -108, -1060, -261, 832
0.120539, 442, -1984, 597, -935, -307, 648
0.120673, 442, -1984, 597, -935, -307, 648
0.120807, 442, -1984, 597, -935, -307, 648
0.120941, 442, -1984, 597, -935, -307, 648
0.121075, 442, -1984, 597, -935, -307, 648
0.121210, 442, -1984, 597, -935, -307, 648
0.121344, 442, -1984, 597, -935, -307, 648
0.121478, 769, -1956, 796, -692, -235, 289
0.121613, 769, -1956, 796, -692, -235, 289
0.121747, 769, -1956, 796, -692, -235, 289
0.121881, 769, -1956, 796, -692, -235, 289
0.122015, 769, -1956, 796, -692, -235, 289
0.122149, 769, -1956, 796, -692, -235, 289
0.122283, 769, -1956, 796, -692, -235, 289
0.122418, 769, -1956, 796, -692, -235, 289
0.122552, 1096, -1998, 862, -321, -75, -267
0.122686, 1096, -1998, 862, -321, -75, -267
0.122820, 1096, -1998, 862, -321, -75, -267
0.122955, 1096, -1998, 862, -321, -75, -267
0.123089, 1096, -1998, 862, -321, -75, -267
0.123223, 1096, -1998, 862, -321, -75, -267
0.123357, 1096, -1998, 862, -321, -75, -267
0.123491, 791, -2032, 801, 189, 186, -850
0.123626, 791, -2032, 801, 189, 186, -850
0.123760, 791, -2032, 801, 189, 186, -850
0.123894, 791, -2032, 801, 189, 186, -850
0.124028, 791, -2032, 801, 189, 186, -850
0.124162, 791, -2032, 801, 189, 186, -850
0.124296, 791, -2032, 801, 189, 186, -850
0.124430, 791, -2032, 801, 189, 186, -850
0.124564, -9, -2064, 385, 603, 487, -1042
0.124699, -9, -2064, 385, 603, 487, -1042
0.124833, -9, -2064, 385, 603, 487, -1042
0.124967, -9, -2064, 385, 603, 487, -1042
0.125101, -9, -2064, 385, 603, 487, -1042
0.125236, -9, -2064, 385, 603, 487, -1042
0.125370, -9, -2064, 385, 603, 487, -1042
0.125504, -856, -2128, -663, 584, 655, -667
0.125638, -856, -2128, -663, 584, 655, -667
0.125772, -856, -2128, -663, 584, 655, -667
0.125906, -856, -2128, -663, 584, 655, -667
0.126041, -856, -2128, -663, 584, 655, -667
0.126175, -856, -2128, -663, 584, 655, -667
0.126309, -856, -2128, -663, 584, 655, -667
0.126443, -856, -2128, -663, 584, 655, -667
0.126577, -811, -2134, -1464, -38, 568, 60
0.126711, -811, -2134, -1464, -38, 568, 60
0.126846, -811, -2134, -1464, -38, 568, 60
0.126980, -811, -2134, -1464, -38, 568, 60
0.127114, -811, -2134, -1464, -38, 568, 60
0.127248, -811, -2134, -1464, -38, 568, 60
0.127382, -811, -2134, -1464, -38, 568, 60
0.127516, 396, -2052, -665, -625, 284, 382
0.127651, 396, -2052, -665, -625, 284, 382
0.127785, 396, -2052, -665, -625, 284, 382
0.127919, 396, -2052, -665, -625, 284, 382
0.128053, 396, -2052, -665, -625, 284, 382
0.128187, 396, -2052, -665, -625, 284, 382
0.128321, 396, -2052, -665, -625, 284, 382
0.128455, 396, -2052, -665, -625, 284, 382
0.128589, 1207, -1975, 498, -589, 102, -145
0.128724, 1207, -1975, 498, -589, 102, -145
0.128858, 1207, -1975, 498, -589, 102, -145
0.128992, 1207, -1975, 498, -589, 102, -145
0.129126, 1207, -1975, 498, -589, 102, -145
0.129261, 1207, -1975, 498, -589, 102, -145
0.129395, 1207, -1975, 498, -589, 102, -145
0.129529, 1207, -1975, 498, -589, 102, -145
0.129663, 837, -1990, 586, -393, 226, -902
0.129803, 837, -1990, 586, -393, 226, -902
0.129937, 837, -1990, 586, -393, 226, -902
0.130071, 837, -1990, 586, -393, 226, -902
0.130205, 837, -1990, 586, -393, 226, -902
0.130340, 837, -1990, 586, -393, 226, -902
0.130474, 837, -1990, 586, -393, 226, -902
0.130608, 130, -2043, 166, -367, 441, -1189
0.130742, 130, -2043, 166, -367, 441, -1189
0.130876, 130, -2043, 166, -367, 441, -1189
0.131011, 130, -2043, 166, -367, 441, -1189
0.131145, 130, -2043, 166, -367, 441, -1189
0.131279, 130, -2043, 166, -367, 441, -1189
0.131413, 130, -2043, 166, -367, 441, -1189
0.131547, 130, -2043, 166, -367, 441, -1189
0.131681, -265, -2075, 43, -306, 551, -995
0.131816, -265, -2075, 43, -306, 551, -995
0.131950, -265, -2075, 43, -306, 551, -995
0.132084, -265, -2075, 43, -306, 551, -995
0.132218, -265, -2075, 43, -306, 551, -995
0.132352, -265, -2075, 43, -306, 551, -995
0.132486, -265, -2075, 43, -306, 551, -995
0.132621, -153, -2081, 362, -90, 571, -664
0.132755, -153, -2081, 362, -90, 571, -664
0.132889, -153, -2081, 362, -90, 571, -664
0.133023, -153, -2081, 362, -90, 571, -664
0.133157, -153, -2081, 362, -90, 571, -664
0.133292, -153, -2081, 362, -90, 571, -664
0.133426, -153, -2081, 362, -90, 571, -664
0.133560, -153, -2081, 362, -90, 571, -664
0.133694, 380, -2043, 548, 225, 466, -603
0.133829, 380, -2043, 548, 225, 466, -603
0.133963, 380, -2043, 548, 225, 466, -603
0.134097, 380, -2043, 548, 225, 466, -603
0.134231, 380, -2043, 548, 225, 466, -603
0.134365, 380, -2043, 548, 225, 466, -603
0.134500, 380, -2043, 548, 225, 466, -603
0.134634, 288, -2097, 214, 437, 326, -849
0.134768, 288, -2097, 214, 437, 326, -849
0.134902, 288, -2097, 214, 437, 326, -849
0.135036, 288, -2097, 214, 437, 326, -849
0.135171, 288, -2097, 214, 437, 326, -849
0.135305, 288, -2097, 214, 437, 326, -849
0.135439, 288, -2097, 214, 437, 326, -849
0.135573, 288, -2097, 214, 437, 326, -849
0.135707, -464, -2151, -287, 429, 312, -810
0.135841, -464, -2151, -287, 429, 312, -810
0.135975, -464, -2151, -287, 429, 312, -810
0.136110, -464, -2151, -287, 429, 312, -810
0.136244, -464, -2151, -287, 429, 312, -810
0.136378, -464, -2151, -287, 429, 312, -810
0.136512, -464, -2151, -287, 429, 312, -810
0.136646, -495, -2052, -348, 326, 341, -356
0.136780, -495, -2052, -348, 326, 341, -356
0.136915, -495, -2052, -348, 326, 341, -356
0.137049, -495, -2052, -348, 326, 341, -356
0.137183, -495, -2052, -348, 326, 341, -356
0.137317, -495, -2052, -348, 326, 341, -356
0.137452, -495, -2052, -348, 326, 341, -356
0.137586, -495, -2052, -348, 326, 341, -356
0.137720, -197, -1975, -8, 310, 299, -37
0.137854, -197, -1975, -8, 310, 299, -37
0.137988, -197, -1975, -8, 310, 299, -37
0.138123, -197, -1975, -8, 310, 299, -37
0.138257, -197, -1975, -8, 310, 299, -37
0.138391, -197, -1975, -8, 310, 299, -37
0.138525, -197, -1975, -8, 310, 299, -37
0.138659, -197, -1975, -8, 310, 299, -37
0.138793, -176, -2021, -78, 275, 230, 82
0.138927, -176, -2021, -78, 275, 230, 82
0.139062, -176, -2021, -78, 275, 230, 82
0.139196, -176, -2021, -78, 275, 230, 82
0.139330, -176, -2021, -78, 275, 230, 82
0.139464, -176, -2021, -78, 275, 230, 82
0.139598, -176, -2021, -78, 275, 230, 82
0.139732, -79, -2134, -491, 7, 145, 151
0.139867, -79, -2134, -491, 7, 145, 151
0.140001, -79, -2134, -491, 7, 145, 151
0.140135, -79, -2134, -491, 7, 145, 151
0.140269, -79, -2134, -491, 7, 145, 151
0.140404, -79, -2134, -491, 7, 145, 151
0.140538, -79, -2134, -491, 7, 145, 151
0.140672, -79, -2134, -491, 7, 145, 151
0.140806, -129, -2169, -417, -270, 12, 193
0.140940, -129, -2169, -417, -270, 12, 193
0.141074, -129, -2169, -417, -270, 12, 193
0.141208, -129, -2169, -417, -270, 12, 193
0.141343, -129, -2169, -417, -270, 12, 193
0.141477, -129, -2169, -417, -270, 12, 193
0.141611, -129, -2169, -417, -270, 12, 193
0.141745, -94, -2062, -109, -322, -108, 291
0.141880, -94, -2062, -109, -322, -108, 291
0.142014, -94, -2062, -109, -322, -108, 291
0.142148, -94, -2062, -109, -322, -108, 291
0.142282, -94, -2062, -109, -322, -108, 291
0.142416, -94, -2062, -109, -322, -108, 291
0.142551, -94, -2062, -109, -322, -108, 291
0.142689, -94, -2062, -109, -322, -108, 291
0.142824, -47, -1989, -8, -369, -163, 343
0.142958, -47, -1989, -8, -369, -163, 343
0.143092, -47, -1989, -8, -369, -163, 343
0.143227, -47, -1989, -8, -369, -163, 343
0.143361, -47, -1989, -8, -369, -163, 343
0.143495, -47, -1989, -8, -369, -163, 343
0.143629, -47, -1989, -8, -369, -163, 343
0.143763, -276, -2019, 214, -410, -218, 409
0.143897, -276, -2019, 214, -410, -218, 409
0.144032, -276, -2019, 214, -410, -218, 409
0.144166, -276, -2019, 214, -410, -218, 409
0.144300, -276, -2019, 214, -410, -218, 409
0.144434, -276, -2019, 214, -410, -218, 409
0.144568, -276, -2019, 214, -410, -218, 409
0.144703, -276, -2019, 214, -410, -218, 409
0.144837, -132, -2005, 408, -238, -277, 565
0.144971, -132, -2005, 408, -238, -277, 565
0.145105, -132, -2005, 408, -238, -277, 565
0.145240, -132, -2005, 408, -238, -277, 565
0.145373, -132, -2005, 408, -238, -277, 565
0.145507, -132, -2005, 408, -238, -277, 565
0.145640, -132, -2005, 408, -238, -277, 565
0.145773, 278, -1979, 162, -60, -252, 541
0.145908, 278, -1979, 162, -60, -252, 541
0.146042, 278, -1979, 162, -60, -252, 541
0.146176, 278, -1979, 162, -60, -252, 541
0.146310, 278, -1979, 162, -60, -252, 541
0.146444, 278, -1979, 162, -60, -252, 541
0.146578, 278, -1979, 162, -60, -252, 541
0.146712, 278, -1979, 162, -60, -252, 541
0.146846, 221, -2054, -326, -135, -188, 353
0.146980, 221, -2054, -326, -135, -188, 353
0.147114, 221, -2054, -326, -135, -188, 353
0.147248, 221, -2054, -326, -135, -188, 353
0.147382, 221, -2054, -326, -135, -188, 353
0.147516, 221, -2054, -326, -135, -188, 353
0.147650, 221, -2054, -326, -135, -188, 353
0.147784, 40, -2123, -582, -379, -175, 313
0.147918, 40, -2123, -582, -379, -175, 313
0.148052, 40, -2123, -582, -379, -175, 313
0.148186, 40, -2123, -582, -379, -175, 313
0.148320, 40, -2123, -582, -379, -175, 313
0.148454, 40, -2123, -582, -379, -175, 313
0.148588, 40, -2123, -582, -379, -175, 313
0.148722, 40, -2123, -582, -379, -175, 313
0.148856, 201, -2115, -372, -573, -170, 362
0.148990, 201, -2115, -372, -573, -170, 362
0.149124, 201, -2115, -372, -573, -170, 362
0.149258, 201, -2115, -372, -573, -170, 362
0.149392, 201, -2115, -372, -573, -170, 362
0.149525, 201, -2115, -372, -573, -170, 362
0.149659, 201, -2115, -372, -573, -170, 362
0.149792, 201, -2115, -372, -573, -170, 362
0.149926, 304, -2070, 58, -615, -100, 285
0.150060, 304, -2070, 58, -615, -100, 285
0.150193, 304, -2070, 58, -615, -100, 285
0.150326, 304, -2070, 58, -615, -100, 285
0.150460, 304, -2070, 58, -615, -100, 285
0.150593, 304, -2070, 58, -615, -100, 285
0.150727, 304, -2070, 58, -615, -100, 285
0.150860, 223, -2022, 226, -585, -5, 166
0.150994, 223, -2022, 226, -585, -5, 166
0.151127, 223, -2022, 226, -585, -5, 166
0.151260, 223, -2022, 226, -585, -5, 166
0.151394, 223, -2022, 226, -585, -5, 166
0.151527, 223, -2022, 226, -585, -5, 166
0.151661, 223, -2022, 226, -585, -5, 166
0.151794, 223, -2022, 226, -585, -5, 166
0.151927, 220, -2009, 123, -569, 56, 82
0.152061, 220, -2009, 123, -569, 56, 82
0.152195, 220, -2009, 123, -569, 56, 82
0.152328, 220, -2009, 123, -569, 56, 82
0.152462, 220, -2009, 123, -569, 56, 82
0.152595, 220, -2009, 123, -569, 56, 82
0.152728, 220, -2009, 123, -569, 56, 82
0.152862, 195, -2016, 55, -543, 81, -8
0.152995, 195, -2016, 55, -543, 81, -8
0.153129, 195, -2016, 55, -543, 81, -8
0.153262, 195, -2016, 55, -543, 81, -8
0.153399, 195, -2016, 55, -543, 81, -8
0.153533, 195, -2016, 55, -543, 81, -8
0.153667, 195, -2016, 55, -543, 81, -8
0.153801, 195, -2016, 55, -543, 81, -8
0.153936, 87, -2043, 39, -493, 67, -58
0.154070, 87, -2043, 39, -493, 67, -58
0.154205, 87, -2043, 39, -493, 67, -58
0.154340, 87, -2043, 39, -493, 67, -58
0.154474, 87, -2043, 39, -493, 67, -58
0.154608, 87, -2043, 39, -493, 67, -58
0.154742, 87, -2043, 39, -493, 67, -58
0.154877, 87, -2043, 39, -493, 67, -58
0.155011, -178, -2120, -46, -466, 10, -2
0.155145, -178, -2120, -46, -466, 10, -2
0.155279, -178, -2120, -46, -466, 10, -2
0.155414, -178, -2120, -46, -466, 10, -2
0.155548, -178, -2120, -46, -466, 10, -2
0.155691, -178, -2120, -46, -466, 10, -2
0.155826, -178, -2120, -46, -466, 10, -2
0.155960, -736, -2149, -275, -508, -75, 296
0.156094, -736, -2149, -275, -508, -75, 296
0.156229, -736, -2149, -275, -508, -75, 296
0.156363, -736, -2149, -275, -508, -75, 296
0.156497, -736, -2149, -275, -508, -75, 296
0.156631, -736, -2149, -275, -508, -75, 296
0.156765, -736, -2149, -275, -508, -75, 296
0.156899, -736, -2149, -275, -508, -75, 296
0.157034, -856, -2069, -429, -653, -214, 879
0.157168, -856, -2069, -429, -653, -214, 879
0.157303, -856, -2069, -429, -653, -214, 879
0.157437, -856, -2069, -429, -653, -214, 879
0.157571, -856, -2069, -429, -653, -214, 879
0.157705, -856, -2069, -429, -653, -214, 879
0.157839, -856, -2069, -429, -653, -214, 879
0.157973, -37, -2015, -252, -833, -413, 1262
0.158108, -37, -2015, -252, -833, -413, 1262
0.158242, -37, -2015, -252, -833, -413, 1262
0.158376, -37, -2015, -252, -833, -413, 1262
0.158510, -37, -2015, -252, -833, -413, 1262
0.158645, -37, -2015, -252, -833, -413, 1262
0.158779, -37, -2015, -252, -833, -413, 1262
0.158913, -37, -2015, -252, -833, -413, 1262
0.159047, 821, -2033, 250, -856, -556, 1010
0.159181, 821, -2033, 250, -856, -556, 1010
0.159316, 821, -2033, 250, -856, -556, 1010
0.159450, 821, -2033, 250, -856, -556, 1010
0.159584, 821, -2033, 250, -856, -556, 1010
0.159718, 821, -2033, 250, -856, -556, 1010
0.159852, 821, -2033, 250, -856, -556, 1010
0.159986, 1044, -2052, 965, -515, -517, 373
0.160121, 1044, -2052, 965, -515, -517, 373
0.160255, 1044, -2052, 965, -515, -517, 373
0.160389, 1044, -2052, 965, -515, -517, 373
0.160523, 1044, -2052, 965, -515, -517, 373
0.160657, 1044, -2052, 965, -515, -517, 373
0.160791, 1044, -2052, 965, -515, -517, 373
0.160926, 1044, -2052, 965, -515, -517, 373
0.161060, 537, -2109, 1190, 148, -258, -153
0.161194, 537, -2109, 1190, 148, -258, -153
0.161328, 537, -2109, 1190, 148, -258, -153
0.161462, 537, -2109, 1190, 148, -258, -153
0.161596, 537, -2109, 1190, 148, -258, -153
0.161730, 537, -2109, 1190, 148, -258, -153
0.161864, 537, -2109, 1190, 148, -258, -153
0.161998, -506, -2159, 583, 708, 94, -141
0.162133, -506, -2159, 583, 708, 94, -141
0.162267, -506, -2159, 583, 708, 94, -141
0.162401, -506, -2159, 583, 708, 94, -141
0.162535, -506, -2159, 583, 708, 94, -141
0.162669, -506, -2159, 583, 708, 94, -141
0.162803, -506, -2159, 583, 708, 94, -141
0.162939, -506, -2159, 583, 708, 94, -141
0.163073, -988, -2111, -249, 845, 225, 457
0.163207, -988, -2111, -249, 845, 225, 457
0.163341, -988, -2111, -249, 845, 225, 457
0.163475, -988, -2111, -249, 845, 225, 457
0.163609, -988, -2111, -249, 845, 225, 457
0.163744, -988, -2111, -249, 845, 225, 457
0.163878, -988, -2111, -249, 845, 225, 457
0.164012, -228, -2041, -381, 701, 23, 993
0.164146, -228, -2041, -381, 701, 23, 993
0.164280, -228, -2041, -381, 701, 23, 993
0.164414, -228, -2041, -381, 701, 23, 993
0.164548, -228, -2041, -381, 701, 23, 993
0.164682, -228, -2041, -381, 701, 23, 993
0.164816, -228, -2041, -381, 701, 23, 993
0.164950, -228, -2041, -381, 701, 23, 993
0.165084, 871, -1997, 626, 840, -259, 811
0.165218, 871, -1997, 626, 840, -259, 811
0.165353, 871, -1997, 626, 840, -259, 811
0.165487, 871, -1997, 626, 840, -259, 811
0.165621, 871, -1997, 626, 840, -259, 811
0.165755, 871, -1997, 626, 840, -259, 811
0.165889, 871, -1997, 626, 840, -259, 811
0.166023, 871, -1997, 626, 840, -259, 811
0.166157, 953, -2060, 823, 1347, -310, 87
0.166291, 953, -2060, 823, 1347, -310, 87
0.166425, 953, -2060, 823, 1347, -310, 87
0.166559, 953, -2060, 823, 1347, -310, 87
0.166693, 953, -2060, 823, 1347, -310, 87
0.166827, 953, -2060, 823, 1347, -310, 87
0.166961, 953, -2060, 823, 1347, -310, 87
0.167095, -72, -2144, -633, 1332, -94, -315
0.167229, -72, -2144, -633, 1332, -94, -315
0.167363, -72, -2144, -633, 1332, -94, -315
0.167497, -72, -2144, -633, 1332, -94, -315
0.167631, -72, -2144, -633, 1332, -94, -315
0.167765, -72, -2144, -633, 1332, -94, -315
0.167899, -72, -2144, -633, 1332, -94, -315
0.168033, -72, -2144, -633, 1332, -94, -315
0.168167, -951, -2041, -1308, 724, 42, 105
0.168302, -951, -2041, -1308, 724, 42, 105
0.168445, -951, -2041, -1308, 724, 42, 105
0.168580, -951, -2041, -1308, 724, 42, 105
0.168714, -951, -2041, -1308, 724, 42, 105
0.168848, -951, -2041, -1308, 724, 42, 105
0.168982, -951, -2041, -1308, 724, 42, 105
0.169116, -961, -1940, -745, 306, -39, 903
0.169251, -961, -1940, -745, 306, -39, 903
0.169385, -961, -1940, -745, 306, -39, 903
0.169519, -961, -1940, -745, 306, -39, 903
0.169653, -961, -1940, -745, 306, -39, 903
0.169787, -961, -1940, -745, 306, -39, 903
0.169921, -961, -1940, -745, 306, -39, 903
0.170055, -961, -1940, -745, 306, -39, 903
0.170189, -458, -1981, -157, 45, -183, 1430
0.170324, -458, -1981, -157, 45, -183, 1430
0.170458, -458, -1981, -157, 45, -183, 1430
0.170592, -458, -1981, -157, 45, -183, 1430
0.170726, -458, -1981, -157, 45, -183, 1430
0.170860, -458, -1981, -157, 45, -183, 1430
0.170994, -458, -1981, -157, 45, -183, 1430
0.171129, 87, -2014, 312, -133, -430, 1486
0.171263, 87, -2014, 312, -133, -430, 1486
0.171397, 87, -2014, 312, -133, -430, 1486
0.171531, 87, -2014, 312, -133, -430, 1486
0.171665, 87, -2014, 312, -133, -430, 1486
0.171799, 87, -2014, 312, -133, -430, 1486
0.171933, 87, -2014, 312, -133, -430, 1486
0.172068, 87, -2014, 312, -133, -430, 1486
0.172202, 142, -2037, 227, -61, -633, 1279
0.172336, 142, -2037, 227, -61, -633, 1279
0.172470, 142, -2037, 227, -61, -633, 1279
0.172604, 142, -2037, 227, -61, -633, 1279
0.172738, 142, -2037, 227, -61, -633, 1279
0.172872, 142, -2037, 227, -61, -633, 1279
0.173006, 142, -2037, 227, -61, -633, 1279
0.173141, -336, -2098, -500, -136, -552, 1261
0.173275, -336, -2098, -500, -136, -552, 1261
0.173409, -336, -2098, -500, -136, -552, 1261
0.173544, -336, -2098, -500, -136, -552, 1261
0.173678, -336, -2098, -500, -136, -552, 1261
0.173812, -336, -2098, -500, -136, -552, 1261
0.173946, -336, -2098, -500, -136, -552, 1261
0.174080, -336, -2098, -500, -136, -552, 1261
0.174214, -545, -2131, -825, -536, -504, 1597
0.174348, -545, -2131, -825, -536, -504, 1597
0.174483, -545, -2131, -825, -536, -504, 1597
0.174617, -545, -2131, -825, -536, -504, 1597
0.174751, -545, -2131, -825, -536, -504, 1597
0.174885, -545, -2131, -825, -536, -504, 1597
0.175019, -545, -2131, -825, -536, -504, 1597
0.175153, -222, -2097, -436, -836, -713, 1927
0.175288, -222, -2097, -436, -836, -713, 1927
0.175422, -222, -2097, -436, -836, -713, 1927
0.175556, -222, -2097, -436, -836, -713, 1927
0.175690, -222, -2097, -436, -836, -713, 1927
0.175824, -222, -2097, -436, -836, -713, 1927
0.175958, -222, -2097, -436, -836, -713, 1927
0.176092, -222, -2097, -436, -836, -713, 1927
0.176227, 193, -2029, -24, -912, -878, 1967
0.176361, 193, -2029, -24, -912, -878, 1967
0.176495, 193, -2029, -24, -912, -878, 1967
0.176629, 193, -2029, -24, -912, -878, 1967
0.176763, 193, -2029, -24, -912, -878, 1967
0.176898, 193, -2029, -24, -912, -878, 1967
0.177032, 193, -2029, -24, -912, -878, 1967
0.177166, 193, -2029, -24, -912, -878, 1967
0.177300, 528, -2015, 240, -944, -820, 1744
0.177435, 528, -2015, 240, -944, -820, 1744
0.177569, 528, -2015, 240, -944, -820, 1744
0.177703, 528, -2015, 240, -944, -820, 1744
0.177837, 528, -2015, 240, -944, -820, 1744
0.177971, 528, -2015, 240, -944, -820, 1744
0.178105, 528, -2015, 240, -944, -820, 1744
0.178239, 843, -2017, 565, -831, -619, 1346
0.178374, 843, -2017, 565, -831, -619, 1346
0.178508, 843, -2017, 565, -831, -619, 1346
0.178642, 843, -2017, 565, -831, -619, 1346
0.178776, 843, -2017, 565, -831, -619, 1346
0.178910, 843, -2017, 565, -831, -619, 1346
0.179044, 843, -2017, 565, -831, -619, 1346
0.179178, 843, -2017, 565, -831, -619, 1346
0.179312, 1080, -1983, 830, -475, -315, 807
0.179447, 1080, -1983, 830, -475, -315, 807
0.179581, 1080, -1983, 830, -475, -315, 807
0.179715, 1080, -1983, 830, -475, -315, 807
0.179849, 1080, -1983, 830, -475, -315, 807
0.179983, 1080, -1983, 830, -475, -315, 807
0.180117, 1080, -1983, 830, -475, -315, 807
0.180251, 860, -2060, 728, -36, 39, 226
0.180386, 860, -2060, 728, -36, 39, 226
0.180520, 860, -2060, 728, -36, 39, 226
0.180654, 860, -2060, 728, -36, 39, 226
0.180788, 860, -2060, 728, -36, 39, 226
0.180927, 860, -2060, 728, -36, 39, 226
0.181061, 860, -2060, 728, -36, 39, 226
0.181195, 860, -2060, 728, -36, 39, 226
0.181330, -295, -2200, -291, 140, 310, 10
0.181464, -295, -2200, -291, 140, 310, 10
0.181599, -295, -2200, -291, 140, 310, 10
0.181733, -295, -2200, -291, 140, 310, 10
0.181867, -295, -2200, -291, 140, 310, 10
0.182001, -295, -2200, -291, 140, 310, 10
0.182135, -295, -2200, -291, 140, 310, 10
0.182269, -1470, -2168, -1451, -308, 325, 622
0.182404, -1470, -2168, -1451, -308, 325, 622
0.182538, -1470, -2168, -1451, -308, 325, 622
0.182672, -1470, -2168, -1451, -308, 325, 622
0.182806, -1470, -2168, -1451, -308, 325, 622
0.182940, -1470, -2168, -1451, -308, 325, 622
0.183074, -1470, -2168, -1451, -308, 325, 622
0.183208, -1470, -2168, -1451, -308, 325, 622
0.183343, -1171, -2035, -1045, -986, -1, 1640
0.183477, -1171, -2035, -1045, -986, -1, 1640
0.183611, -1171, -2035, -1045, -986, -1, 1640
0.183745, -1171, -2035, -1045, -986, -1, 1640
0.183879, -1171, -2035, -1045, -986, -1, 1640
0.184013, -1171, -2035, -1045, -986, -1, 1640
0.184148, -1171, -2035, -1045, -986, -1, 1640
0.184282, -215, -1999, 122, -1219, -422, 2092
0.184416, -215, -1999, 122, -1219, -422, 2092
0.184550, -215, -1999, 122, -1219, -422, 2092
0.184685, -215, -1999, 122, -1219, -422, 2092
0.184819, -215, -1999, 122, -1219, -422, 2092
0.184953, -215, -1999, 122, -1219, -422, 2092
0.185087, -215, -1999, 122, -1219, -422, 2092
0.185221, -215, -1999, 122, -1219, -422, 2092
0.185356, 213, -2029, 616, -1134, -650, 1928
0.185491, 213, -2029, 616, -1134, -650, 1928
0.185625, 213, -2029, 616, -1134, -650, 1928
0.185759, 213, -2029, 616, -1134, -650, 1928
0.185893, 213, -2029, 616, -1134, -650, 1928
0.186027, 213, -2029, 616, -1134, -650, 1928
0.186161, 213, -2029, 616, -1134, -650, 1928
0.186296, 213, -2029, 616, -1134, -650, 1928
0.186430, 611, -2037, 839, -883, -715, 1587
0.186564, 611, -2037, 839, -883, -715, 1587
0.186698, 611, -2037, 839, -883, -715, 1587
0.186832, 611, -2037, 839, -883, -715, 1587
0.186966, 611, -2037, 839, -883, -715, 1587
0.187100, 611, -2037, 839, -883, -715, 1587
0.187235, 611, -2037, 839, -883, -715, 1587
0.187369, 1011, -2033, 1075, -314, -616, 1088
0.187503, 1011, -2033, 1075, -314, -616, 1088
0.187637, 1011, -2033, 1075, -314, -616, 1088
0.187771, 1011, -2033, 1075, -314, -616, 1088
0.187906, 1011, -2033, 1075, -314, -616, 1088
0.188040, 1011, -2033, 1075, -314, -616, 1088
0.188174, 1011, -2033, 1075, -314, -616, 1088
0.188308, 1011, -2033, 1075, -314, -616, 1088
0.188442, 801, -2043, 1012, 384, -305, 548
0.188576, 801, -2043, 1012, 384, -305, 548
0.188710, 801, -2043, 1012, 384, -305, 548
0.188845, 801, -2043, 1012, 384, -305, 548
0.188979, 801, -2043, 1012, 384, -305, 548
0.189113, 801, -2043, 1012, 384, -305, 548
0.189247, 801, -2043, 1012, 384, -305, 548
0.189381, 234, -2108, 269, 825, -12, 307
0.189516, 234, -2108, 269, 825, -12, 307
0.189650, 234, -2108, 269, 825, -12, 307
0.189784, 234, -2108, 269, 825, -12, 307
0.189918, 234, -2108, 269, 825, -12, 307
0.190052, 234, -2108, 269, 825, -12, 307
0.190186, 234, -2108, 269, 825, -12, 307
0.190320, 234, -2108, 269, 825, -12, 307
0.190455, 68, -2139, -707, 758, 55, 376
0.190589, 68, -2139, -707, 758, 55, 376
0.190723, 68, -2139, -707, 758, 55, 376
0.190857, 68, -2139, -707, 758, 55, 376
0.190991, 68, -2139, -707, 758, 55, 376
0.191125, 68, -2139, -707, 758, 55, 376
0.191260, 68, -2139, -707, 758, 55, 376
0.191394, 396, -2000, -245, 594, -12, 405
0.191528, 396, -2000, -245, 594, -12, 405
0.191662, 396, -2000, -245, 594, -12, 405
0.191796, 396, -2000, -245, 594, -12, 405
0.191930, 396, -2000, -245, 594, -12, 405
0.192065, 396, -2000, -245, 594, -12, 405
0.192199, 396, -2000, -245, 594, -12, 405
0.192333, 396, -2000, -245, 594, -12, 405
0.192467, 765, -1879, 1356, 1066, 25, 140
0.192601, 765, -1879, 1356, 1066, 25, 140
0.192735, 765, -1879, 1356, 1066, 25, 140
0.192870, 765, -1879, 1356, 1066, 25, 140
0.193004, 765, -1879, 1356, 1066, 25, 140
0.193138, 765, -1879, 1356, 1066, 25, 140
0.193272, 765, -1879, 1356, 1066, 25, 140
0.193407, 973, -2019, 1240, 1806, 304, -377
0.193545, 973, -2019, 1240, 1806, 304, -377
0.193680, 973, -2019, 1240, 1806, 304, -377
0.193814, 973, -2019, 1240, 1806, 304, -377
0.193948, 973, -2019, 1240, 1806, 304, -377
0.194082, 973, -2019, 1240, 1806, 304, -377
0.194216, 973, -2019, 1240, 1806, 304, -377
0.194351, 973, -2019, 1240, 1806, 304, -377
0.194485, 663, -2201, -964, 1714, 583, -915
0.194619, 663, -2201, -964, 1714, 583, -915
0.194753, 663, -2201, -964, 1714, 583, -915
0.194887, 663, -2201, -964, 1714, 583, -915
0.195021, 663, -2201, -964, 1714, 583, -915
0.195155, 663, -2201, -964, 1714, 583, -915
0.195290, 663, -2201, -964, 1714, 583, -915
0.195424, -475, -2112, -2059, 869, 542, -981
0.195558, -475, -2112, -2059, 869, 542, -981
0.195692, -475, -2112, -2059, 869, 542, -981
0.195826, -475, -2112, -2059, 869, 542, -981
0.195961, -475, -2112, -2059, 869, 542, -981
0.196095, -475, -2112, -2059, 869, 542, -981
0.196229, -475, -2112, -2059, 869, 542, -981
0.196363, -475, -2112, -2059, 869, 542, -981
0.196497, -1377, -2016, -1023, 245, 294, -251
0.196631, -1377, -2016, -1023, 245, 294, -251
0.196765, -1377, -2016, -1023, 245, 294, -251
0.196900, -1377, -2016, -1023, 245, 294, -251
0.197034, -1377, -2016, -1023, 245, 294, -251
0.197168, -1377, -2016, -1023, 245, 294, -251
0.197302, -1377, -2016, -1023, 245, 294, -251
0.197436, -1377, -2016, -1023, 245, 294, -251
0.197571, -1125, -2112, 141, 1, 15, 696
0.197705, -1125, -2112, 141, 1, 15, 696
0.197839, -1125, -2112, 141, 1, 15, 696
0.197973, -1125, -2112, 141, 1, 15, 696
0.198107, -1125, -2112, 141, 1, 15, 696
0.198241, -1125, -2112, 141, 1, 15, 696
0.198375, -1125, -2112, 141, 1, 15, 696
0.198509, -620, -2130, 533, -56, -392, 1179
0.198644, -620, -2130, 533, -56, -392, 1179
0.198778, -620, -2130, 533, -56, -392, 1179
0.198912, -620, -2130, 533, -56, -392, 1179
0.199046, -620, -2130, 533, -56, -392, 1179
0.199181, -620, -2130, 533, -56, -392, 1179
0.199315, -620, -2130, 533, -56, -392, 1179
0.199449, -620, -2130, 533, -56, -392, 1179
0.199583, -638, -2061, 204, 62, -797, 1362
0.199717, -638, -2061, 204, 62, -797, 1362
0.199851, -638, -2061, 204, 62, -797, 1362
0.199986, -638, -2061, 204, 62, -797, 1362
0.200120, -638, -2061, 204, 62, -797, 1362
0.200254, -638, -2061, 204, 62, -797, 1362
0.200388, -638, -2061, 204, 62, -797, 1362
0.200522, -870, -2074, -440, 20, -917, 1693
0.200657, -870, -2074, -440, 20, -917, 1693
0.200791, -870, -2074, -440, 20, -917, 1693
0.200925, -870, -2074, -440, 20, -917, 1693
0.201059, -870, -2074, -440, 20, -917, 1693
0.201193, -870, -2074, -440, 20, -917, 1693
0.201328, -870, -2074, -440, 20, -917, 1693
0.201462, -870, -2074, -440, 20, -917, 1693
0.201596, -776, -2094, -618, -279, -973, 2201
0.201730, -776, -2094, -618, -279, -973, 2201
0.201864, -776, -2094, -618, -279, -973, 2201
0.201998, -776, -2094, -618, -279, -973, 2201
0.202132, -776, -2094, -618, -279, -973, 2201
0.202267, -776, -2094, -618, -279, -973, 2201
0.202401, -776, -2094, -618, -279, -973, 2201
0.202535, -359, -2071, -376, -530, -1228, 2572
0.202669, -359, -2071, -376, -530, -1228, 2572
0.202803, -359, -2071, -376, -530, -1228, 2572
0.202937, -359, -2071, -376, -530, -1228, 2572
0.203071, -359, -2071, -376, -530, -1228, 2572
0.203205, -359, -2071, -376, -530, -1228, 2572
0.203340, -359, -2071, -376, -530, -1228, 2572
0.203474, -359, -2071, -376, -530, -1228, 2572
0.203608, 53, -2063, 3, -624, -1435, 2662
0.203742, 53, -2063, 3, -624, -1435, 2662
0.203876, 53, -2063, 3, -624, -1435, 2662
0.204010, 53, -2063, 3, -624, -1435, 2662
0.204144, 53, -2063, 3, -624, -1435, 2662
0.204278, 53, -2063, 3, -624, -1435, 2662
0.204412, 53, -2063, 3, -624, -1435, 2662
0.204546, 460, -2044, 517, -538, -1343, 2521
0.204681, 460, -2044, 517, -538, -1343, 2521
0.204815, 460, -2044, 517, -538, -1343, 2521
0.204949, 460, -2044, 517, -538, -1343, 2521
0.205083, 460, -2044, 517, -538, -1343, 2521
0.205217, 460, -2044, 517, -538, -1343, 2521
0.205352, 460, -2044, 517, -538, -1343, 2521
0.205486, 460, -2044, 517, -538, -1343, 2521
0.205620, 994, -1975, 1110, -161, -979, 2125
0.205754, 994, -1975, 1110, -161, -979, 2125
0.205888, 994, -1975, 1110, -161, -979, 2125
0.206027, 994, -1975, 1110, -161, -979, 2125
0.206161, 994, -1975, 1110, -161, -979, 2125
0.206296, 994, -1975, 1110, -161, -979, 2125
0.206430, 994, -1975, 1110, -161, -979, 2125
0.206564, 994, -1975, 1110, -161, -979, 2125
0.206698, 1637, -1920, 1557, 548, -461, 1380
0.206833, 1637, -1920, 1557, 548, -461, 1380
0.206967, 1637, -1920, 1557, 548, -461, 1380
0.207101, 1637, -1920, 1557, 548, -461, 1380
0.207235, 1637, -1920, 1557, 548, -461, 1380
0.207369, 1637, -1920, 1557, 548, -461, 1380
0.207504, 1637, -1920, 1557, 548, -461, 1380
0.207638, 1433, -2056, 784, 1208, 110, 371
0.207772, 1433, -2056, 784, 1208, 110, 371
0.207906, 1433, -2056, 784, 1208, 110, 371
0.208040, 1433, -2056, 784, 1208, 110, 371
0.208174, 1433, -2056, 784, 1208, 110, 371
0.208309, 1433, -2056, 784, 1208, 110, 371
0.208443, 1433, -2056, 784, 1208, 110, 371
0.208577, 1433, -2056, 784, 1208, 110, 371
0.208711, 216, -2208, -1010, 1094, 565, -188
0.208845, 216, -2208, -1010, 1094, 565, -188
0.208980, 216, -2208, -1010, 1094, 565, -188
0.209114, 216, -2208, -1010, 1094, 565, -188
0.209248, 216, -2208, -1010, 1094, 565, -188
0.209383, 216, -2208, -1010, 1094, 565, -188
0.209517, 216, -2208, -1010, 1094, 565, -188
0.209651, -75, -2089, -1331, 454, 612, -4
0.209785, -75, -2089, -1331, 454, 612, -4
0.209920, -75, -2089, -1331, 454, 612, -4
0.210054, -75, -2089, -1331, 454, 612, -4
0.210188, -75, -2089, -1331, 454, 612, -4
0.210322, -75, -2089, -1331, 454, 612, -4
0.210456, -75, -2089, -1331, 454, 612, -4
0.210590, -75, -2089, -1331, 454, 612, -4
0.210725, 506, -1961, -159, 208, 369, 39
0.210859, 506, -1961, -159, 208, 369, 39
0.210993, 506, -1961, -159, 208, 369, 39
0.211127, 506, -1961, -159, 208, 369, 39
0.211261, 506, -1961, -159, 208, 369, 39
0.211396, 506, -1961, -159, 208, 369, 39
0.211530, 506, -1961, -159, 208, 369, 39
0.211664, 391, -1977, 718, 313, 300, -301
0.211798, 391, -1977, 718, 313, 300, -301
0.211933, 391, -1977, 718, 313, 300, -301
0.212067, 391, -1977, 718, 313, 300, -301
0.212201, 391, -1977, 718, 313, 300, -301
0.212335, 391, -1977, 718, 313, 300, -301
0.212469, 391, -1977, 718, 313, 300, -301
0.212603, 391, -1977, 718, 313, 300, -301
0.212737, 341, -1978, 1217, 632, 383, -529
0.212872, 341, -1978, 1217, 632, 383, -529
0.213006, 341, -1978, 1217, 632, 383, -529
0.213140, 341, -1978, 1217, 632, 383, -529
0.213275, 341, -1978, 1217, 632, 383, -529
0.213409, 341, -1978, 1217, 632, 383, -529
0.213543, 341, -1978, 1217, 632, 383, -529
0.213677, 440, -2077, 346, 1076, 473, -763
0.213811, 440, -2077, 346, 1076, 473, -763
0.213946, 440, -2077, 346, 1076, 473, -763
0.214080, 440, -2077, 346, 1076, 473, -763
0.214214, 440, -2077, 346, 1076, 473, -763
0.214349, 440, -2077, 346, 1076, 473, -763
0.214483, 440, -2077, 346, 1076, 473, -763
0.214617, 440, -2077, 346, 1076, 473, -763
0.214751, -386, -2206, -1682, 689, 587, -824
0.214886, -386, -2206, -1682, 689, 587, -824
0.215020, -386, -2206, -1682, 689, 587, -824
0.215154, -386, -2206, -1682, 689, 587, -824
0.215288, -386, -2206, -1682, 689, 587, -824
0.215422, -386, -2206, -1682, 689, 587, -824
0.215556, -386, -2206, -1682, 689, 587, -824
0.215690, -386, -2206, -1682, 689, 587, -824
0.215824, -1034, -2115, -1592, -283, 382, -233
0.215958, -1034, -2115, -1592, -283, 382, -233
0.216092, -1034, -2115, -1592, -283, 382, -233
0.216226, -1034, -2115, -1592, -283, 382, -233
0.216360, -1034, -2115, -1592, -283, 382, -233
0.216494, -1034, -2115, -1592, -283, 382, -233
0.216628, -1034, -2115, -1592, -283, 382, -233
0.216762, -679, -2007, 38, -524, -132, 521
0.216896, -679, -2007, 38, -524, -132, 521
0.217031, -679, -2007, 38, -524, -132, 521
0.217165, -679, -2007, 38, -524, -132, 521
0.217299, -679, -2007, 38, -524, -132, 521
0.217433, -679, -2007, 38, -524, -132, 521
0.217567, -679, -2007, 38, -524, -132, 521
0.217701, -679, -2007, 38, -524, -132, 521
0.217834, -446, -2048, 290, -425, -397, 910
0.217968, -446, -2048, 290, -425, -397, 910
0.218102, -446, -2048, 290, -425, -397, 910
0.218235, -446, -2048, 290, -425, -397, 910
0.218369, -446, -2048, 290, -425, -397, 910
0.218502, -446, -2048, 290, -425, -397, 910
0.218644, -446, -2048, 290, -425, -397, 910
0.218779, -312, -2093, -67, -636, -456, 1170
0.218912, -312, -2093, -67, -636, -456, 1170
0.219046, -312, -2093, -67, -636, -456, 1170
0.219180, -312, -2093, -67, -636, -456, 1170
0.219314, -312, -2093, -67, -636, -456, 1170
0.219447, -312, -2093, -67, -636, -456, 1170
0.219581, -312, -2093, -67, -636, -456, 1170
0.219714, -312, -2093, -67, -636, -456, 1170
0.219847, 587, -2046, 167, -613, -560, 1223
0.219981, 587, -2046, 167, -613, -560, 1223
0.220115, 587, -2046, 167, -613, -560, 1223
0.220248, 587, -2046, 167, -613, -560, 1223
0.220382, 587, -2046, 167, -613, -560, 1223
0.220515, 587, -2046, 167, -613, -560, 1223
0.220648, 587, -2046, 167, -613, -560, 1223
0.220782, 1222, -1984, 395, -292, -458, 711
0.220915, 1222, -1984, 395, -292, -458, 711
0.221049, 1222, -1984, 395, -292, -458, 711
0.221182, 1222, -1984, 395, -292, -458, 711
0.221317, 1222, -1984, 395, -292, -458, 711
0.221451, 1222, -1984, 395, -292, -458, 711
0.221585, 1222, -1984, 395, -292, -458, 711
0.221719, 1222, -1984, 395, -292, -458, 711
0.221853, 700, -2023, 239, -145, -182, 77
0.221988, 700, -2023, 239, -145, -182, 77
0.222122, 700, -2023, 239, -145, -182, 77
0.222256, 700, -2023, 239, -145, -182, 77
0.222390, 700, -2023, 239, -145, -182, 77
0.222524, 700, -2023, 239, -145, -182, 77
0.222658, 700, -2023, 239, -145, -182, 77
0.222792, -114, -2081, -168, -198, -81, -68
0.222927, -114, -2081, -168, -198, -81, -68
0.223061, -114, -2081, -168, -198, -81, -68
0.223195, -114, -2081, -168, -198, -81, -68
0.223329, -114, -2081, -168, -198, -81, -68
0.223464, -114, -2081, -168, -198, -81, -68
0.223598, -114, -2081, -168, -198, -81, -68
0.223732, -114, -2081, -168, -198, -81, -68
0.223866, -713, -2073, -583, -374, -92, 274
0.224000, -713, -2073, -583, -374, -92, 274
0.224134, -713, -2073, -583, -374, -92, 274
0.224269, -713, -2073, -583, -374, -92, 274
0.224403, -713, -2073, -583, -374, -92, 274
0.224537, -713, -2073, -583, -374, -92, 274
0.224671, -713, -2073, -583, -374, -92, 274
0.224805, -713, -2073, -583, -374, -92, 274
0.224939, -661, -2071, -396, -645, -68, 828
0.225074, -661, -2071, -396, -645, -68, 828
0.225208, -661, -2071, -396, -645, -68, 828
0.225342, -661, -2071, -396, -645, -68, 828
0.225477, -661, -2071, -396, -645, -68, 828
0.225611, -661, -2071, -396, -645, -68, 828
0.225745, -661, -2071, -396, -645, -68, 828
0.225879, 280, -2068, 429, -665, -110, 1034
0.226013, 280, -2068, 429, -665, -110, 1034
0.226147, 280, -2068, 429, -665, -110, 1034
0.226282, 280, -2068, 429, -665, -110, 1034
0.226416, 280, -2068, 429, -665, -110, 1034
0.226550, 280, -2068, 429, -665, -110, 1034
0.226684, 280, -2068, 429, -665, -110, 1034
0.226818, 280, -2068, 429, -665, -110, 1034
0.226952, 881, -2034, 870, -295, -169, 562
0.227087, 881, -2034, 870, -295, -169, 562
0.227221, 881, -2034, 870, -295, -169, 562
0.227355, 881, -2034, 870, -295, -169, 562
0.227489, 881, -2034, 870, -295, -169, 562
0.227623, 881, -2034, 870, -295, -169, 562
0.227757, 881, -2034, 870, -295, -169, 562
0.227892, 508, -2023, 472, 46, -92, -49
0.228026, 508, -2023, 472, 46, -92, -49
0.228160, 508, -2023, 472, 46, -92, -49
0.228294, 508, -2023, 472, 46, -92, -49
0.228428, 508, -2023, 472, 46, -92, -49
0.228563, 508, -2023, 472, 46, -92, -49
0.228697, 508, -2023, 472, 46, -92, -49
0.228831, 508, -2023, 472, 46, -92, -49
0.228965, 232, -2028, 152, 163, 31, -268
0.229099, 232, -2028, 152, 163, 31, -268
0.229234, 232, -2028, 152, 163, 31, -268
0.229368, 232, -2028, 152, 163, 31, -268
0.229502, 232, -2028, 152, 163, 31, -268
0.229636, 232, -2028, 152, 163, 31, -268
0.229771, 232, -2028, 152, 163, 31, -268
0.229905, 502, -2047, 275, 364, 87, -371
0.230039, 502, -2047, 275, 364, 87, -371
0.230173, 502, -2047, 275, 364, 87, -371
0.230307, 502, -2047, 275, 364, 87, -371
0.230441, 502, -2047, 275, 364, 87, -371
0.230576, 502, -2047, 275, 364, 87, -371
0.230710, 502, -2047, 275, 364, 87, -371
0.230844, 502, -2047, 275, 364, 87, -371
0.230978, 354, -2062, 10, 562, 148, -608
0.231112, 354, -2062, 10, 562, 148, -608
0.231246, 354, -2062, 10, 562, 148, -608
0.231385, 354, -2062, 10, 562, 148, -608
0.231520, 354, -2062, 10, 562, 148, -608
0.231654, 354, -2062, 10, 562, 148, -608
0.231788, 354, -2062, 10, 562, 148, -608
0.231922, -9, -2040, -322, 438, 192, -662
0.232057, -9, -2040, -322, 438, 192, -662
0.232191, -9, -2040, -322, 438, 192, -662
0.232325, -9, -2040, -322, 438, 192, -662
0.232459, -9, -2040, -322, 438, 192, -662
0.232594, -9, -2040, -322, 438, 192, -662
0.232728, -9, -2040, -322, 438, 192, -662
0.232862, -9, -2040, -322, 438, 192, -662
0.232996, 301, -1994, 125, 339, 161, -594
0.233130, 301, -1994, 125, 339, 161, -594
0.233265, 301, -1994, 125, 339, 161, -594
0.233399, 301, -1994, 125, 339, 161, -594
0.233533, 301, -1994, 125, 339, 161, -594
0.233668, 301, -1994, 125, 339, 161, -594
0.233802, 301, -1994, 125, 339, 161, -594
0.233936, 301, -1994, 125, 339, 161, -594
0.234070, 468, -2005, 584, 588, 233, -766
0.234205, 468, -2005, 584, 588, 233, -766
0.234339, 468, -2005, 584, 588, 233, -766
0.234473, 468, -2005, 584, 588, 233, -766
0.234607, 468, -2005, 584, 588, 233, -766
0.234741, 468, -2005, 584, 588, 233, -766
0.234875, 468, -2005, 584, 588, 233, -766
0.235010, -275, -2139, -143, 691, 438, -875
0.235144, -275, -2139, -143, 691, 438, -875
0.235278, -275, -2139, -143, 691, 438, -875
0.235412, -275, -2139, -143, 691, 438, -875
0.235546, -275, -2139, -143, 691, 438, -875
0.235680, -275, -2139, -143, 691, 438, -875
0.235815, -275, -2139, -143, 691, 438, -875
0.235949, -275, -2139, -143, 691, 438, -875
0.236083, -1167, -2158, -1234, 221, 455, -417
0.236217, -1167, -2158, -1234, 221, 455, -417
0.236351, -1167, -2158, -1234, 221, 455, -417
0.236485, -1167, -2158, -1234, 221, 455, -417
0.236619, -1167, -2158, -1234, 221, 455, -417
0.236754, -1167, -2158, -1234, 221, 455, -417
0.236888, -1167, -2158, -1234, 221, 455, -417
0.237022, -1207, -2030, -1248, -423, 150, 454
0.237156, -1207, -2030, -1248, -423, 150, 454
0.237291, -1207, -2030, -1248, -423, 150, 454
0.237425, -1207, -2030, -1248, -423, 150, 454
0.237559, -1207, -2030, -1248, -423, 150, 454
0.237693, -1207, -2030, -1248, -423, 150, 454
0.237828, -1207, -2030, -1248, -423, 150, 454
0.237962, -1207, -2030, -1248, -423, 150, 454
0.238096, -371, -2045, -513, -887, -229, 1060
0.238230, -371, -2045, -513, -887, -229, 1060
0.238364, -371, -2045, -513, -887, -229, 1060
0.238499, -371, -2045, -513, -887, -229, 1060
0.238633, -371, -2045, -513, -887, -229, 1060
0.238767, -371, -2045, -513, -887, -229, 1060
0.238901, -371, -2045, -513, -887, -229, 1060
0.239035, 335, -2125, 200, -1116, -522, 1008
0.239169, 335, -2125, 200, -1116, -522, 1008
0.239304, 335, -2125, 200, -1116, -522, 1008
0.239438, 335, -2125, 200, -1116, -522, 1008
0.239572, 335, -2125, 200, -1116, -522, 1008
0.239706, 335, -2125, 200, -1116, -522, 1008
0.239840, 335, -2125, 200, -1116, -522, 1008
0.239974, 335, -2125, 200, -1116, -522, 1008
0.240109, 264, -2100, 545, -1014, -704, 667
0.240243, 264, -2100, 545, -1014, -704, 667
0.240377, 264, -2100, 545, -1014, -704, 667
0.240511, 264, -2100, 545, -1014, -704, 667
0.240645, 264, -2100, 545, -1014, -704, 667
0.240779, 264, -2100, 545, -1014, -704, 667
0.240913, 264, -2100, 545, -1014, -704, 667
0.241048, -122, -2049, 450, -741, -617, 586
0.241182, -122, -2049, 450, -741, -617, 586
0.241316, -122, -2049, 450, -741, -617, 586
0.241451, -122, -2049, 450, -741, -617, 586
0.241585, -122, -2049, 450, -741, -617, 586
0.241719, -122, -2049, 450, -741, -617, 586
0.241853, -122, -2049, 450, -741, -617, 586
0.241987, -122, -2049, 450, -741, -617, 586
0.242121, -155, -2043, 252, -558, -346, 783
0.242256, -155, -2043, 252, -558, -346, 783
0.242390, -155, -2043, 252, -558, -346, 783
0.242524, -155, -2043, 252, -558, -346, 783
0.242658, -155, -2043, 252, -558, -346, 783
0.242792, -155, -2043, 252, -558, -346, 783
0.242926, -155, -2043, 252, -558, -346, 783
0.243061, -155, -2043, 252, -558, -346, 783
0.243195, 386, -2053, 380, -397, -228, 854
0.243329, 386, -2053, 380, -397, -228, 854
0.243463, 386, -2053, 380, -397, -228, 854
0.243597, 386, -2053, 380, -397, -228, 854
0.243731, 386, -2053, 380, -397, -228, 854
0.243870, 386, -2053, 380, -397, -228, 854
0.244005, 386, -2053, 380, -397, -228, 854
0.244139, 1177, -2025, 646, -48, -249, 459
0.244273, 1177, -2025, 646, -48, -249, 459
0.244408, 1177, -2025, 646, -48, -249, 459
0.244542, 1177, -2025, 646, -48, -249, 459
0.244676, 1177, -2025, 646, -48, -249, 459
0.244810, 1177, -2025, 646, -48, -249, 459
0.244944, 1177, -2025, 646, -48, -249, 459
0.245078, 1177, -2025, 646, -48, -249, 459
0.245212, 1449, -1999, 397, 314, -108, -342
0.245347, 1449, -1999, 397, 314, -108, -342
0.245481, 1449, -1999, 397, 314, -108, -342
0.245615, 1449, -1999, 397, 314, -108, -342
0.245749, 1449, -1999, 397, 314, -108, -342
0.245883, 1449, -1999, 397, 314, -108, -342
0.246017, 1449, -1999, 397, 314, -108, -342
0.246152, 835, -2063, -254, 319, 255, -1026
0.246286, 835, -2063, -254, 319, 255, -1026
0.246420, 835, -2063, -254, 319, 255, -1026
0.246554, 835, -2063, -254, 319, 255, -1026
0.246688, 835, -2063, -254, 319, 255, -1026
0.246823, 835, -2063, -254, 319, 255, -1026
0.246957, 835, -2063, -254, 319, 255, -1026
0.247091, 835, -2063, -254, 319, 255, -1026
0.247225, 96, -2095, -297, 141, 602, -1159
0.247359, 96, -2095, -297, 141, 602, -1159
0.247493, 96, -2095, -297, 141, 602, -1159
0.247628, 96, -2095, -297, 141, 602, -1159
0.247762, 96, -2095, -297, 141, 602, -1159
0.247896, 96, -2095, -297, 141, 602, -1159
0.248030, 96, -2095, -297, 141, 602, -1159
0.248164, -45, -2021, 391, 250, 773, -955
0.248298, -45, -2021, 391, 250, 773, -955
0.248432, -45, -2021, 391, 250, 773, -955
0.248567, -45, -2021, 391, 250, 773, -955
0.248701, -45, -2021, 391, 250, 773, -955
0.248835, -45, -2021, 391, 250, 773, -955
0.248969, -45, -2021, 391, 250, 773, -955
0.249103, -45, -2021, 391, 250, 773, -955
0.249238, 301, -1985, 950, 659, 817, -900
0.249372, 301, -1985, 950, 659, 817, -900
0.249506, 301, -1985, 950, 659, 817, -900
0.249640, 301, -1985, 950, 659, 817, -900
0.249774, 301, -1985, 950, 659, 817, -900
0.249908, 301, -1985, 950, 659, 817, -900
0.250042, 301, -1985, 950, 659, 817, -900
0.250177, 644, -2036, 741, 1079, 783, -1175
0.250311, 644, -2036, 741, 1079, 783, -1175
0.250445, 644, -2036, 741, 1079, 783, -1175
0.250579, 644, -2036, 741, 1079, 783, -1175
0.250713, 644, -2036, 741, 1079, 783, -1175
0.250848, 644, -2036, 741, 1079, 783, -1175
0.250982, 644, -2036, 741, 1079, 783, -1175
0.251116, 644, -2036, 741, 1079, 783, -1175
0.251250, 231, -2069, -269, 1201, 707, -1531
0.251384, 231, -2069, -269, 1201, 707, -1531
0.251518, 231, -2069, -269, 1201, 707, -1531
0.251652, 231, -2069, -269, 1201, 707, -1531
0.251787, 231, -2069, -269, 1201, 707, -1531
0.251921, 231, -2069, -269, 1201, 707, -1531
0.252055, 231, -2069, -269, 1201, 707, -1531
0.252189, -824, -2075, -1047, 872, 604, -1373
0.252323, -824, -2075, -1047, 872, 604, -1373
0.252457, -824, -2075, -1047, 872, 604, -1373
0.252592, -824, -2075, -1047, 872, 604, -1373
0.252727, -824, -2075, -1047, 872, 604, -1373
0.252867, -824, -2075, -1047, 872, 604, -1373
0.253005, -824, -2075, -1047, 872, 604, -1373
0.253140, -824, -2075, -1047, 872, 604, -1373
0.253275, -1249, -2119, -999, 358, 371, -562
0.253410, -1249, -2119, -999, 358, 371, -562
0.253545, -1249, -2119, -999, 358, 371, -562
0.253679, -1249, -2119, -999, 358, 371, -562
0.253815, -1249, -2119, -999, 358, 371, -562
0.253949, -1249, -2119, -999, 358, 371, -562
0.254085, -1249, -2119, -999, 358, 371, -562
0.254221, -648, -2119, -514, -24, -8, 220
0.254357, -648, -2119, -514, -24, -8, 220
0.254491, -648, -2119, -514, -24, -8, 220
0.254627, -648, -2119, -514, -24, -8, 220
0.254762, -648, -2119, -514, -24, -8, 220
0.254896, -648, -2119, -514, -24, -8, 220
0.255031, -648, -2119, -514, -24, -8, 220
0.255168, -648, -2119, -514, -24, -8, 220
0.255306, 78, -2073, 9, -149, -358, 432
0.255449, 78, -2073, 9, -149, -358, 432
0.255585, 78, -2073, 9, -149, -358, 432
0.255720, 78, -2073, 9, -149, -358, 432
0.255854, 78, -2073, 9, -149, -358, 432
0.255989, 78, -2073, 9, -149, -358, 432
0.256123, 78, -2073, 9, -149, -358, 432
0.256257, 208, -2057, 355, -68, -489, 274
0.256391, 208, -2057, 355, -68, -489, 274
0.256525, 208, -2057, 355, -68, -489, 274
0.256676, 208, -2057, 355, -68, -489, 274
0.256812, 208, -2057, 355, -68, -489, 274
0.256946, 208, -2057, 355, -68, -489, 274
0.257081, 208, -2057, 355, -68, -489, 274
0.257215, 208, -2057, 355, -68, -489, 274
0.257349, 129, -2031, 578, 157, -376, 169
0.257483, 129, -2031, 578, 157, -376, 169
0.257618, 129, -2031, 578, 157, -376, 169
0.257752, 129, -2031, 578, 157, -376, 169
0.257886, 129, -2031, 578, 157, -376, 169
0.258020, 129, -2031, 578, 157, -376, 169
0.258154, 129, -2031, 578, 157, -376, 169
0.258288, 105, -2048, 383, 435, -178, 153
0.258422, 105, -2048, 383, 435, -178, 153
0.258557, 105, -2048, 383, 435, -178, 153
0.258691, 105, -2048, 383, 435, -178, 153
0.258825, 105, -2048, 383, 435, -178, 153
0.258959, 105, -2048, 383, 435, -178, 153
0.259093, 105, -2048, 383, 435, -178, 153
0.259227, 105, -2048, 383, 435, -178, 153
0.259362, -360, -2114, -272, 480, -57, 251
0.259496, -360, -2114, -272, 480, -57, 251
0.259630, -360, -2114, -272, 480, -57, 251
0.259764, -360, -2114, -272, 480, -57, 251
0.259898, -360, -2114, -272, 480, -57, 251
0.260032, -360, -2114, -272, 480, -57, 251
0.260166, -360, -2114, -272, 480, -57, 251
0.260301, -594, -2104, -552, 260, -106, 645
0.260437, -594, -2104, -552, 260, -106, 645
0.260572, -594, -2104, -552, 260, -106, 645
0.260706, -594, -2104, -552, 260, -106, 645
0.260841, -594, -2104, -552, 260, -106, 645
0.260975, -594, -2104, -552, 260, -106, 645
0.261110, -594, -2104, -552, 260, -106, 645
0.261250, -594, -2104, -552, 260, -106, 645
0.261387, -37, -2029, -77, 132, -269, 974
0.261528, -37, -2029, -77, 132, -269, 974
0.261671, -37, -2029, -77, 132, -269, 974
0.261810, -37, -2029, -77, 132, -269, 974
0.261948, -37, -2029, -77, 132, -269, 974
0.262083, -37, -2029, -77, 132, -269, 974
0.262217, -37, -2029, -77, 132, -269, 974
0.262349, 364, -1990, 552, 267, -345, 856
0.262484, 364, -1990, 552, 267, -345, 856
0.262625, 364, -1990, 552, 267, -345, 856
0.262762, 364, -1990, 552, 267, -345, 856
0.262897, 364, -1990, 552, 267, -345, 856
0.263031, 364, -1990, 552, 267, -345, 856
0.263165, 364, -1990, 552, 267, -345, 856
0.263299, 364, -1990, 552, 267, -345, 856
0.263433, 320, -2003, 764, 558, -242, 555
0.263568, 320, -2003, 764, 558, -242, 555
0.263701, 320, -2003, 764, 558, -242, 555
0.263836, 320, -2003, 764, 558, -242, 555
0.263970, 320, -2003, 764, 558, -242, 555
0.264104, 320, -2003, 764, 558, -242, 555
0.264238, 320, -2003, 764, 558, -242, 555
0.264372, 199, -2015, 342, 820, -19, 366
0.264506, 199, -2015, 342, 820, -19, 366
0.264640, 199, -2015, 342, 820, -19, 366
0.264774, 199, -2015, 342, 820, -19, 366
0.264908, 199, -2015, 342, 820, -19, 366
0.265042, 199, -2015, 342, 820, -19, 366
0.265176, 199, -2015, 342, 820, -19, 366
0.265310, 199, -2015, 342, 820, -19, 366
0.265444, 413, -2035, -454, 773, 198, 275
0.265578, 413, -2035, -454, 773, 198, 275
0.265713, 413, -2035, -454, 773, 198, 275
0.265846, 413, -2035, -454, 773, 198, 275
0.265980, 413, -2035, -454, 773, 198, 275
0.266114, 413, -2035, -454, 773, 198, 275
0.266248, 413, -2035, -454, 773, 198, 275
0.266382, 813, -2110, -781, 412, 267, -5
0.266516, 813, -2110, -781, 412, 267, -5
0.266650, 813, -2110, -781, 412, 267, -5
0.266784, 813, -2110, -781, 412, 267, -5
0.266918, 813, -2110, -781, 412, 267, -5
0.267053, 813, -2110, -781, 412, 267, -5
0.267190, 813, -2110, -781, 412, 267, -5
0.267324, 813, -2110, -781, 412, 267, -5
0.267458, 331, -2152, -359, 144, 211, -406
0.267592, 331, -2152, -359, 144, 211, -406
0.267726, 331, -2152, -359, 144, 211, -406
0.267860, 331, -2152, -359, 144, 211, -406
0.267994, 331, -2152, -359, 144, 211, -406
0.268128, 331, -2152, -359, 144, 211, -406
0.268262, 331, -2152, -359, 144, 211, -406
0.268396, 331, -2152, -359, 144, 211, -406
0.268530, -615, -2088, -21, 91, 203, -319
0.268664, -615, -2088, -21, 91, 203, -319
0.268798, -615, -2088, -21, 91, 203, -319
0.268932, -615, -2088, -21, 91, 203, -319
0.269066, -615, -2088, -21, 91, 203, -319
0.269200, -615, -2088, -21, 91, 203, -319
0.269334, -615, -2088, -21, 91, 203, -319
0.269468, -693, -2016, -179, -46, 249, 235
0.269602, -693, -2016, -179, -46, 249, 235
0.269763, -693, -2016, -179, -46, 249, 235
0.269898, -693, -2016, -179, -46, 249, 235
0.270032, -693, -2016, -179, -46, 249, 235
0.270166, -693, -2016, -179, -46, 249, 235
0.270300, -693, -2016, -179, -46, 249, 235
0.270436, -18, -2008, -407, -333, 187, 563
0.270571, -18, -2008, -407, -333, 187, 563
0.270706, -18, -2008, -407, -333, 187, 563
0.270839, -18, -2008, -407, -333, 187, 563
0.270973, -18, -2008, -407, -333, 187, 563
0.271107, -18, -2008, -407, -333, 187, 563
0.271241, -18, -2008, -407, -333, 187, 563
0.271375, -18, -2008, -407, -333, 187, 563
0.271509, 268, -2039, -500, -634, 23, 417
0.271644, 268, -2039, -500, -634, 23, 417
0.271778, 268, -2039, -500, -634, 23, 417
0.271912, 268, -2039, -500, -634, 23, 417
0.272046, 268, -2039, -500, -634, 23, 417
0.272179, 268, -2039, -500, -634, 23, 417
0.272313, 268, -2039, -500, -634, 23, 417
0.272447, 268, -2039, -500, -634, 23, 417
0.272581, -104, -2061, -336, -889, -102, 286
0.272715, -104, -2061, -336, -889, -102, 286
0.272849, -104, -2061, -336, -889, -102, 286
0.272983, -104, -2061, -336, -889, -102, 286
0.273117, -104, -2061, -336, -889, -102, 286
0.273251, -104, -2061, -336, -889, -102, 286
0.273385, -104, -2061, -336, -889, -102, 286
0.273519, -218, -2042, -69, -1017, -184, 469
0.273654, -218, -2042, -69, -1017, -184, 469
0.273788, -218, -2042, -69, -1017, -184, 469
0.273922, -218, -2042, -69, -1017, -184, 469
0.274056, -218, -2042, -69, -1017, -184, 469
0.274190, -218, -2042, -69, -1017, -184, 469
0.274318, -218, -2042, -69, -1017, -184, 469
0.274454, -218, -2042, -69, -1017, -184, 469
0.274589, 80, -2063, 2, -1066, -225, 638
0.274724, 80, -2063, 2, -1066, -225, 638
0.274858, 80, -2063, 2, -1066, -225, 638
0.274992, 80, -2063, 2, -1066, -225, 638
0.275126, 80, -2063, 2, -1066, -225, 638
0.275260, 80, -2063, 2, -1066, -225, 638
0.275394, 80, -2063, 2, -1066, -225, 638
0.275528, 167, -2130, 10, -1098, -193, 613
0.275658, 167, -2130, 10, -1098, -193, 613
0.275793, 167, -2130, 10, -1098, -193, 613
0.275927, 167, -2130, 10, -1098, -193, 613
0.276061, 167, -2130, 10, -1098, -193, 613
0.276194, 167, -2130, 10, -1098, -193, 613
0.276328, 167, -2130, 10, -1098, -193, 613
0.276462, 167, -2130, 10, -1098, -193, 613
0.276596, 128, -2110, 130, -1031, -126, 578
0.276730, 128, -2110, 130, -1031, -126, 578
0.276864, 128, -2110, 130, -1031, -126, 578
0.276998, 128, -2110, 130, -1031, -126, 578
0.277132, 128, -2110, 130, -1031, -126, 578
0.277266, 128, -2110, 130, -1031, -126, 578
0.277400, 128, -2110, 130, -1031, -126, 578
0.277534, 385, -2009, 383, -845, -40, 522
0.277668, 385, -2009, 383, -845, -40, 522
0.277802, 385, -2009, 383, -845, -40, 522
0.277936, 385, -2009, 383, -845, -40, 522
0.278070, 385, -2009, 383, -845, -40, 522
0.278204, 385, -2009, 383, -845, -40, 522
0.278338, 385, -2009, 383, -845, -40, 522
0.278472, 385, -2009, 383, -845, -40, 522
0.278606, 561, -1980, 606, -554, 99, 285
0.278740, 561, -1980, 606, -554, 99, 285
0.278874, 561, -1980, 606, -554, 99, 285
0.279008, 561, -1980, 606, -554, 99, 285
0.279142, 561, -1980, 606, -554, 99, 285
0.279276, 561, -1980, 606, -554, 99, 285
0.279410, 561, -1980, 606, -554, 99, 285
0.279544, 561, -1980, 606, -554, 99, 285
0.279678, 379, -2052, 527, -235, 261, 18
0.279812, 379, -2052, 527, -235, 261, 18
0.279946, 379, -2052, 527, -235, 261, 18
0.280080, 379, -2052, 527, -235, 261, 18
0.280214, 379, -2052, 527, -235, 261, 18
0.280348, 379, -2052, 527, -235, 261, 18
0.280482, 379, -2052, 527, -235, 261, 18
0.280616, 346, -2076, 219, -4, 372, -127
0.280750, 346, -2076, 219, -4, 372, -127
0.280884, 346, -2076, 219, -4, 372, -127
0.281018, 346, -2076, 219, -4, 372, -127
0.281152, 346, -2076, 219, -4, 372, -127
0.281286, 346, -2076, 219, -4, 372, -127
0.281421, 346, -2076, 219, -4, 372, -127
0.281555, 346, -2076, 219, -4, 372, -127
0.281689, 380, -2025, -95, 125, 408, -288
0.281823, 380, -2025, -95, 125, 408, -288
0.281957, 380, -2025, -95, 125, 408, -288
0.282091, 380, -2025, -95, 125, 408, -288
0.282226, 380, -2025, -95, 125, 408, -288
0.282360, 380, -2025, -95, 125, 408, -288
0.282494, 380, -2025, -95, 125, 408, -288
0.282643, -151, -2077, -370, 75, 417, -376
0.282778, -151, -2077, -370, 75, 417, -376
0.282912, -151, -2077, -370, 75, 417, -376
0.283046, -151, -2077, -370, 75, 417, -376
0.283180, -151, -2077, -370, 75, 417, -376
0.283315, -151, -2077, -370, 75, 417, -376
0.283449, -151, -2077, -370, 75, 417, -376
0.283583, -151, -2077, -370, 75, 417, -376
0.283717, -787, -2136, -384, -130, 386, -67
0.283851, -787, -2136, -384, -130, 386, -67
0.283986, -787, -2136, -384, -130, 386, -67
0.284120, -787, -2136, -384, -130, 386, -67
0.284254, -787, -2136, -384, -130, 386, -67
0.284388, -787, -2136, -384, -130, 386, -67
0.284522, -787, -2136, -384, -130, 386, -67
0.284656, -683, -2048, -45, -229, 232, 476
0.284791, -683, -2048, -45, -229, 232, 476
0.284924, -683, -2048, -45, -229, 232, 476
0.285058, -683, -2048, -45, -229, 232, 476
0.285191, -683, -2048, -45, -229, 232, 476
0.285326, -683, -2048, -45, -229, 232, 476
0.285460, -683, -2048, -45, -229, 232, 476
0.285594, -683, -2048, -45, -229, 232, 476
0.285728, -158, -2013, 485, -101, 33, 756
0.285863, -158, -2013, 485, -101, 33, 756
0.285997, -158, -2013, 485, -101, 33, 756
0.286131, -158, -2013, 485, -101, 33, 756
0.286265, -158, -2013, 485, -101, 33, 756
0.286399, -158, -2013, 485, -101, 33, 756
0.286534, -158, -2013, 485, -101, 33, 756
0.286668, 82, -2047, 1022, 296, -68, 694
0.286802, 82, -2047, 1022, 296, -68, 694
0.286936, 82, -2047, 1022, 296, -68, 694
0.287071, 82, -2047, 1022, 296, -68, 694
0.287205, 82, -2047, 1022, 296, -68, 694
0.287339, 82, -2047, 1022, 296, -68, 694
0.287473, 82, -2047, 1022, 296, -68, 694
0.287607, 82, -2047, 1022, 296, -68, 694
0.287741, 44, -2003, 1039, 929, -52, 587
0.287875, 44, -2003, 1039, 929, -52, 587
0.288010, 44, -2003, 1039, 929, -52, 587
0.288144, 44, -2003, 1039, 929, -52, 587
0.288278, 44, -2003, 1039, 929, -52, 587
0.288412, 44, -2003, 1039, 929, -52, 587
0.288546, 44, -2003, 1039, 929, -52, 587
0.288680, 5, -2028, -321, 1201, 30, 564
0.288815, 5, -2028, -321, 1201, 30, 564
0.288949, 5, -2028, -321, 1201, 30, 564
0.289083, 5, -2028, -321, 1201, 30, 564
0.289218, 5, -2028, -321, 1201, 30, 564
0.289352, 5, -2028, -321, 1201, 30, 564
0.289486, 5, -2028, -321, 1201, 30, 564
0.289620, 5, -2028, -321, 1201, 30, 564
0.289754, -291, -2160, -1892, 543, 27, 662
0.289889, -291, -2160, -1892, 543, 27, 662
0.290023, -291, -2160, -1892, 543, 27, 662
0.290157, -291, -2160, -1892, 543, 27, 662
0.290292, -291, -2160, -1892, 543, 27, 662
0.290426, -291, -2160, -1892, 543, 27, 662
0.290560, -291, -2160, -1892, 543, 27, 662
0.290694, -291, -2160, -1892, 543, 27, 662
0.290828, -446, -2143, -1475, -339, -188, 991
0.290963, -446, -2143, -1475, -339, -188, 991
0.291097, -446, -2143, -1475, -339, -188, 991
0.291231, -446, -2143, -1475, -339, -188, 991
0.291365, -446, -2143, -1475, -339, -188, 991
0.291499, -446, -2143, -1475, -339, -188, 991
0.291634, -446, -2143, -1475, -339, -188, 991
0.291768, 62, -2032, -188, -639, -380, 1247
0.291903, 62, -2032, -188, -639, -380, 1247
0.292037, 62, -2032, -188, -639, -380, 1247
0.292171, 62, -2032, -188, -639, -380, 1247
0.292300, 62, -2032, -188, -639, -380, 1247
0.292436, 62, -2032, -188, -639, -380, 1247
0.292572, 62, -2032, -188, -639, -380, 1247
0.292708, 62, -2032, -188, -639, -380, 1247
0.292842, 410, -2045, 398, -696, -304, 1091
0.292977, 410, -2045, 398, -696, -304, 1091
0.293111, 410, -2045, 398, -696, -304, 1091
0.293246, 410, -2045, 398, -696, -304, 1091
0.293380, 410, -2045, 398, -696, -304, 1091
0.293514, 410, -2045, 398, -696, -304, 1091
0.293648, 410, -2045, 398, -696, -304, 1091
0.293783, 324, -2061, 683, -629, -149, 792
0.293917, 324, -2061, 683, -629, -149, 792
0.294051, 324, -2061, 683, -629, -149, 792
0.294186, 324, -2061, 683, -629, -149, 792
0.294320, 324, -2061, 683, -629, -149, 792
0.294454, 324, -2061, 683, -629, -149, 792
0.294588, 324, -2061, 683, -629, -149, 792
0.294722, 324, -2061, 683, -629, -149, 792
0.294856, 276, -2024, 768, -233, 15, 594
0.294991, 276, -2024, 768, -233, 15, 594
0.295125, 276, -2024, 768, -233, 15, 594
0.295259, 276, -2024, 768, -233, 15, 594
0.295393, 276, -2024, 768, -233, 15, 594
0.295538, 276, -2024, 768, -233, 15, 594
0.295674, 276, -2024, 768, -233, 15, 594
0.295808, 157, -2056, 568, 198, 268, 470
0.295942, 157, -2056, 568, 198, 268, 470
0.296076, 157, -2056, 568, 198, 268, 470
0.296210, 157, -2056, 568, 198, 268, 470
0.296345, 157, -2056, 568, 198, 268, 470
0.296479, 157, -2056, 568, 198, 268, 470
0.296613, 157, -2056, 568, 198, 268, 470
0.296747, 157, -2056, 568, 198, 268, 470
0.296881, 5, -2108, 355, 443, 355, 441
0.297015, 5, -2108, 355, 443, 355, 441
0.297150, 5, -2108, 355, 443, 355, 441
0.297284, 5, -2108, 355, 443, 355, 441
0.297418, 5, -2108, 355, 443, 355, 441
0.297552, 5, -2108, 355, 443, 355, 441
0.297687, 5, -2108, 355, 443, 355, 441
0.297821, 165, -2071, 305, 663, 167, 428
0.297955, 165, -2071, 305, 663, 167, 428
0.298089, 165, -2071, 305, 663, 167, 428
0.298223, 165, -2071, 305, 663, 167, 428
0.298357, 165, -2071, 305, 663, 167, 428
0.298492, 165, -2071, 305, 663, 167, 428
0.298626, 165, -2071, 305, 663, 167, 428
0.298760, 165, -2071, 305, 663, 167, 428
0.298894, 523, -1984, 426, 965, 25, 257
0.299029, 523, -1984, 426, 965, 25, 257
0.299163, 523, -1984, 426, 965, 25, 257
0.299297, 523, -1984, 426, 965, 25, 257
0.299431, 523, -1984, 426, 965, 25, 257
0.299565, 523, -1984, 426, 965, 25, 257
0.299699, 523, -1984, 426, 965, 25, 257
0.299833, 722, -1955, 392, 1257, 135, -86
0.299968, 722, -1955, 392, 1257, 135, -86
0.300102, 722, -1955, 392, 1257, 135, -86
0.300236, 722, -1955, 392, 1257, 135, -86
0.300370, 722, -1955, 392, 1257, 135, -86
0.300504, 722, -1955, 392, 1257, 135, -86
0.300639, 722, -1955, 392, 1257, 135, -86
0.300773, 722, -1955, 392, 1257, 135, -86
0.300907, 490, -2031, -236, 1314, 393, -435
0.301041, 490, -2031, -236, 1314, 393, -435
0.301175, 490, -2031, -236, 1314, 393, -435
0.301310, 490, -2031, -236, 1314, 393, -435
0.301444, 490, -2031, -236, 1314, 393, -435
0.301578, 490, -2031, -236, 1314, 393, -435
0.301712, 490, -2031, -236, 1314, 393, -435
0.301846, 490, -2031, -236, 1314, 393, -435
0.301981, -214, -2134, -1148, 894, 628, -490
0.302115, -214, -2134, -1148, 894, 628, -490
0.302249, -214, -2134, -1148, 894, 628, -490
0.302383, -214, -2134, -1148, 894, 628, -490
0.302517, -214, -2134, -1148, 894, 628, -490
0.302651, -214, -2134, -1148, 894, 628, -490
0.302785, -214, -2134, -1148, 894, 628, -490
0.302920, -707, -2140, -1218, 221, 651, -81
0.303054, -707, -2140, -1218, 221, 651, -81
0.303188, -707, -2140, -1218, 221, 651, -81
0.303322, -707, -2140, -1218, 221, 651, -81
0.303456, -707, -2140, -1218, 221, 651, -81
0.303590, -707, -2140, -1218, 221, 651, -81
0.303724, -707, -2140, -1218, 221, 651, -81
0.303859, -707, -2140, -1218, 221, 651, -81
0.303993, -310, -2062, -330, -153, 444, 400
0.304127, -310, -2062, -330, -153, 444, 400
0.304261, -310, -2062, -330, -153, 444, 400
0.304396, -310, -2062, -330, -153, 444, 400
0.304530, -310, -2062, -330, -153, 444, 400
0.304664, -310, -2062, -330, -153, 444, 400
0.304798, -310, -2062, -330, -153, 444, 400
0.304932, 187, -1988, 279, -207, 241, 437
0.305066, 187, -1988, 279, -207, 241, 437
0.305200, 187, -1988, 279, -207, 241, 437
0.305335, 187, -1988, 279, -207, 241, 437
0.305469, 187, -1988, 279, -207, 241, 437
0.305603, 187, -1988, 279, -207, 241, 437
0.305737, 187, -1988, 279, -207, 241, 437
0.305871, 187, -1988, 279, -207, 241, 437
0.306006, -54, -2026, 465, -150, 134, 260
0.306140, -54, -2026, 465, -150, 134, 260
0.306274, -54, -2026, 465, -150, 134, 260
0.306408, -54, -2026, 465, -150, 134, 260
0.306542, -54, -2026, 465, -150, 134, 260
0.306676, -54, -2026, 465, -150, 134, 260
0.306810, -54, -2026, 465, -150, 134, 260
0.306944, -527, -2130, 496, 85, 59, 367
0.307079, -527, -2130, 496, 85, 59, 367
0.307213, -527, -2130, 496, 85, 59, 367
0.307347, -527, -2130, 496, 85, 59, 367
0.307481, -527, -2130, 496, 85, 59, 367
0.307615, -527, -2130, 496, 85, 59, 367
0.307749, -527, -2130, 496, 85, 59, 367
0.307883, -527, -2130, 496, 85, 59, 367
0.308017, -497, -2098, 205, 361, 0, 733
0.308152, -497, -2098, 205, 361, 0, 733
0.308286, -497, -2098, 205, 361, 0, 733
0.308420, -497, -2098, 205, 361, 0, 733
0.308554, -497, -2098, 205, 361, 0, 733
0.308694, -497, -2098, 205, 361, 0, 733
0.308828, -497, -2098, 205, 361, 0, 733
0.308962, 206, -1973, 26, 483, -128, 920
0.309097, 206, -1973, 26, 483, -128, 920
0.309231, 206, -1973, 26, 483, -128, 920
0.309365, 206, -1973, 26, 483, -128, 920
0.309499, 206, -1973, 26, 483, -128, 920
0.309634, 206, -1973, 26, 483, -128, 920
0.309768, 206, -1973, 26, 483, -128, 920
0.309902, 206, -1973, 26, 483, -128, 920
0.310036, 677, -1992, 246, 609, -293, 627
0.310170, 677, -1992, 246, 609, -293, 627
0.310304, 677, -1992, 246, 609, -293, 627
0.310438, 677, -1992, 246, 609, -293, 627
0.310573, 677, -1992, 246, 609, -293, 627
0.310707, 677, -1992, 246, 609, -293, 627
0.310841, 677, -1992, 246, 609, -293, 627
0.310975, 65, -2114, 436, 880, -256, 296
0.311109, 65, -2114, 436, 880, -256, 296
0.311243, 65, -2114, 436, 880, -256, 296
0.311378, 65, -2114, 436, 880, -256, 296
0.311512, 65, -2114, 436, 880, -256, 296
0.311646, 65, -2114, 436, 880, -256, 296
0.311780, 65, -2114, 436, 880, -256, 296
0.311916, 65, -2114, 436, 880, -256, 296
0.312050, -415, -2098, 136, 1086, -12, 494
0.312185, -415, -2098, 136, 1086, -12, 494
0.312319, -415, -2098, 136, 1086, -12, 494
0.312453, -415, -2098, 136, 1086, -12, 494
0.312587, -415, -2098, 136, 1086, -12, 494
0.312721, -415, -2098, 136, 1086, -12, 494
0.312855, -415, -2098, 136, 1086, -12, 494
0.312990, -415, -2098, 136, 1086, -12, 494
0.313124, 97, -2023, -309, 1015, 194, 777
0.313258, 97, -2023, -309, 1015, 194, 777
0.313393, 97, -2023, -309, 1015, 194, 777
0.313527, 97, -2023, -309, 1015, 194, 777
0.313661, 97, -2023, -309, 1015, 194, 777
0.313795, 97, -2023, -309, 1015, 194, 777
0.313929, 97, -2023, -309, 1015, 194, 777
0.314063, -42, -2081, -475, 795, 275, 691
0.314198, -42, -2081, -475, 795, 275, 691
0.314332, -42, -2081, -475, 795, 275, 691
0.314466, -42, -2081, -475, 795, 275, 691
0.314601, -42, -2081, -475, 795, 275, 691
0.314735, -42, -2081, -475, 795, 275, 691
0.314869, -42, -2081, -475, 795, 275, 691
0.315004, -42, -2081, -475, 795, 275, 691
0.315138, -868, -2096, -635, 503, 255, 848
0.315272, -868, -2096, -635, 503, 255, 848
0.315406, -868, -2096, -635, 503, 255, 848
0.315540, -868, -2096, -635, 503, 255, 848
0.315674, -868, -2096, -635, 503, 255, 848
0.315809, -868, -2096, -635, 503, 255, 848
0.315943, -868, -2096, -635, 503, 255, 848
0.316077, -585, -1996, -664, 83, 65, 1350
0.316211, -585, -1996, -664, 83, 65, 1350
0.316345, -585, -1996, -664, 83, 65, 1350
0.316479, -585, -1996, -664, 83, 65, 1350
0.316614, -585, -1996, -664, 83, 65, 1350
0.316748, -585, -1996, -664, 83, 65, 1350
0.316882, -585, -1996, -664, 83, 65, 1350
0.317016, -585, -1996, -664, 83, 65, 1350
0.317150, 111, -2012, -257, -264, -231, 1454
0.317285, 111, -2012, -257, -264, -231, 1454
0.317419, 111, -2012, -257, -264, -231, 1454
0.317553, 111, -2012, -257, -264, -231, 1454
0.317687, 111, -2012, -257, -264, -231, 1454
0.317821, 111, -2012, -257, -264, -231, 1454
0.317955, 111, -2012, -257, -264, -231, 1454
0.318089, -95, -2100, 69, -377, -395, 1247
0.318224, -95, -2100, 69, -377, -395, 1247
0.318358, -95, -2100, 69, -377, -395, 1247
0.318492, -95, -2100, 69, -377, -395, 1247
0.318626, -95, -2100, 69, -377, -395, 1247
0.318760, -95, -2100, 69, -377, -395, 1247
0.318895, -95, -2100, 69, -377, -395, 1247
0.319029, -95, -2100, 69, -377, -395, 1247
0.319163, -435, -2087, 129, -379, -399, 1325
0.319297, -435, -2087, 129, -379, -399, 1325
0.319431, -435, -2087, 129, -379, -399, 1325
0.319565, -435, -2087, 129, -379, -399, 1325
0.319700, -435, -2087, 129, -379, -399, 1325
0.319834, -435, -2087, 129, -379, -399, 1325
0.319968, -435, -2087, 129, -379, -399, 1325
0.320102, -84, -2014, 358, -278, -405, 1543
0.320236, -84, -2014, 358, -278, -405, 1543
0.320371, -84, -2014, 358, -278, -405, 1543
0.320505, -84, -2014, 358, -278, -405, 1543
0.320639, -84, -2014, 358, -278, -405, 1543
0.320773, -84, -2014, 358, -278, -405, 1543
0.320907, -84, -2014, 358, -278, -405, 1543
0.321041, -84, -2014, 358, -278, -405, 1543
0.321176, 432, -2005, 586, -9, -393, 1436
0.321310, 432, -2005, 586, -9, -393, 1436
0.321444, 432, -2005, 586, -9, -393, 1436
0.321589, 432, -2005, 586, -9, -393, 1436
0.321724, 432, -2005, 586, -9, -393, 1436
0.321858, 432, -2005, 586, -9, -393, 1436
0.321993, 432, -2005, 586, -9, -393, 1436
0.322127, 278, -2084, 334, 234, -257, 1114
0.322261, 278, -2084, 334, 234, -257, 1114
0.322395, 278, -2084, 334, 234, -257, 1114
0.322529, 278, -2084, 334, 234, -257, 1114
0.322663, 278, -2084, 334, 234, -257, 1114
0.322797, 278, -2084, 334, 234, -257, 1114
0.322931, 278, -2084, 334, 234, -257, 1114
0.323065, 278, -2084, 334, 234, -257, 1114
0.323199, -55, -2096, -32, 300, -86, 1040
0.323334, -55, -2096, -32, 300, -86, 1040
0.323468, -55, -2096, -32, 300, -86, 1040
0.323602, -55, -2096, -32, 300, -86, 1040
0.323736, -55, -2096, -32, 300, -86, 1040
0.323870, -55, -2096, -32, 300, -86, 1040
0.324005, -55, -2096, -32, 300, -86, 1040
0.324139, -55, -2096, -32, 300, -86, 1040
0.324273, 377, -2059, -178, 304, 3, 1073
0.324407, 377, -2059, -178, 304, 3, 1073
0.324541, 377, -2059, -178, 304, 3, 1073
0.324675, 377, -2059, -178, 304, 3, 1073
0.324810, 377, -2059, -178, 304, 3, 1073
0.324944, 377, -2059, -178, 304, 3, 1073
0.325078, 377, -2059, -178, 304, 3, 1073
0.325212, 805, -2092, -484, 165, 93, 744
0.325347, 805, -2092, -484, 165, 93, 744
0.325481, 805, -2092, -484, 165, 93, 744
0.325615, 805, -2092, -484, 165, 93, 744
0.325749, 805, -2092, -484, 165, 93, 744
0.325883, 805, -2092, -484, 165, 93, 744
0.326018, 805, -2092, -484, 165, 93, 744
0.326152, 805, -2092, -484, 165, 93, 744
0.326286, 586, -2065, -510, -149, 198, 281
0.326420, 586, -2065, -510, -149, 198, 281
0.326554, 586, -2065, -510, -149, 198, 281
0.326688, 586, -2065, -510, -149, 198, 281
0.326822, 586, -2065, -510, -149, 198, 281
0.326957, 586, -2065, -510, -149, 198, 281
0.327091, 586, -2065, -510, -149, 198, 281
0.327225, 446, -2005, 159, -258, 264, 19
0.327359, 446, -2005, 159, -258, 264, 19
0.327493, 446, -2005, 159, -258, 264, 19
0.327628, 446, -2005, 159, -258, 264, 19
0.327762, 446, -2005, 159, -258, 264, 19
0.327896, 446, -2005, 159, -258, 264, 19
0.328030, 446, -2005, 159, -258, 264, 19
0.328164, 446, -2005, 159, -258, 264, 19
0.328298, 394, -2055, 829, -8, 412, -190
0.328433, 394, -2055, 829, -8, 412, -190
0.328567, 394, -2055, 829, -8, 412, -190
0.328701, 394, -2055, 829, -8, 412, -190
0.328835, 394, -2055, 829, -8, 412, -190
0.328969, 394, -2055, 829, -8, 412, -190
0.329103, 394, -2055, 829, -8, 412, -190
0.329238, 4, -2081, 923, 431, 608, -329
0.329372, 4, -2081, 923, 431, 608, -329
0.329505, 4, -2081, 923, 431, 608, -329
0.329639, 4, -2081, 923, 431, 608, -329
0.329772, 4, -2081, 923, 431, 608, -329
0.329906, 4, -2081, 923, 431, 608, -329
0.330039, 4, -2081, 923, 431, 608, -329
0.330173, 4, -2081, 923, 431, 608, -329
0.330306, -720, -2046, 122, 729, 667, -156
0.330440, -720, -2046, 122, 729, 667, -156
0.330573, -720, -2046, 122, 729, 667, -156
0.330707, -720, -2046, 122, 729, 667, -156
0.330840, -720, -2046, 122, 729, 667, -156
0.330973, -720, -2046, 122, 729, 667, -156
0.331107, -720, -2046, 122, 729, 667, -156
0.331240, -720, -2046, 122, 729, 667, -156
0.331374, -1558, -2065, -882, 520, 546, 495
0.331508, -1558, -2065, -882, 520, 546, 495
0.331641, -1558, -2065, -882, 520, 546, 495
0.331774, -1558, -2065, -882, 520, 546, 495
0.331908, -1558, -2065, -882, 520, 546, 495
0.332041, -1558, -2065, -882, 520, 546, 495
0.332175, -1558, -2065, -882, 520, 546, 495
0.332308, -1599, -2101, -868, 68, 195, 1507
0.332442, -1599, -2101, -868, 68, 195, 1507
0.332575, -1599, -2101, -868, 68, 195, 1507
0.332709, -1599, -2101, -868, 68, 195, 1507
0.332842, -1599, -2101, -868, 68, 195, 1507
0.332976, -1599, -2101, -868, 68, 195, 1507
0.333109, -1599, -2101, -868, 68, 195, 1507
0.333243, -1599, -2101, -868, 68, 195, 1507
0.333377, -509, -2078, -221, -150, -319, 2199
0.333511, -509, -2078, -221, -150, -319, 2199
0.333645, -509, -2078, -221, -150, -319, 2199
0.333779, -509, -2078, -221, -150, -319, 2199
0.333913, -509, -2078, -221, -150, -319, 2199
0.334047, -509, -2078, -221, -150, -319, 2199
0.334181, -509, -2078, -221, -150, -319, 2199
0.334315, 535, -2013, 330, -133, -701, 2080
0.334449, 535, -2013, 330, -133, -701, 2080
0.334587, 535, -2013, 330, -133, -701, 2080
0.334722, 535, -2013, 330, -133, -701, 2080
0.334856, 535, -2013, 330, -133, -701, 2080
0.334990, 535, -2013, 330, -133, -701, 2080
0.335124, 535, -2013, 330, -133, -701, 2080
0.335258, 535, -2013, 330, -133, -701, 2080
0.335392, 844, -1996, 738, 112, -760, 1507
0.335526, 844, -1996, 738, 112, -760, 1507
0.335660, 844, -1996, 738, 112, -760, 1507
0.335794, 844, -1996, 738, 112, -760, 1507
0.335928, 844, -1996, 738, 112, -760, 1507
0.336062, 844, -1996, 738, 112, -760, 1507
0.336196, 844, -1996, 738, 112, -760, 1507
0.336330, 723, -2022, 867, 594, -485, 991
0.336464, 723, -2022, 867, 594, -485, 991
0.336598, 723, -2022, 867, 594, -485, 991
0.336732, 723, -2022, 867, 594, -485, 991
0.336866, 723, -2022, 867, 594, -485, 991
0.337000, 723, -2022, 867, 594, -485, 991
0.337134, 723, -2022, 867, 594, -485, 991
0.337268, 723, -2022, 867, 594, -485, 991
0.337402, 205, -2056, 147, 956, -11, 740
0.337536, 205, -2056, 147, 956, -11, 740
0.337671, 205, -2056, 147, 956, -11, 740
0.337805, 205, -2056, 147, 956, -11, 740
0.337939, 205, -2056, 147, 956, -11, 740
0.338073, 205, -2056, 147, 956, -11, 740
0.338207, 205, -2056, 147, 956, -11, 740
0.338341, 205, -2056, 147, 956, -11, 740
0.338475, -433, -2092, -1066, 689, 311, 884
0.338610, -433, -2092, -1066, 689, 311, 884
0.338744, -433, -2092, -1066, 689, 311, 884
0.338878, -433, -2092, -1066, 689, 311, 884
0.339012, -433, -2092, -1066, 689, 311, 884
0.339146, -433, -2092, -1066, 689, 311, 884
0.339280, -433, -2092, -1066, 689, 311, 884
0.339414, -441, -2061, -1070, 54, 217, 1271
0.339549, -441, -2061, -1070, 54, 217, 1271
0.339683, -441, -2061, -1070, 54, 217, 1271
0.339817, -441, -2061, -1070, 54, 217, 1271
0.339951, -441, -2061, -1070, 54, 217, 1271
0.340085, -441, -2061, -1070, 54, 217, 1271
0.340219, -441, -2061, -1070, 54, 217, 1271
0.340354, -441, -2061, -1070, 54, 217, 1271
0.340488, 66, -2006, -122, -208, -54, 1417
0.340622, 66, -2006, -122, -208, -54, 1417
0.340756, 66, -2006, -122, -208, -54, 1417
0.340890, 66, -2006, -122, -208, -54, 1417
0.341024, 66, -2006, -122, -208, -54, 1417
0.341159, 66, -2006, -122, -208, -54, 1417
0.341293, 66, -2006, -122, -208, -54, 1417
0.341427, 281, -2035, 431, -186, -138, 1182
0.341562, 281, -2035, 431, -186, -138, 1182
0.341696, 281, -2035, 431, -186, -138, 1182
0.341830, 281, -2035, 431, -186, -138, 1182
0.341959, 281, -2035, 431, -186, -138, 1182
0.342094, 281, -2035, 431, -186, -138, 1182
0.342228, 281, -2035, 431, -186, -138, 1182
0.342362, 281, -2035, 431, -186, -138, 1182
0.342496, 39, -2107, 659, -68, -108, 921
0.342631, 39, -2107, 659, -68, -108, 921
0.342765, 39, -2107, 659, -68, -108, 921
0.342899, 39, -2107, 659, -68, -108, 921
0.343033, 39, -2107, 659, -68, -108, 921
0.343167, 39, -2107, 659, -68, -108, 921
0.343301, 39, -2107, 659, -68, -108, 921
0.343436, -67, -2088, 602, 279, -78, 882
0.343570, -67, -2088, 602, 279, -78, 882
0.343704, -67, -2088, 602, 279, -78, 882
0.343838, -67, -2088, 602, 279, -78, 882
0.343972, -67, -2088, 602, 279, -78, 882
0.344106, -67, -2088, 602, 279, -78, 882
0.344241, -67, -2088, 602, 279, -78, 882
0.344375, -67, -2088, 602, 279, -78, 882
0.344509, 156, -2013, 153, 559, 6, 879
0.344643, 156, -2013, 153, 559, 6, 879
0.344777, 156, -2013, 153, 559, 6, 879
0.344912, 156, -2013, 153, 559, 6, 879
0.345046, 156, -2013, 153, 559, 6, 879
0.345180, 156, -2013, 153, 559, 6, 879
0.345314, 156, -2013, 153, 559, 6, 879
0.345449, 66, -2037, -263, 521, 39, 771
0.345583, 66, -2037, -263, 521, 39, 771
0.345717, 66, -2037, -263, 521, 39, 771
0.345851, 66, -2037, -263, 521, 39, 771
0.345986, 66, -2037, -263, 521, 39, 771
0.346120, 66, -2037, -263, 521, 39, 771
0.346254, 66, -2037, -263, 521, 39, 771
0.346388, 66, -2037, -263, 521, 39, 771
0.346522, -424, -2088, -355, 352, -64, 828
0.346657, -424, -2088, -355, 352, -64, 828
0.346791, -424, -2088, -355, 352, -64, 828
0.346925, -424, -2088, -355, 352, -64, 828
0.347059, -424, -2088, -355, 352, -64, 828
0.347193, -424, -2088, -355, 352, -64, 828
0.347327, -424, -2088, -355, 352, -64, 828
0.347461, -424, -2088, -355, 352, -64, 828
0.347600, -600, -2077, -168, 235, -184, 1170
0.347737, -600, -2077, -168, 235, -184, 1170
0.347871, -600, -2077, -168, 235, -184, 1170
0.348005, -600, -2077, -168, 235, -184, 1170
0.348139, -600, -2077, -168, 235, -184, 1170
0.348274, -600, -2077, -168, 235, -184, 1170
0.348408, -600, -2077, -168, 235, -184, 1170
0.348542, -323, -2098, -19, 153, -225, 1493
0.348676, -323, -2098, -19, 153, -225, 1493
0.348810, -323, -2098, -19, 153, -225, 1493
0.348945, -323, -2098, -19, 153, -225, 1493
0.349079, -323, -2098, -19, 153, -225, 1493
0.349213, -323, -2098, -19, 153, -225, 1493
0.349347, -323, -2098, -19, 153, -225, 1493
0.349482, -323, -2098, -19, 153, -225, 1493
0.349615, 83, -2108, 119, 133, -222, 1548
0.349749, 83, -2108, 119, 133, -222, 1548
0.349883, 83, -2108, 119, 133, -222, 1548
0.350016, 83, -2108, 119, 133, -222, 1548
0.350150, 83, -2108, 119, 133, -222, 1548
0.350283, 83, -2108, 119, 133, -222, 1548
0.350416, 83, -2108, 119, 133, -222, 1548
0.350550, 242, -2033, 354, 306, -193, 1367
0.350683, 242, -2033, 354, 306, -193, 1367
0.350817, 242, -2033, 354, 306, -193, 1367
0.350950, 242, -2033, 354, 306, -193, 1367
0.351084, 242, -2033, 354, 306, -193, 1367
0.351217, 242, -2033, 354, 306, -193, 1367
0.351351, 242, -2033, 354, 306, -193, 1367
0.351484, 242, -2033, 354, 306, -193, 1367
0.351618, -82, -2014, 202, 497, -77, 1226
0.351751, -82, -2014, 202, 497, -77, 1226
0.351885, -82, -2014, 202, 497, -77, 1226
0.352018, -82, -2014, 202, 497, -77, 1226
0.352152, -82, -2014, 202, 497, -77, 1226
0.352285, -82, -2014, 202, 497, -77, 1226
0.352419, -82, -2014, 202, 497, -77, 1226
0.352552, -243, -2054, -77, 466, 24, 1319
0.352686, -243, -2054, -77, 466, 24, 1319
0.352819, -243, -2054, -77, 466, 24, 1319
0.352953, -243, -2054, -77, 466, 24, 1319
0.353086, -243, -2054, -77, 466, 24, 1319
0.353220, -243, -2054, -77, 466, 24, 1319
0.353356, -243, -2054, -77, 466, 24, 1319
0.353490, -243, -2054, -77, 466, 24, 1319
0.353624, -75, -2057, -88, 405, -35, 1407
0.353759, -75, -2057, -88, 405, -35, 1407
0.353893, -75, -2057, -88, 405, -35, 1407
0.354027, -75, -2057, -88, 405, -35, 1407
0.354161, -75, -2057, -88, 405, -35, 1407
0.354295, -75, -2057, -88, 405, -35, 1407
0.354430, -75, -2057, -88, 405, -35, 1407
0.354564, -311, -2038, -161, 364, -113, 1415
0.354698, -311, -2038, -161, 364, -113, 1415
0.354833, -311, -2038, -161, 364, -113, 1415
0.354967, -311, -2038, -161, 364, -113, 1415
0.355101, -311, -2038, -161, 364, -113, 1415
0.355235, -311, -2038, -161, 364, -113, 1415
0.355369, -311, -2038, -161, 364, -113, 1415
0.355503, -311, -2038, -161, 364, -113, 1415
0.355637, -381, -2027, -233, 215, -127, 1581
0.355772, -381, -2027, -233, 215, -127, 1581
0.355906, -381, -2027, -233, 215, -127, 1581
0.356040, -381, -2027, -233, 215, -127, 1581
0.356174, -381, -2027, -233, 215, -127, 1581
0.356309, -381, -2027, -233, 215, -127, 1581
0.356443, -381, -2027, -233, 215, -127, 1581
0.356577, -381, -2027, -233, 215, -127, 1581
0.356711, 19, -2044, -234, 41, -175, 1653
0.356846, 19, -2044, -234, 41, -175, 1653
0.356980, 19, -2044, -234, 41, -175, 1653
0.357114, 19, -2044, -234, 41, -175, 1653
0.357248, 19, -2044, -234, 41, -175, 1653
0.357383, 19, -2044, -234, 41, -175, 1653
0.357517, 19, -2044, -234, 41, -175, 1653
0.357651, -225, -2075, -228, -118, -206, 1542
0.357785, -225, -2075, -228, -118, -206, 1542
0.357919, -225, -2075, -228, -118, -206, 1542
0.358053, -225, -2075, -228, -118, -206, 1542
0.358188, -225, -2075, -228, -118, -206, 1542
0.358322, -225, -2075, -228, -118, -206, 1542
0.358456, -225, -2075, -228, -118, -206, 1542
0.358590, -225, -2075, -228, -118, -206, 1542
0.358724, -719, -2078, -117, -247, -191, 1714
0.358858, -719, -2078, -117, -247, -191, 1714
0.358993, -719, -2078, -117, -247, -191, 1714
0.359127, -719, -2078, -117, -247, -191, 1714
0.359261, -719, -2078, -117, -247, -191, 1714
0.359395, -719, -2078, -117, -247, -191, 1714
0.359529, -719, -2078, -117, -247, -191, 1714
0.359663, -469, -2053, -3, -295, -245, 2083
0.359797, -469, -2053, -3, -295, -245, 2083
0.359932, -469, -2053, -3, -295, -245, 2083
0.360066, -469, -2053, -3, -295, -245, 2083
0.360205, -469, -2053, -3, -295, -245, 2083
0.360339, -469, -2053, -3, -295, -245, 2083
0.360474, -469, -2053, -3, -295, -245, 2083
0.360608, -469, -2053, -3, -295, -245, 2083
0.360742, 256, -2049, 232, -247, -349, 2133
0.360876, 256, -2049, 232, -247, -349, 2133
0.361010, 256, -2049, 232, -247, -349, 2133
0.361144, 256, -2049, 232, -247, -349, 2133
0.361279, 256, -2049, 232, -247, -349, 2133
0.361413, 256, -2049, 232, -247, -349, 2133
0.361547, 256, -2049, 232, -247, -349, 2133
0.361681, 890, -2058, 554, -41, -354, 1693
0.361816, 890, -2058, 554, -41, -354, 1693
0.361950, 890, -2058, 554, -41, -354, 1693
0.362084, 890, -2058, 554, -41, -354, 1693
0.362218, 890, -2058, 554, -41, -354, 1693
0.362352, 890, -2058, 554, -41, -354, 1693
0.362486, 890, -2058, 554, -41, -354, 1693
0.362620, 890, -2058, 554, -41, -354, 1693
0.362754, 1103, -2023, 793, 311, -195, 983
0.362889, 1103, -2023, 793, 311, -195, 983
0.363023, 1103, -2023, 793, 311, -195, 983
0.363157, 1103, -2023, 793, 311, -195, 983
0.363291, 1103, -2023, 793, 311, -195, 983
0.363425, 1103, -2023, 793, 311, -195, 983
0.363559, 1103, -2023, 793, 311, -195, 983
0.363694, 1055, -2003, 872, 791, 78, 293
0.363828, 1055, -2003, 872, 791, 78, 293
0.363962, 1055, -2003, 872, 791, 78, 293
0.364096, 1055, -2003, 872, 791, 78, 293
0.364230, 1055, -2003, 872, 791, 78, 293
0.364365, 1055, -2003, 872, 791, 78, 293
0.364499, 1055, -2003, 872, 791, 78, 293
0.364633, 1055, -2003, 872, 791, 78, 293
0.364767, 553, -2104, -135, 1032, 396, -214
0.364901, 553, -2104, -135, 1032, 396, -214
0.365036, 553, -2104, -135, 1032, 396, -214
0.365170, 553, -2104, -135, 1032, 396, -214
0.365305, 553, -2104, -135, 1032, 396, -214
0.365439, 553, -2104, -135, 1032, 396, -214
0.365573, 553, -2104, -135, 1032, 396, -214
0.365707, 553, -2104, -135, 1032, 396, -214
0.365841, -302, -2179, -1314, 602, 592, -245
0.365976, -302, -2179, -1314, 602, 592, -245
0.366111, -302, -2179, -1314, 602, 592, -245
0.366246, -302, -2179, -1314, 602, 592, -245
0.366380, -302, -2179, -1314, 602, 592, -245
0.366515, -302, -2179, -1314, 602, 592, -245
0.366649, -302, -2179, -1314, 602, 592, -245
0.366783, -393, -2063, -860, 91, 513, 137
0.366918, -393, -2063, -860, 91, 513, 137
0.367052, -393, -2063, -860, 91, 513, 137
0.367186, -393, -2063, -860, 91, 513, 137
0.367320, -393, -2063, -860, 91, 513, 137
0.367454, -393, -2063, -860, 91, 513, 137
0.367588, -393, -2063, -860, 91, 513, 137
0.367722, -393, -2063, -860, 91, 513, 137
0.367856, -228, -1971, -148, -81, 373, 363
0.367991, -228, -1971, -148, -81, 373, 363
0.368125, -228, -1971, -148, -81, 373, 363
0.368259, -228, -1971, -148, -81, 373, 363
0.368393, -228, -1971, -148, -81, 373, 363
0.368527, -228, -1971, -148, -81, 373, 363
0.368661, -228, -1971, -148, -81, 373, 363
0.368796, -710, -2024, -141, -336, 305, 519
0.368930, -710, -2024, -141, -336, 305, 519
0.369064, -710, -2024, -141, -336, 305, 519
0.369198, -710, -2024, -141, -336, 305, 519
0.369333, -710, -2024, -141, -336, 305, 519
0.369467, -710, -2024, -141, -336, 305, 519
0.369601, -710, -2024, -141, -336, 305, 519
0.369735, -710, -2024, -141, -336, 305, 519
0.369869, -760, -2065, -189, -632, 75, 935
0.370003, -760, -2065, -189, -632, 75, 935
0.370138, -760, -2065, -189, -632, 75, 935
0.370272, -760, -2065, -189, -632, 75, 935
0.370406, -760, -2065, -189, -632, 75, 935
0.370540, -760, -2065, -189, -632, 75, 935
0.370674, -760, -2065, -189, -632, 75, 935
0.370808, -90, -2059, -113, -708, -219, 1209
0.370942, -90, -2059, -113, -708, -219, 1209
0.371077, -90, -2059, -113, -708, -219, 1209
0.371211, -90, -2059, -113, -708, -219, 1209
0.371345, -90, -2059, -113, -708, -219, 1209
0.371479, -90, -2059, -113, -708, -219, 1209
0.371613, -90, -2059, -113, -708, -219, 1209
0.371747, -90, -2059, -113, -708, -219, 1209
0.371881, 239, -2049, 128, -645, -347, 1092
0.372016, 239, -2049, 128, -645, -347, 1092
0.372150, 239, -2049, 128, -645, -347, 1092
0.372284, 239, -2049, 128, -645, -347, 1092
0.372418, 239, -2049, 128, -645, -347, 1092
0.372552, 239, -2049, 128, -645, -347, 1092
0.372687, 239, -2049, 128, -645, -347, 1092
0.372834, 317, -2031, 391, -502, -408, 894
0.372969, 317, -2031, 391, -502, -408, 894
0.373103, 317, -2031, 391, -502, -408, 894
0.373238, 317, -2031, 391, -502, -408, 894
0.373372, 317, -2031, 391, -502, -408, 894
0.373506, 317, -2031, 391, -502, -408, 894
0.373640, 317, -2031, 391, -502, -408, 894
0.373774, 317, -2031, 391, -502, -408, 894
0.373908, 646, -2027, 625, -231, -429, 652
0.374042, 646, -2027, 625, -231, -429, 652
0.374177, 646, -2027, 625, -231, -429, 652
0.374311, 646, -2027, 625, -231, -429, 652
0.374445, 646, -2027, 625, -231, -429, 652
0.374579, 646, -2027, 625, -231, -429, 652
0.374713, 646, -2027, 625, -231, -429, 652
0.374847, 831, -2025, 871, 234, -275, 237
0.374982, 831, -2025, 871, 234, -275, 237
0.375116, 831, -2025, 871, 234, -275, 237
0.375250, 831, -2025, 871, 234, -275, 237
0.375384, 831, -2025, 871, 234, -275, 237
0.375518, 831, -2025, 871, 234, -275, 237
0.375652, 831, -2025, 871, 234, -275, 237
0.375786, 831, -2025, 871, 234, -275, 237
0.375920, 535, -2047, 641, 752, 54, -186
0.376054, 535, -2047, 641, 752, 54, -186
0.376188, 535, -2047, 641, 752, 54, -186
0.376322, 535, -2047, 641, 752, 54, -186
0.376456, 535, -2047, 641, 752, 54, -186
