Time, ax, ay, az, gx, gy, gz
0.000021, 434, -2058, 533, -510, 3395, -5812
0.000194, 150, -2062, 821, -62, 3756, -5815
0.000335, 150, -2062, 821, -62, 3756, -5815
0.000473, 150, -2062, 821, -62, 3756, -5815
0.000613, 150, -2062, 821, -62, 3756, -5815
0.000758, 150, -2062, 821, -62, 3756, -5815
0.000897, 150, -2062, 821, -62, 3756, -5815
0.001036, 150, -2062, 821, -62, 3756, -5815
0.001176, 150, -2062, 821, -62, 3756, -5815
0.001314, -392, -2074, 441, 491, 3823, -5682
0.001456, -392, -2074, 441, 491, 3823, -5682
0.001594, -392, -2074, 441, 491, 3823, -5682
0.001733, -392, -2074, 441, 491, 3823, -5682
0.001871, -392, -2074, 441, 491, 3823, -5682
0.002010, -392, -2074, 441, 491, 3823, -5682
0.002147, -392, -2074, 441, 491, 3823, -5682
0.002285, -324, -2008, -867, 585, 3628, -5377
0.002427, -324, -2008, -867, 585, 3628, -5377
0.002565, -324, -2008, -867, 585, 3628, -5377
0.002703, -324, -2008, -867, 585, 3628, -5377
0.002840, -324, -2008, -867, 585, 3628, -5377
0.002978, -324, -2008, -867, 585, 3628, -5377
0.003116, -324, -2008, -867, 585, 3628, -5377
0.003253, -36, -1910, -1797, -22, 3335, -5233
0.003395, -36, -1910, -1797, -22, 3335, -5233
0.003534, -36, -1910, -1797, -22, 3335, -5233
0.003671, -36, -1910, -1797, -22, 3335, -5233
0.003810, -36, -1910, -1797, -22, 3335, -5233
0.003947, -36, -1910, -1797, -22, 3335, -5233
0.004084, -36, -1910, -1797, -22, 3335, -5233
0.004222, -36, -1910, -1797, -22, 3335, -5233
0.004359, -355, -1987, -1295, -780, 2969, -5139
0.004500, -355, -1987, -1295, -780, 2969, -5139
0.004640, -355, -1987, -1295, -780, 2969, -5139
0.004779, -355, -1987, -1295, -780, 2969, -5139
0.004916, -355, -1987, -1295, -780, 2969, -5139
0.005054, -355, -1987, -1295, -780, 2969, -5139
0.005192, -355, -1987, -1295, -780, 2969, -5139
0.005331, -196, -2106, -23, -1009, 2611, -4853
0.005472, -196, -2106, -23, -1009, 2611, -4853
0.005611, -196, -2106, -23, -1009, 2611, -4853
0.005748, -196, -2106, -23, -1009, 2611, -4853
0.005886, -196, -2106, -23, -1009, 2611, -4853
0.006023, -196, -2106, -23, -1009, 2611, -4853
0.006161, -196, -2106, -23, -1009, 2611, -4853
0.006299, 514, -2024, 380, -811, 2430, -4847
0.006441, 514, -2024, 380, -811, 2430, -4847
0.006580, 514, -2024, 380, -811, 2430, -4847
0.006719, 514, -2024, 380, -811, 2430, -4847
0.006856, 514, -2024, 380, -811, 2430, -4847
0.006994, 514, -2024, 380, -811, 2430, -4847
0.007131, 514, -2024, 380, -811, 2430, -4847
0.007269, 514, -2024, 380, -811, 2430, -4847
0.007406, 602, -1825, -462, -867, 2509, -5252
0.007548, 602, -1825, -462, -867, 2509, -5252
0.007686, 602, -1825, -462, -867, 2509, -5252
0.007825, 602, -1825, -462, -867, 2509, -5252
0.007964, 602, -1825, -462, -867, 2509, -5252
0.008102, 602, -1825, -462, -867, 2509, -5252
0.008239, 602, -1825, -462, -867, 2509, -5252
0.008377, 446, -1840, -1124, -1420, 2675, -5603
0.008519, 446, -1840, -1124, -1420, 2675, -5603
0.008658, 446, -1840, -1124, -1420, 2675, -5603
0.008796, 446, -1840, -1124, -1420, 2675, -5603
0.008934, 446, -1840, -1124, -1420, 2675, -5603
0.009071, 446, -1840, -1124, -1420, 2675, -5603
0.009209, 446, -1840, -1124, -1420, 2675, -5603
0.009346, 333, -2120, -138, -1704, 2637, -5820
0.009487, 333, -2120, -138, -1704, 2637, -5820
0.009624, 333, -2120, -138, -1704, 2637, -5820
0.009762, 333, -2120, -138, -1704, 2637, -5820
0.009899, 333, -2120, -138, -1704, 2637, -5820
0.010037, 333, -2120, -138, -1704, 2637, -5820
0.010174, 333, -2120, -138, -1704, 2637, -5820
0.010311, 333, -2120, -138, -1704, 2637, -5820
0.010449, -136, -2125, 441, -1233, 2299, -5901
0.010590, -136, -2125, 441, -1233, 2299, -5901
0.010728, -136, -2125, 441, -1233, 2299, -5901
0.010865, -136, -2125, 441, -1233, 2299, -5901
0.011003, -136, -2125, 441, -1233, 2299, -5901
0.011140, -136, -2125, 441, -1233, 2299, -5901
0.011277, -136, -2125, 441, -1233, 2299, -5901
0.011415, -1260, -2174, -81, -979, 2004, -5553
0.011555, -1260, -2174, -81, -979, 2004, -5553
0.011694, -1260, -2174, -81, -979, 2004, -5553
0.011831, -1260, -2174, -81, -979, 2004, -5553
0.011969, -1260, -2174, -81, -979, 2004, -5553
0.012106, -1260, -2174, -81, -979, 2004, -5553
0.012279, -1260, -2174, -81, -979, 2004, -5553
0.012423, -2124, -2364, 680, -828, 1966, -4467
0.012562, -2124, -2364, 680, -828, 1966, -4467
0.012701, -2124, -2364, 680, -828, 1966, -4467
0.012839, -2124, -2364, 680, -828, 1966, -4467
0.012976, -2124, -2364, 680, -828, 1966, -4467
0.013114, -2124, -2364, 680, -828, 1966, -4467
0.013251, -2124, -2364, 680, -828, 1966, -4467
0.013388, -747, -2055, 1133, -42, 1773, -3310
0.013530, -747, -2055, 1133, -42, 1773, -3310
0.013667, -747, -2055, 1133, -42, 1773, -3310
0.013805, -747, -2055, 1133, -42, 1773, -3310
0.013942, -747, -2055, 1133, -42, 1773, -3310
0.014079, -747, -2055, 1133, -42, 1773, -3310
0.014217, -747, -2055, 1133, -42, 1773, -3310
0.014354, -747, -2055, 1133, -42, 1773, -3310
0.014492, 1003, -1970, 621, 623, 1510, -3380
0.014633, 1003, -1970, 621, 623, 1510, -3380
0.014771, 1003, -1970, 621, 623, 1510, -3380
0.014908, 1003, -1970, 621, 623, 1510, -3380
0.015045, 1003, -1970, 621, 623, 1510, -3380
0.015183, 1003, -1970, 621, 623, 1510, -3380
0.015320, 1003, -1970, 621, 623, 1510, -3380
0.015458, 118, -2150, -195, 839, 1501, -4111
0.015599, 118, -2150, -195, 839, 1501, -4111
0.015738, 118, -2150, -195, 839, 1501, -4111
0.015875, 118, -2150, -195, 839, 1501, -4111
0.016014, 118, -2150, -195, 839, 1501, -4111
0.016151, 118, -2150, -195, 839, 1501, -4111
0.016288, 118, -2150, -195, 839, 1501, -4111
0.016426, -1652, -2034, -1746, 399, 1492, -3871
0.016564, -1652, -2034, -1746, 399, 1492, -3871
0.016703, -1652, -2034, -1746, 399, 1492, -3871
0.016840, -1652, -2034, -1746, 399, 1492, -3871
0.016977, -1652, -2034, -1746, 399, 1492, -3871
0.017116, -1652, -2034, -1746, 399, 1492, -3871
0.017253, -1652, -2034, -1746, 399, 1492, -3871
0.017391, -1652, -2034, -1746, 399, 1492, -3871
0.017528, -1941, -2103, -1546, -603, 1305, -2670
0.017670, -1941, -2103, -1546, -603, 1305, -2670
0.017808, -1941, -2103, -1546, -603, 1305, -2670
0.017945, -1941, -2103, -1546, -603, 1305, -2670
0.018083, -1941, -2103, -1546, -603, 1305, -2670
0.018220, -1941, -2103, -1546, -603, 1305, -2670
0.018357, -1941, -2103, -1546, -603, 1305, -2670
0.018495, -1190, -2300, 919, -706, 883, -1574
0.018635, -1190, -2300, 919, -706, 883, -1574
0.018774, -1190, -2300, 919, -706, 883, -1574
0.018911, -1190, -2300, 919, -706, 883, -1574
0.019049, -1190, -2300, 919, -706, 883, -1574
0.019186, -1190, -2300, 919, -706, 883, -1574
0.019323, -1190, -2300, 919, -706, 883, -1574
0.019461, -718, -2167, 1882, 271, 367, -1062
0.019598, -718, -2167, 1882, 271, 367, -1062
0.019737, -718, -2167, 1882, 271, 367, -1062
0.019874, -718, -2167, 1882, 271, 367, -1062
0.020011, -718, -2167, 1882, 271, 367, -1062
0.020149, -718, -2167, 1882, 271, 367, -1062
0.020286, -718, -2167, 1882, 271, 367, -1062
0.020423, -718, -2167, 1882, 271, 367, -1062
0.020561, -628, -1897, 469, 790, 168, -847
0.020703, -628, -1897, 469, 790, 168, -847
0.020841, -628, -1897, 469, 790, 168, -847
0.020978, -628, -1897, 469, 790, 168, -847
0.021116, -628, -1897, 469, 790, 168, -847
0.021253, -628, -1897, 469, 790, 168, -847
0.021390, -628, -1897, 469, 790, 168, -847
0.021528, -193, -1890, -667, 487, 339, -732
0.021668, -193, -1890, -667, 487, 339, -732
0.021807, -193, -1890, -667, 487, 339, -732
0.021944, -193, -1890, -667, 487, 339, -732
0.022081, -193, -1890, -667, 487, 339, -732
0.022219, -193, -1890, -667, 487, 339, -732
0.022356, -193, -1890, -667, 487, 339, -732
0.022493, 79, -2057, -395, 267, 455, -813
0.022631, 79, -2057, -395, 267, 455, -813
0.022768, 79, -2057, -395, 267, 455, -813
0.022905, 79, -2057, -395, 267, 455, -813
0.023043, 79, -2057, -395, 267, 455, -813
0.023180, 79, -2057, -395, 267, 455, -813
0.023317, 79, -2057, -395, 267, 455, -813
0.023455, 79, -2057, -395, 267, 455, -813
0.023592, -52, -2065, 95, 479, 206, -880
0.023733, -52, -2065, 95, 479, 206, -880
0.023870, -52, -2065, 95, 479, 206, -880
0.024007, -52, -2065, 95, 479, 206, -880
0.024145, -52, -2065, 95, 479, 206, -880
0.024282, -52, -2065, 95, 479, 206, -880
0.024419, -52, -2065, 95, 479, 206, -880
0.024556, 125, -2007, -272, 567, -87, -860
0.024698, 125, -2007, -272, 567, -87, -860
0.024844, 125, -2007, -272, 567, -87, -860
0.024981, 125, -2007, -272, 567, -87, -860
0.025120, 125, -2007, -272, 567, -87, -860
0.025257, 125, -2007, -272, 567, -87, -860
0.025394, 125, -2007, -272, 567, -87, -860
0.025532, 155, -2093, -264, 305, 26, -929
0.025669, 155, -2093, -264, 305, 26, -929
0.025811, 155, -2093, -264, 305, 26, -929
0.025949, 155, -2093, -264, 305, 26, -929
0.026088, 155, -2093, -264, 305, 26, -929
0.026225, 155, -2093, -264, 305, 26, -929
0.026362, 155, -2093, -264, 305, 26, -929
0.026499, 155, -2093, -264, 305, 26, -929
0.026637, -279, -2153, 571, 402, 351, -884
0.026779, -279, -2153, 571, 402, 351, -884
0.026917, -279, -2153, 571, 402, 351, -884
0.027054, -279, -2153, 571, 402, 351, -884
0.027192, -279, -2153, 571, 402, 351, -884
0.027329, -279, -2153, 571, 402, 351, -884
0.027466, -279, -2153, 571, 402, 351, -884
0.027604, -504, -2121, 604, 847, 520, -583
0.027745, -504, -2121, 604, 847, 520, -583
0.027883, -504, -2121, 604, 847, 520, -583
0.028020, -504, -2121, 604, 847, 520, -583
0.028157, -504, -2121, 604, 847, 520, -583
0.028294, -504, -2121, 604, 847, 520, -583
0.028432, -504, -2121, 604, 847, 520, -583
0.028569, -189, -2035, 72, 993, 604, -303
0.028714, -189, -2035, 72, 993, 604, -303
0.028853, -189, -2035, 72, 993, 604, -303
0.028990, -189, -2035, 72, 993, 604, -303
0.029128, -189, -2035, 72, 993, 604, -303
0.029265, -189, -2035, 72, 993, 604, -303
0.029402, -189, -2035, 72, 993, 604, -303
0.029539, -189, -2035, 72, 993, 604, -303
0.029677, 471, -2012, 281, 1090, 637, -356
0.029818, 471, -2012, 281, 1090, 637, -356
0.029957, 471, -2012, 281, 1090, 637, -356
0.030094, 471, -2012, 281, 1090, 637, -356
0.030232, 471, -2012, 281, 1090, 637, -356
0.030369, 471, -2012, 281, 1090, 637, -356
0.030506, 471, -2012, 281, 1090, 637, -356
0.030643, 956, -2101, 674, 1514, 520, -820
0.030785, 956, -2101, 674, 1514, 520, -820
0.030923, 956, -2101, 674, 1514, 520, -820
0.031061, 956, -2101, 674, 1514, 520, -820
0.031198, 956, -2101, 674, 1514, 520, -820
0.031335, 956, -2101, 674, 1514, 520, -820
0.031473, 956, -2101, 674, 1514, 520, -820
0.031610, 956, -2101, 674, 1514, 520, -820
0.031747, 792, -2079, 323, 1954, 416, -1447
0.031888, 792, -2079, 323, 1954, 416, -1447
0.032026, 792, -2079, 323, 1954, 416, -1447
0.032164, 792, -2079, 323, 1954, 416, -1447
0.032301, 792, -2079, 323, 1954, 416, -1447
0.032438, 792, -2079, 323, 1954, 416, -1447
0.032579, 792, -2079, 323, 1954, 416, -1447
0.032717, -46, -2001, -407, 2017, 557, -1736
0.032859, -46, -2001, -407, 2017, 557, -1736
0.032997, -46, -2001, -407, 2017, 557, -1736
0.033135, -46, -2001, -407, 2017, 557, -1736
0.033273, -46, -2001, -407, 2017, 557, -1736
0.033410, -46, -2001, -407, 2017, 557, -1736
0.033547, -46, -2001, -407, 2017, 557, -1736
0.033685, -799, -2036, -626, 1744, 862, -1384
0.033826, -799, -2036, -626, 1744, 862, -1384
0.033965, -799, -2036, -626, 1744, 862, -1384
0.034102, -799, -2036, -626, 1744, 862, -1384
0.034239, -799, -2036, -626, 1744, 862, -1384
0.034377, -799, -2036, -626, 1744, 862, -1384
0.034514, -799, -2036, -626, 1744, 862, -1384
0.034651, -799, -2036, -626, 1744, 862, -1384
0.034789, -870, -2094, -257, 1551, 988, -693
0.034930, -870, -2094, -257, 1551, 988, -693
0.035069, -870, -2094, -257, 1551, 988, -693
0.035206, -870, -2094, -257, 1551, 988, -693
0.035343, -870, -2094, -257, 1551, 988, -693
0.035480, -870, -2094, -257, 1551, 988, -693
0.035618, -870, -2094, -257, 1551, 988, -693
0.035755, -431, -2081, -377, 1455, 785, -176
0.035896, -431, -2081, -377, 1455, 785, -176
0.036033, -431, -2081, -377, 1455, 785, -176
0.036170, -431, -2081, -377, 1455, 785, -176
0.036308, -431, -2081, -377, 1455, 785, -176
0.036445, -431, -2081, -377, 1455, 785, -176
0.036583, -431, -2081, -377, 1455, 785, -176
0.036718, 75, -1996, -958, 1052, 521, -59
0.036854, 75, -1996, -958, 1052, 521, -59
0.036990, 75, -1996, -958, 1052, 521, -59
0.037126, 75, -1996, -958, 1052, 521, -59
0.037262, 75, -1996, -958, 1052, 521, -59
0.037397, 75, -1996, -958, 1052, 521, -59
0.037533, 75, -1996, -958, 1052, 521, -59
0.037668, 75, -1996, -958, 1052, 521, -59
0.037809, 231, -1908, -1149, 410, 419, -183
0.037949, 231, -1908, -1149, 410, 419, -183
0.038085, 231, -1908, -1149, 410, 419, -183
0.038221, 231, -1908, -1149, 410, 419, -183
0.038357, 231, -1908, -1149, 410, 419, -183
0.038492, 231, -1908, -1149, 410, 419, -183
0.038628, 231, -1908, -1149, 410, 419, -183
0.038763, 181, -1989, -275, -73, 437, -276
0.038899, 181, -1989, -275, -73, 437, -276
0.039035, 181, -1989, -275, -73, 437, -276
0.039171, 181, -1989, -275, -73, 437, -276
0.039306, 181, -1989, -275, -73, 437, -276
0.039442, 181, -1989, -275, -73, 437, -276
0.039577, 181, -1989, -275, -73, 437, -276
0.039713, 181, -1989, -275, -73, 437, -276
0.039849, -56, -2159, 1317, 263, 462, -269
0.039984, -56, -2159, 1317, 263, 462, -269
0.040120, -56, -2159, 1317, 263, 462, -269
0.040256, -56, -2159, 1317, 263, 462, -269
0.040391, -56, -2159, 1317, 263, 462, -269
0.040527, -56, -2159, 1317, 263, 462, -269
0.040663, -56, -2159, 1317, 263, 462, -269
0.040801, -596, -2189, 960, 1121, 383, -88
0.040943, -596, -2189, 960, 1121, 383, -88
0.041081, -596, -2189, 960, 1121, 383, -88
0.041218, -596, -2189, 960, 1121, 383, -88
0.041355, -596, -2189, 960, 1121, 383, -88
0.041493, -596, -2189, 960, 1121, 383, -88
0.041630, -596, -2189, 960, 1121, 383, -88
0.041767, -753, -2029, -921, 1142, 432, 338
0.041911, -753, -2029, -921, 1142, 432, 338
0.042049, -753, -2029, -921, 1142, 432, 338
0.042187, -753, -2029, -921, 1142, 432, 338
0.042325, -753, -2029, -921, 1142, 432, 338
0.042463, -753, -2029, -921, 1142, 432, 338
0.042600, -753, -2029, -921, 1142, 432, 338
0.042737, -753, -2029, -921, 1142, 432, 338
0.042874, -6, -1875, -1189, 487, 622, 693
0.043016, -6, -1875, -1189, 487, 622, 693
0.043154, -6, -1875, -1189, 487, 622, 693
0.043291, -6, -1875, -1189, 487, 622, 693
0.043428, -6, -1875, -1189, 487, 622, 693
0.043565, -6, -1875, -1189, 487, 622, 693
0.043703, -6, -1875, -1189, 487, 622, 693
0.043840, 656, -2009, -75, 266, 503, 551
0.043980, 656, -2009, -75, 266, 503, 551
0.044117, 656, -2009, -75, 266, 503, 551
0.044254, 656, -2009, -75, 266, 503, 551
0.044392, 656, -2009, -75, 266, 503, 551
0.044529, 656, -2009, -75, 266, 503, 551
0.044671, 656, -2009, -75, 266, 503, 551
0.044811, 157, -2144, 425, 532, 171, 186
0.044953, 157, -2144, 425, 532, 171, 186
0.045092, 157, -2144, 425, 532, 171, 186
0.045230, 157, -2144, 425, 532, 171, 186
0.045368, 157, -2144, 425, 532, 171, 186
0.045507, 157, -2144, 425, 532, 171, 186
0.045645, 157, -2144, 425, 532, 171, 186
0.045783, 157, -2144, 425, 532, 171, 186
0.045923, -652, -2126, 429, 750, 100, 270
0.046063, -652, -2126, 429, 750, 100, 270
0.046200, -652, -2126, 429, 750, 100, 270
0.046338, -652, -2126, 429, 750, 100, 270
0.046475, -652, -2126, 429, 750, 100, 270
0.046612, -652, -2126, 429, 750, 100, 270
0.046751, -652, -2126, 429, 750, 100, 270
0.046888, -692, -2145, 1073, 1148, 288, 765
0.047030, -692, -2145, 1073, 1148, 288, 765
0.047168, -692, -2145, 1073, 1148, 288, 765
0.047306, -692, -2145, 1073, 1148, 288, 765
0.047445, -692, -2145, 1073, 1148, 288, 765
0.047583, -692, -2145, 1073, 1148, 288, 765
0.047721, -692, -2145, 1073, 1148, 288, 765
0.047860, -197, -2048, 712, 1805, 328, 1087
0.048001, -197, -2048, 712, 1805, 328, 1087
0.048140, -197, -2048, 712, 1805, 328, 1087
0.048278, -197, -2048, 712, 1805, 328, 1087
0.048415, -197, -2048, 712, 1805, 328, 1087
0.048554, -197, -2048, 712, 1805, 328, 1087
0.048692, -197, -2048, 712, 1805, 328, 1087
0.048830, -197, -2048, 712, 1805, 328, 1087
0.048968, 426, -1986, -755, 1780, 267, 951
0.049110, 426, -1986, -755, 1780, 267, 951
0.049249, 426, -1986, -755, 1780, 267, 951
0.049387, 426, -1986, -755, 1780, 267, 951
0.049525, 426, -1986, -755, 1780, 267, 951
0.049663, 426, -1986, -755, 1780, 267, 951
0.049801, 426, -1986, -755, 1780, 267, 951
0.049939, 730, -2092, -434, 1431, 387, 485
0.050081, 730, -2092, -434, 1431, 387, 485
0.050219, 730, -2092, -434, 1431, 387, 485
0.050358, 730, -2092, -434, 1431, 387, 485
0.050495, 730, -2092, -434, 1431, 387, 485
0.050633, 730, -2092, -434, 1431, 387, 485
0.050770, 730, -2092, -434, 1431, 387, 485
0.050909, 242, -2066, 22, 1610, 386, 105
0.051064, 242, -2066, 22, 1610, 386, 105
0.051201, 242, -2066, 22, 1610, 386, 105
0.051340, 242, -2066, 22, 1610, 386, 105
0.051478, 242, -2066, 22, 1610, 386, 105
0.051616, 242, -2066, 22, 1610, 386, 105
0.051754, 242, -2066, 22, 1610, 386, 105
0.051891, -331, -1973, -1008, 1412, 283, 154
0.052029, -331, -1973, -1008, 1412, 283, 154
0.052167, -331, -1973, -1008, 1412, 283, 154
0.052304, -331, -1973, -1008, 1412, 283, 154
0.052442, -331, -1973, -1008, 1412, 283, 154
0.052579, -331, -1973, -1008, 1412, 283, 154
0.052718, -331, -1973, -1008, 1412, 283, 154
0.052856, -331, -1973, -1008, 1412, 283, 154
0.052994, -367, -2046, -972, 672, 416, 450
0.053136, -367, -2046, -972, 672, 416, 450
0.053274, -367, -2046, -972, 672, 416, 450
0.053412, -367, -2046, -972, 672, 416, 450
0.053549, -367, -2046, -972, 672, 416, 450
0.053686, -367, -2046, -972, 672, 416, 450
0.053822, -367, -2046, -972, 672, 416, 450
0.053956, -508, -2118, 79, 428, 516, 757
0.054091, -508, -2118, 79, 428, 516, 757
0.054225, -508, -2118, 79, 428, 516, 757
0.054359, -508, -2118, 79, 428, 516, 757
0.054493, -508, -2118, 79, 428, 516, 757
0.054627, -508, -2118, 79, 428, 516, 757
0.054761, -508, -2118, 79, 428, 516, 757
0.054895, -508, -2118, 79, 428, 516, 757
0.055029, -451, -2069, 427, 620, 384, 1092
0.055163, -451, -2069, 427, 620, 384, 1092
0.055298, -451, -2069, 427, 620, 384, 1092
0.055432, -451, -2069, 427, 620, 384, 1092
0.055566, -451, -2069, 427, 620, 384, 1092
0.055700, -451, -2069, 427, 620, 384, 1092
0.055834, -451, -2069, 427, 620, 384, 1092
0.055968, 46, -2054, 126, 695, 230, 1190
0.056102, 46, -2054, 126, 695, 230, 1190
0.056236, 46, -2054, 126, 695, 230, 1190
0.056370, 46, -2054, 126, 695, 230, 1190
0.056504, 46, -2054, 126, 695, 230, 1190
0.056639, 46, -2054, 126, 695, 230, 1190
0.056773, 46, -2054, 126, 695, 230, 1190
0.056907, 46, -2054, 126, 695, 230, 1190
0.057041, -147, -2094, -17, 687, 242, 1050
0.057176, -147, -2094, -17, 687, 242, 1050
0.057310, -147, -2094, -17, 687, 242, 1050
0.057444, -147, -2094, -17, 687, 242, 1050
0.057578, -147, -2094, -17, 687, 242, 1050
0.057712, -147, -2094, -17, 687, 242, 1050
0.057847, -147, -2094, -17, 687, 242, 1050
0.057981, -725, -2089, 155, 812, 308, 1216
0.058115, -725, -2089, 155, 812, 308, 1216
0.058249, -725, -2089, 155, 812, 308, 1216
0.058383, -725, -2089, 155, 812, 308, 1216
0.058517, -725, -2089, 155, 812, 308, 1216
0.058652, -725, -2089, 155, 812, 308, 1216
0.058786, -725, -2089, 155, 812, 308, 1216
0.058920, -725, -2089, 155, 812, 308, 1216
0.059054, -604, -2066, 209, 997, 217, 1651
0.059188, -604, -2066, 209, 997, 217, 1651
0.059322, -604, -2066, 209, 997, 217, 1651
0.059457, -604, -2066, 209, 997, 217, 1651
0.059591, -604, -2066, 209, 997, 217, 1651
0.059725, -604, -2066, 209, 997, 217, 1651
0.059859, -604, -2066, 209, 997, 217, 1651
0.059993, -604, -2066, 209, 997, 217, 1651
0.060127, -346, -2048, 143, 1123, 87, 1900
0.060261, -346, -2048, 143, 1123, 87, 1900
0.060396, -346, -2048, 143, 1123, 87, 1900
0.060530, -346, -2048, 143, 1123, 87, 1900
0.060671, -346, -2048, 143, 1123, 87, 1900
0.060814, -346, -2048, 143, 1123, 87, 1900
0.060952, -346, -2048, 143, 1123, 87, 1900
0.061086, -420, -2025, -1, 1158, 87, 2030
0.061220, -420, -2025, -1, 1158, 87, 2030
0.061353, -420, -2025, -1, 1158, 87, 2030
0.061487, -420, -2025, -1, 1158, 87, 2030
0.061620, -420, -2025, -1, 1158, 87, 2030
0.061754, -420, -2025, -1, 1158, 87, 2030
0.061887, -420, -2025, -1, 1158, 87, 2030
0.062032, -354, -2030, 135, 1154, 186, 2205
0.062169, -354, -2030, 135, 1154, 186, 2205
0.062303, -354, -2030, 135, 1154, 186, 2205
0.062437, -354, -2030, 135, 1154, 186, 2205
0.062570, -354, -2030, 135, 1154, 186, 2205
0.062704, -354, -2030, 135, 1154, 186, 2205
0.062837, -354, -2030, 135, 1154, 186, 2205
0.062971, -354, -2030, 135, 1154, 186, 2205
0.063104, -378, -2087, 475, 1328, 233, 2338
0.063238, -378, -2087, 475, 1328, 233, 2338
0.063371, -378, -2087, 475, 1328, 233, 2338
0.063505, -378, -2087, 475, 1328, 233, 2338
0.063638, -378, -2087, 475, 1328, 233, 2338
0.063771, -378, -2087, 475, 1328, 233, 2338
0.063905, -378, -2087, 475, 1328, 233, 2338
0.064062, -644, -2128, 243, 1572, 191, 2505
0.064196, -644, -2128, 243, 1572, 191, 2505
0.064330, -644, -2128, 243, 1572, 191, 2505
0.064464, -644, -2128, 243, 1572, 191, 2505
0.064599, -644, -2128, 243, 1572, 191, 2505
0.064733, -644, -2128, 243, 1572, 191, 2505
0.064867, -644, -2128, 243, 1572, 191, 2505
0.065001, -644, -2128, 243, 1572, 191, 2505
0.065136, -608, -2071, -420, 1521, 214, 2769
0.065270, -608, -2071, -420, 1521, 214, 2769
0.065404, -608, -2071, -420, 1521, 214, 2769
0.065538, -608, -2071, -420, 1521, 214, 2769
0.065672, -608, -2071, -420, 1521, 214, 2769
0.065807, -608, -2071, -420, 1521, 214, 2769
0.065941, -608, -2071, -420, 1521, 214, 2769
0.066075, -608, -2071, -420, 1521, 214, 2769
0.066209, -17, -1978, -838, 1144, 312, 2914
0.066343, -17, -1978, -838, 1144, 312, 2914
0.066477, -17, -1978, -838, 1144, 312, 2914
0.066611, -17, -1978, -838, 1144, 312, 2914
0.066746, -17, -1978, -838, 1144, 312, 2914
0.066880, -17, -1978, -838, 1144, 312, 2914
0.067014, -17, -1978, -838, 1144, 312, 2914
0.067148, 953, -1941, -856, 641, 362, 2601
0.067282, 953, -1941, -856, 641, 362, 2601
0.067416, 953, -1941, -856, 641, 362, 2601
0.067551, 953, -1941, -856, 641, 362, 2601
0.067685, 953, -1941, -856, 641, 362, 2601
0.067819, 953, -1941, -856, 641, 362, 2601
0.067953, 953, -1941, -856, 641, 362, 2601
0.068087, 953, -1941, -856, 641, 362, 2601
0.068221, 1395, -2006, -496, 217, 427, 1764
0.068356, 1395, -2006, -496, 217, 427, 1764
0.068490, 1395, -2006, -496, 217, 427, 1764
0.068624, 1395, -2006, -496, 217, 427, 1764
0.068759, 1395, -2006, -496, 217, 427, 1764
0.068893, 1395, -2006, -496, 217, 427, 1764
0.069027, 1395, -2006, -496, 217, 427, 1764
0.069161, 1059, -2082, -8, 40, 657, 910
0.069295, 1059, -2082, -8, 40, 657, 910
0.069429, 1059, -2082, -8, 40, 657, 910
0.069564, 1059, -2082, -8, 40, 657, 910
0.069698, 1059, -2082, -8, 40, 657, 910
0.069832, 1059, -2082, -8, 40, 657, 910
0.069966, 1059, -2082, -8, 40, 657, 910
0.070100, 1059, -2082, -8, 40, 657, 910
0.070234, 789, -2036, 215, 47, 1049, 371
0.070368, 789, -2036, 215, 47, 1049, 371
0.070503, 789, -2036, 215, 47, 1049, 371
0.070637, 789, -2036, 215, 47, 1049, 371
0.070771, 789, -2036, 215, 47, 1049, 371
0.070905, 789, -2036, 215, 47, 1049, 371
0.071039, 789, -2036, 215, 47, 1049, 371
0.071173, 475, -2033, 440, 182, 1467, 11
0.071308, 475, -2033, 440, 182, 1467, 11
0.071442, 475, -2033, 440, 182, 1467, 11
0.071576, 475, -2033, 440, 182, 1467, 11
0.071710, 475, -2033, 440, 182, 1467, 11
0.071844, 475, -2033, 440, 182, 1467, 11
0.071978, 475, -2033, 440, 182, 1467, 11
0.072112, 475, -2033, 440, 182, 1467, 11
0.072247, -44, -2113, 714, 564, 1726, -128
0.072381, -44, -2113, 714, 564, 1726, -128
0.072515, -44, -2113, 714, 564, 1726, -128
0.072649, -44, -2113, 714, 564, 1726, -128
0.072784, -44, -2113, 714, 564, 1726, -128
0.072918, -44, -2113, 714, 564, 1726, -128
0.073052, -44, -2113, 714, 564, 1726, -128
0.073186, -477, -2065, 409, 998, 1762, 3
0.073320, -477, -2065, 409, 998, 1762, 3
0.073454, -477, -2065, 409, 998, 1762, 3
0.073588, -477, -2065, 409, 998, 1762, 3
0.073723, -477, -2065, 409, 998, 1762, 3
0.073857, -477, -2065, 409, 998, 1762, 3
0.073991, -477, -2065, 409, 998, 1762, 3
0.074125, -477, -2065, 409, 998, 1762, 3
0.074259, -1027, -2017, -410, 1053, 1700, 387
0.074393, -1027, -2017, -410, 1053, 1700, 387
0.074528, -1027, -2017, -410, 1053, 1700, 387
0.074662, -1027, -2017, -410, 1053, 1700, 387
0.074796, -1027, -2017, -410, 1053, 1700, 387
0.074930, -1027, -2017, -410, 1053, 1700, 387
0.075064, -1027, -2017, -410, 1053, 1700, 387
0.075198, -1027, -2017, -410, 1053, 1700, 387
0.075333, -1208, -2069, -752, 739, 1600, 1080
0.075468, -1208, -2069, -752, 739, 1600, 1080
0.075605, -1208, -2069, -752, 739, 1600, 1080
0.075740, -1208, -2069, -752, 739, 1600, 1080
0.075874, -1208, -2069, -752, 739, 1600, 1080
0.076008, -1208, -2069, -752, 739, 1600, 1080
0.076142, -1208, -2069, -752, 739, 1600, 1080
0.076276, -575, -2086, -363, 492, 1349, 1687
0.076411, -575, -2086, -363, 492, 1349, 1687
0.076545, -575, -2086, -363, 492, 1349, 1687
0.076680, -575, -2086, -363, 492, 1349, 1687
0.076825, -575, -2086, -363, 492, 1349, 1687
0.076959, -575, -2086, -363, 492, 1349, 1687
0.077094, -575, -2086, -363, 492, 1349, 1687
0.077228, -19, -2037, -293, 366, 1016, 1811
0.077362, -19, -2037, -293, 366, 1016, 1811
0.077497, -19, -2037, -293, 366, 1016, 1811
0.077631, -19, -2037, -293, 366, 1016, 1811
0.077765, -19, -2037, -293, 366, 1016, 1811
0.077899, -19, -2037, -293, 366, 1016, 1811
0.078033, -19, -2037, -293, 366, 1016, 1811
0.078167, -19, -2037, -293, 366, 1016, 1811
0.078301, 322, -1961, -630, 12, 932, 1660
0.078436, 322, -1961, -630, 12, 932, 1660
0.078570, 322, -1961, -630, 12, 932, 1660
0.078704, 322, -1961, -630, 12, 932, 1660
0.078838, 322, -1961, -630, 12, 932, 1660
0.078973, 322, -1961, -630, 12, 932, 1660
0.079107, 322, -1961, -630, 12, 932, 1660
0.079241, 322, -1961, -630, 12, 932, 1660
0.079375, 599, -1994, -253, -344, 1160, 1361
0.079509, 599, -1994, -253, -344, 1160, 1361
0.079643, 599, -1994, -253, -344, 1160, 1361
0.079777, 599, -1994, -253, -344, 1160, 1361
0.079911, 599, -1994, -253, -344, 1160, 1361
0.080046, 599, -1994, -253, -344, 1160, 1361
0.080180, 599, -1994, -253, -344, 1160, 1361
0.080314, 83, -2119, 376, -262, 1376, 1063
0.080448, 83, -2119, 376, -262, 1376, 1063
0.080583, 83, -2119, 376, -262, 1376, 1063
0.080718, 83, -2119, 376, -262, 1376, 1063
0.080852, 83, -2119, 376, -262, 1376, 1063
0.080986, 83, -2119, 376, -262, 1376, 1063
0.081120, 83, -2119, 376, -262, 1376, 1063
0.081254, 83, -2119, 376, -262, 1376, 1063
0.081388, -763, -2142, 347, -7, 1432, 1201
0.081523, -763, -2142, 347, -7, 1432, 1201
0.081657, -763, -2142, 347, -7, 1432, 1201
0.081791, -763, -2142, 347, -7, 1432, 1201
0.081925, -763, -2142, 347, -7, 1432, 1201
0.082059, -763, -2142, 347, -7, 1432, 1201
0.082193, -763, -2142, 347, -7, 1432, 1201
0.082327, -636, -2058, 129, 119, 1409, 1666
0.082462, -636, -2058, 129, 119, 1409, 1666
0.082596, -636, -2058, 129, 119, 1409, 1666
0.082730, -636, -2058, 129, 119, 1409, 1666
0.082864, -636, -2058, 129, 119, 1409, 1666
0.082998, -636, -2058, 129, 119, 1409, 1666
0.083132, -636, -2058, 129, 119, 1409, 1666
0.083267, -636, -2058, 129, 119, 1409, 1666
0.083401, 117, -2047, 82, 221, 1300, 1797
0.083535, 117, -2047, 82, 221, 1300, 1797
0.083669, 117, -2047, 82, 221, 1300, 1797
0.083803, 117, -2047, 82, 221, 1300, 1797
0.083937, 117, -2047, 82, 221, 1300, 1797
0.084071, 117, -2047, 82, 221, 1300, 1797
0.084206, 117, -2047, 82, 221, 1300, 1797
0.084340, 85, -2082, -111, 357, 1152, 1539
0.084474, 85, -2082, -111, 357, 1152, 1539
0.084609, 85, -2082, -111, 357, 1152, 1539
0.084743, 85, -2082, -111, 357, 1152, 1539
0.084877, 85, -2082, -111, 357, 1152, 1539
0.085011, 85, -2082, -111, 357, 1152, 1539
0.085145, 85, -2082, -111, 357, 1152, 1539
0.085279, 85, -2082, -111, 357, 1152, 1539
0.085413, 83, -1993, -515, 313, 1078, 1398
0.085548, 83, -1993, -515, 313, 1078, 1398
0.085682, 83, -1993, -515, 313, 1078, 1398
0.085816, 83, -1993, -515, 313, 1078, 1398
0.085950, 83, -1993, -515, 313, 1078, 1398
0.086084, 83, -1993, -515, 313, 1078, 1398
0.086218, 83, -1993, -515, 313, 1078, 1398
0.086352, 704, -1981, -361, 74, 1137, 1143
0.086487, 704, -1981, -361, 74, 1137, 1143
0.086621, 704, -1981, -361, 74, 1137, 1143
0.086755, 704, -1981, -361, 74, 1137, 1143
0.086889, 704, -1981, -361, 74, 1137, 1143
0.087023, 704, -1981, -361, 74, 1137, 1143
0.087157, 704, -1981, -361, 74, 1137, 1143
0.087291, 704, -1981, -361, 74, 1137, 1143
0.087425, 13, -2136, 650, 145, 1302, 725
0.087560, 13, -2136, 650, 145, 1302, 725
0.087694, 13, -2136, 650, 145, 1302, 725
0.087828, 13, -2136, 650, 145, 1302, 725
0.087962, 13, -2136, 650, 145, 1302, 725
0.088096, 13, -2136, 650, 145, 1302, 725
0.088231, 13, -2136, 650, 145, 1302, 725
0.088365, 13, -2136, 650, 145, 1302, 725
0.088499, -1102, -2171, 1241, 727, 1408, 955
0.088634, -1102, -2171, 1241, 727, 1408, 955
0.088768, -1102, -2171, 1241, 727, 1408, 955
0.088902, -1102, -2171, 1241, 727, 1408, 955
0.089036, -1102, -2171, 1241, 727, 1408, 955
0.089170, -1102, -2171, 1241, 727, 1408, 955
0.089304, -1102, -2171, 1241, 727, 1408, 955
0.089443, -422, -2060, 500, 1237, 1382, 1489
0.089580, -422, -2060, 500, 1237, 1382, 1489
0.089714, -422, -2060, 500, 1237, 1382, 1489
0.089848, -422, -2060, 500, 1237, 1382, 1489
0.089982, -422, -2060, 500, 1237, 1382, 1489
0.090116, -422, -2060, 500, 1237, 1382, 1489
0.090251, -422, -2060, 500, 1237, 1382, 1489
0.090385, -422, -2060, 500, 1237, 1382, 1489
0.090519, 530, -1982, -520, 1210, 1371, 1337
0.090653, 530, -1982, -520, 1210, 1371, 1337
0.090787, 530, -1982, -520, 1210, 1371, 1337
0.090921, 530, -1982, -520, 1210, 1371, 1337
0.091055, 530, -1982, -520, 1210, 1371, 1337
0.091190, 530, -1982, -520, 1210, 1371, 1337
0.091324, 530, -1982, -520, 1210, 1371, 1337
0.091458, 99, -1991, -845, 875, 1429, 869
0.091592, 99, -1991, -845, 875, 1429, 869
0.091726, 99, -1991, -845, 875, 1429, 869
0.091860, 99, -1991, -845, 875, 1429, 869
0.091995, 99, -1991, -845, 875, 1429, 869
0.092129, 99, -1991, -845, 875, 1429, 869
0.092263, 99, -1991, -845, 875, 1429, 869
0.092397, 99, -1991, -845, 875, 1429, 869
0.092531, -829, -2069, -591, 549, 1411, 917
0.092666, -829, -2069, -591, 549, 1411, 917
0.092800, -829, -2069, -591, 549, 1411, 917
0.092934, -829, -2069, -591, 549, 1411, 917
0.093068, -829, -2069, -591, 549, 1411, 917
0.093202, -829, -2069, -591, 549, 1411, 917
0.093336, -829, -2069, -591, 549, 1411, 917
0.093471, -1049, -2118, 8, 400, 1259, 1455
0.093605, -1049, -2118, 8, 400, 1259, 1455
0.093739, -1049, -2118, 8, 400, 1259, 1455
0.093873, -1049, -2118, 8, 400, 1259, 1455
0.094007, -1049, -2118, 8, 400, 1259, 1455
0.094141, -1049, -2118, 8, 400, 1259, 1455
0.094275, -1049, -2118, 8, 400, 1259, 1455
0.094410, -1049, -2118, 8, 400, 1259, 1455
0.094544, -441, -2075, 364, 469, 1083, 1885
0.094678, -441, -2075, 364, 469, 1083, 1885
0.094812, -441, -2075, 364, 469, 1083, 1885
0.094946, -441, -2075, 364, 469, 1083, 1885
0.095080, -441, -2075, 364, 469, 1083, 1885
0.095214, -441, -2075, 364, 469, 1083, 1885
0.095349, -441, -2075, 364, 469, 1083, 1885
0.095483, 352, -2012, 260, 554, 1028, 1789
0.095617, 352, -2012, 260, 554, 1028, 1789
0.095751, 352, -2012, 260, 554, 1028, 1789
0.095885, 352, -2012, 260, 554, 1028, 1789
0.096019, 352, -2012, 260, 554, 1028, 1789
0.096154, 352, -2012, 260, 554, 1028, 1789
0.096288, 352, -2012, 260, 554, 1028, 1789
0.096422, 352, -2012, 260, 554, 1028, 1789
0.096556, 692, -2001, 71, 578, 1151, 1256
0.096691, 692, -2001, 71, 578, 1151, 1256
0.096825, 692, -2001, 71, 578, 1151, 1256
0.096959, 692, -2001, 71, 578, 1151, 1256
0.097093, 692, -2001, 71, 578, 1151, 1256
0.097227, 692, -2001, 71, 578, 1151, 1256
0.097361, 692, -2001, 71, 578, 1151, 1256
0.097495, 692, -2001, 71, 578, 1151, 1256
0.097629, 266, -2028, -184, 537, 1385, 734
0.097764, 266, -2028, -184, 537, 1385, 734
0.097898, 266, -2028, -184, 537, 1385, 734
0.098032, 266, -2028, -184, 537, 1385, 734
0.098166, 266, -2028, -184, 537, 1385, 734
0.098300, 266, -2028, -184, 537, 1385, 734
0.098434, 266, -2028, -184, 537, 1385, 734
0.098569, -418, -2048, -392, 373, 1597, 652
0.098703, -418, -2048, -392, 373, 1597, 652
0.098837, -418, -2048, -392, 373, 1597, 652
0.098971, -418, -2048, -392, 373, 1597, 652
0.099105, -418, -2048, -392, 373, 1597, 652
0.099240, -418, -2048, -392, 373, 1597, 652
0.099374, -418, -2048, -392, 373, 1597, 652
0.099508, -418, -2048, -392, 373, 1597, 652
0.099642, -428, -2084, -118, 254, 1651, 913
0.099776, -428, -2084, -118, 254, 1651, 913
0.099910, -428, -2084, -118, 254, 1651, 913
0.100045, -428, -2084, -118, 254, 1651, 913
0.100179, -428, -2084, -118, 254, 1651, 913
0.100313, -428, -2084, -118, 254, 1651, 913
0.100447, -428, -2084, -118, 254, 1651, 913
0.100582, -79, -2117, 482, 441, 1533, 1032
0.100716, -79, -2117, 482, 441, 1533, 1032
0.100850, -79, -2117, 482, 441, 1533, 1032
0.100983, -79, -2117, 482, 441, 1533, 1032
0.101117, -79, -2117, 482, 441, 1533, 1032
0.101250, -79, -2117, 482, 441, 1533, 1032
0.101384, -79, -2117, 482, 441, 1533, 1032
0.101517, -79, -2117, 482, 441, 1533, 1032
0.101651, -149, -2063, 408, 769, 1403, 959
0.101784, -149, -2063, 408, 769, 1403, 959
0.101918, -149, -2063, 408, 769, 1403, 959
0.102052, -149, -2063, 408, 769, 1403, 959
0.102189, -149, -2063, 408, 769, 1403, 959
0.102323, -149, -2063, 408, 769, 1403, 959
0.102457, -149, -2063, 408, 769, 1403, 959
0.102590, -314, -2027, -199, 786, 1439, 969
0.102745, -314, -2027, -199, 786, 1439, 969
0.102886, -314, -2027, -199, 786, 1439, 969
0.103029, -314, -2027, -199, 786, 1439, 969
0.103166, -314, -2027, -199, 786, 1439, 969
0.103299, -314, -2027, -199, 786, 1439, 969
0.103433, -314, -2027, -199, 786, 1439, 969
0.103566, -314, -2027, -199, 786, 1439, 969
0.103700, -122, -2058, -204, 613, 1598, 1048
0.103833, -122, -2058, -204, 613, 1598, 1048
0.103967, -122, -2058, -204, 613, 1598, 1048
0.104114, -122, -2058, -204, 613, 1598, 1048
0.104251, -122, -2058, -204, 613, 1598, 1048
0.104385, -122, -2058, -204, 613, 1598, 1048
0.104518, -122, -2058, -204, 613, 1598, 1048
0.104653, 221, -2056, 98, 615, 1658, 971
0.104788, 221, -2056, 98, 615, 1658, 971
0.104922, 221, -2056, 98, 615, 1658, 971
0.105056, 221, -2056, 98, 615, 1658, 971
0.105190, 221, -2056, 98, 615, 1658, 971
0.105325, 221, -2056, 98, 615, 1658, 971
0.105459, 221, -2056, 98, 615, 1658, 971
0.105604, 221, -2056, 98, 615, 1658, 971
0.105748, 79, -2045, -10, 674, 1607, 747
0.105894, 79, -2045, -10, 674, 1607, 747
0.106032, 79, -2045, -10, 674, 1607, 747
0.106167, 79, -2045, -10, 674, 1607, 747
0.106301, 79, -2045, -10, 674, 1607, 747
0.106436, 79, -2045, -10, 674, 1607, 747
0.106570, 79, -2045, -10, 674, 1607, 747
0.106706, -443, -2047, -446, 550, 1598, 747
0.106843, -443, -2047, -446, 550, 1598, 747
0.106986, -443, -2047, -446, 550, 1598, 747
0.107134, -443, -2047, -446, 550, 1598, 747
0.107274, -443, -2047, -446, 550, 1598, 747
0.107409, -443, -2047, -446, 550, 1598, 747
0.107543, -443, -2047, -446, 550, 1598, 747
0.107678, -304, -2027, -791, 194, 1614, 1005
0.107812, -304, -2027, -791, 194, 1614, 1005
0.107946, -304, -2027, -791, 194, 1614, 1005
0.108080, -304, -2027, -791, 194, 1614, 1005
0.108214, -304, -2027, -791, 194, 1614, 1005
0.108348, -304, -2027, -791, 194, 1614, 1005
0.108488, -304, -2027, -791, 194, 1614, 1005
0.108628, -304, -2027, -791, 194, 1614, 1005
0.108762, 271, -2046, -452, -164, 1562, 1025
0.108897, 271, -2046, -452, -164, 1562, 1025
0.109031, 271, -2046, -452, -164, 1562, 1025
0.109165, 271, -2046, -452, -164, 1562, 1025
0.109299, 271, -2046, -452, -164, 1562, 1025
0.109433, 271, -2046, -452, -164, 1562, 1025
0.109567, 271, -2046, -452, -164, 1562, 1025
0.109701, 370, -2114, 458, -112, 1445, 727
0.109835, 370, -2114, 458, -112, 1445, 727
0.109969, 370, -2114, 458, -112, 1445, 727
0.110104, 370, -2114, 458, -112, 1445, 727
0.110238, 370, -2114, 458, -112, 1445, 727
0.110372, 370, -2114, 458, -112, 1445, 727
0.110506, 370, -2114, 458, -112, 1445, 727
0.110641, 370, -2114, 458, -112, 1445, 727
0.110775, 198, -2097, 643, 265, 1359, 454
0.110909, 198, -2097, 643, 265, 1359, 454
0.111044, 198, -2097, 643, 265, 1359, 454
0.111178, 198, -2097, 643, 265, 1359, 454
0.111312, 198, -2097, 643, 265, 1359, 454
0.111446, 198, -2097, 643, 265, 1359, 454
0.111580, 198, -2097, 643, 265, 1359, 454
0.111715, 205, -2016, 31, 408, 1453, 296
0.111849, 205, -2016, 31, 408, 1453, 296
0.111983, 205, -2016, 31, 408, 1453, 296
0.112118, 205, -2016, 31, 408, 1453, 296
0.112252, 205, -2016, 31, 408, 1453, 296
0.112386, 205, -2016, 31, 408, 1453, 296
0.112520, 205, -2016, 31, 408, 1453, 296
0.112655, 205, -2016, 31, 408, 1453, 296
0.112789, 515, -2011, -78, 364, 1694, 92
0.112923, 515, -2011, -78, 364, 1694, 92
0.113058, 515, -2011, -78, 364, 1694, 92
0.113192, 515, -2011, -78, 364, 1694, 92
0.113326, 515, -2011, -78, 364, 1694, 92
0.113460, 515, -2011, -78, 364, 1694, 92
0.113595, 515, -2011, -78, 364, 1694, 92
0.113729, 803, -2028, -78, 432, 1836, -324
0.113863, 803, -2028, -78, 432, 1836, -324
0.113997, 803, -2028, -78, 432, 1836, -324
0.114131, 803, -2028, -78, 432, 1836, -324
0.114266, 803, -2028, -78, 432, 1836, -324
0.114400, 803, -2028, -78, 432, 1836, -324
0.114534, 803, -2028, -78, 432, 1836, -324
0.114668, 803, -2028, -78, 432, 1836, -324
0.114802, 374, -2038, -449, 374, 1880, -782
0.114937, 374, -2038, -449, 374, 1880, -782
0.115100, 374, -2038, -449, 374, 1880, -782
0.115242, 374, -2038, -449, 374, 1880, -782
0.115376, 374, -2038, -449, 374, 1880, -782
0.115511, 374, -2038, -449, 374, 1880, -782
0.115645, 374, -2038, -449, 374, 1880, -782
0.115779, -657, -2126, -237, 202, 1946, -781
0.115914, -657, -2126, -237, 202, 1946, -781
0.116048, -657, -2126, -237, 202, 1946, -781
0.116182, -657, -2126, -237, 202, 1946, -781
0.116316, -657, -2126, -237, 202, 1946, -781
0.116451, -657, -2126, -237, 202, 1946, -781
0.116586, -657, -2126, -237, 202, 1946, -781
0.116720, -657, -2126, -237, 202, 1946, -781
0.116854, -1081, -2179, 428, 324, 1933, -202
0.116989, -1081, -2179, 428, 324, 1933, -202
0.117123, -1081, -2179, 428, 324, 1933, -202
0.117257, -1081, -2179, 428, 324, 1933, -202
0.117392, -1081, -2179, 428, 324, 1933, -202
0.117526, -1081, -2179, 428, 324, 1933, -202
0.117660, -1081, -2179, 428, 324, 1933, -202
0.117794, -542, -2078, 541, 662, 1776, 349
0.117928, -542, -2078, 541, 662, 1776, 349
0.118063, -542, -2078, 541, 662, 1776, 349
0.118198, -542, -2078, 541, 662, 1776, 349
0.118332, -542, -2078, 541, 662, 1776, 349
0.118466, -542, -2078, 541, 662, 1776, 349
0.118601, -542, -2078, 541, 662, 1776, 349
0.118735, -542, -2078, 541, 662, 1776, 349
0.118869, -67, -1967, 50, 801, 1597, 426
0.119003, -67, -1967, 50, 801, 1597, 426
0.119138, -67, -1967, 50, 801, 1597, 426
0.119272, -67, -1967, 50, 801, 1597, 426
0.119406, -67, -1967, 50, 801, 1597, 426
0.119540, -67, -1967, 50, 801, 1597, 426
0.119675, -67, -1967, 50, 801, 1597, 426
0.119809, -57, -1979, -359, 667, 1527, 285
0.119943, -57, -1979, -359, 667, 1527, 285
0.120078, -57, -1979, -359, 667, 1527, 285
0.120212, -57, -1979, -359, 667, 1527, 285
0.120346, -57, -1979, -359, 667, 1527, 285
0.120480, -57, -1979, -359, 667, 1527, 285
0.120615, -57, -1979, -359, 667, 1527, 285
0.120749, -57, -1979, -359, 667, 1527, 285
0.120883, 50, -2050, -427, 485, 1515, 204
0.121018, 50, -2050, -427, 485, 1515, 204
0.121152, 50, -2050, -427, 485, 1515, 204
0.121286, 50, -2050, -427, 485, 1515, 204
0.121420, 50, -2050, -427, 485, 1515, 204
0.121554, 50, -2050, -427, 485, 1515, 204
0.121689, 50, -2050, -427, 485, 1515, 204
0.121823, 50, -2050, -427, 485, 1515, 204
0.121957, 732, -2036, -554, 310, 1428, -8
0.122091, 732, -2036, -554, 310, 1428, -8
0.122225, 732, -2036, -554, 310, 1428, -8
0.122360, 732, -2036, -554, 310, 1428, -8
0.122494, 732, -2036, -554, 310, 1428, -8
0.122628, 732, -2036, -554, 310, 1428, -8
0.122762, 732, -2036, -554, 310, 1428, -8
0.122896, 1286, -2001, -698, 26, 1329, -674
0.123031, 1286, -2001, -698, 26, 1329, -674
0.123165, 1286, -2001, -698, 26, 1329, -674
0.123299, 1286, -2001, -698, 26, 1329, -674
0.123434, 1286, -2001, -698, 26, 1329, -674
0.123568, 1286, -2001, -698, 26, 1329, -674
0.123702, 1286, -2001, -698, 26, 1329, -674
0.123836, 1286, -2001, -698, 26, 1329, -674
0.123970, 236, -2073, -232, -192, 1376, -1343
0.124105, 236, -2073, -232, -192, 1376, -1343
0.124239, 236, -2073, -232, -192, 1376, -1343
0.124373, 236, -2073, -232, -192, 1376, -1343
0.124507, 236, -2073, -232, -192, 1376, -1343
0.124642, 236, -2073, -232, -192, 1376, -1343
0.124776, 236, -2073, -232, -192, 1376, -1343
0.124911, -1290, -2093, 344, -112, 1525, -1065
0.125045, -1290, -2093, 344, -112, 1525, -1065
0.125179, -1290, -2093, 344, -112, 1525, -1065
0.125314, -1290, -2093, 344, -112, 1525, -1065
0.125448, -1290, -2093, 344, -112, 1525, -1065
0.125582, -1290, -2093, 344, -112, 1525, -1065
0.125716, -1290, -2093, 344, -112, 1525, -1065
0.125851, -1290, -2093, 344, -112, 1525, -1065
0.125985, -1241, -2043, 173, -38, 1601, -131
0.126119, -1241, -2043, 173, -38, 1601, -131
0.126253, -1241, -2043, 173, -38, 1601, -131
0.126388, -1241, -2043, 173, -38, 1601, -131
0.126522, -1241, -2043, 173, -38, 1601, -131
0.126656, -1241, -2043, 173, -38, 1601, -131
0.126790, -1241, -2043, 173, -38, 1601, -131
0.126924, -614, -2096, 83, -74, 1512, 434
0.127059, -614, -2096, 83, -74, 1512, 434
0.127193, -614, -2096, 83, -74, 1512, 434
0.127327, -614, -2096, 83, -74, 1512, 434
0.127462, -614, -2096, 83, -74, 1512, 434
0.127602, -614, -2096, 83, -74, 1512, 434
0.127737, -614, -2096, 83, -74, 1512, 434
0.127871, -614, -2096, 83, -74, 1512, 434
0.128005, -300, -2130, 337, 149, 1193, 551
0.128140, -300, -2130, 337, 149, 1193, 551
0.128274, -300, -2130, 337, 149, 1193, 551
0.128408, -300, -2130, 337, 149, 1193, 551
0.128543, -300, -2130, 337, 149, 1193, 551
0.128677, -300, -2130, 337, 149, 1193, 551
0.128812, -300, -2130, 337, 149, 1193, 551
0.128945, 306, -2079, 344, 519, 763, 422
0.129079, 306, -2079, 344, 519, 763, 422
0.129214, 306, -2079, 344, 519, 763, 422
0.129348, 306, -2079, 344, 519, 763, 422
0.129481, 306, -2079, 344, 519, 763, 422
0.129615, 306, -2079, 344, 519, 763, 422
0.129748, 306, -2079, 344, 519, 763, 422
0.129882, 306, -2079, 344, 519, 763, 422
0.130015, 819, -2053, 426, 806, 535, -52
0.130149, 819, -2053, 426, 806, 535, -52
0.130282, 819, -2053, 426, 806, 535, -52
0.130416, 819, -2053, 426, 806, 535, -52
0.130549, 819, -2053, 426, 806, 535, -52
0.130683, 819, -2053, 426, 806, 535, -52
0.130816, 819, -2053, 426, 806, 535, -52
0.130950, 517, -2028, 604, 1159, 605, -612
0.131083, 517, -2028, 604, 1159, 605, -612
0.131217, 517, -2028, 604, 1159, 605, -612
0.131350, 517, -2028, 604, 1159, 605, -612
0.131484, 517, -2028, 604, 1159, 605, -612
0.131617, 517, -2028, 604, 1159, 605, -612
0.131750, 517, -2028, 604, 1159, 605, -612
0.131884, 517, -2028, 604, 1159, 605, -612
0.132017, -208, -2032, 416, 1535, 827, -793
0.132151, -208, -2032, 416, 1535, 827, -793
0.132284, -208, -2032, 416, 1535, 827, -793
0.132418, -208, -2032, 416, 1535, 827, -793
0.132551, -208, -2032, 416, 1535, 827, -793
0.132686, -208, -2032, 416, 1535, 827, -793
0.132820, -208, -2032, 416, 1535, 827, -793
0.132954, -208, -2032, 416, 1535, 827, -793
0.133088, -618, -2096, -156, 1642, 1041, -551
0.133223, -618, -2096, -156, 1642, 1041, -551
0.133357, -618, -2096, -156, 1642, 1041, -551
0.133491, -618, -2096, -156, 1642, 1041, -551
0.133625, -618, -2096, -156, 1642, 1041, -551
0.133759, -618, -2096, -156, 1642, 1041, -551
0.133893, -618, -2096, -156, 1642, 1041, -551
0.134027, -478, -2093, -721, 1393, 1114, -208
0.134162, -478, -2093, -721, 1393, 1114, -208
0.134296, -478, -2093, -721, 1393, 1114, -208
0.134430, -478, -2093, -721, 1393, 1114, -208
0.134564, -478, -2093, -721, 1393, 1114, -208
0.134698, -478, -2093, -721, 1393, 1114, -208
0.134833, -478, -2093, -721, 1393, 1114, -208
0.134967, -478, -2093, -721, 1393, 1114, -208
0.135101, -117, -2043, -873, 961, 996, -71
0.135235, -117, -2043, -873, 961, 996, -71
0.135369, -117, -2043, -873, 961, 996, -71
0.135504, -117, -2043, -873, 961, 996, -71
0.135638, -117, -2043, -873, 961, 996, -71
0.135772, -117, -2043, -873, 961, 996, -71
0.135906, -117, -2043, -873, 961, 996, -71
0.136040, -6, -1997, -656, 555, 769, -140
0.136175, -6, -1997, -656, 555, 769, -140
0.136309, -6, -1997, -656, 555, 769, -140
0.136443, -6, -1997, -656, 555, 769, -140
0.136577, -6, -1997, -656, 555, 769, -140
0.136712, -6, -1997, -656, 555, 769, -140
0.136846, -6, -1997, -656, 555, 769, -140
0.136980, -6, -1997, -656, 555, 769, -140
0.137114, -76, -1961, -459, 221, 612, -210
0.137248, -76, -1961, -459, 221, 612, -210
0.137382, -76, -1961, -459, 221, 612, -210
0.137517, -76, -1961, -459, 221, 612, -210
0.137651, -76, -1961, -459, 221, 612, -210
0.137785, -76, -1961, -459, 221, 612, -210
0.137919, -76, -1961, -459, 221, 612, -210
0.138053, -288, -2027, 22, 24, 647, -173
0.138188, -288, -2027, 22, 24, 647, -173
0.138322, -288, -2027, 22, 24, 647, -173
0.138456, -288, -2027, 22, 24, 647, -173
0.138590, -288, -2027, 22, 24, 647, -173
0.138724, -288, -2027, 22, 24, 647, -173
0.138858, -288, -2027, 22, 24, 647, -173
0.138993, -288, -2027, 22, 24, 647, -173
0.139127, -485, -2109, 813, 262, 741, 18
0.139261, -485, -2109, 813, 262, 741, 18
0.139395, -485, -2109, 813, 262, 741, 18
0.139529, -485, -2109, 813, 262, 741, 18
0.139663, -485, -2109, 813, 262, 741, 18
0.139798, -485, -2109, 813, 262, 741, 18
0.139932, -485, -2109, 813, 262, 741, 18
0.140066, -485, -2109, 813, 262, 741, 18
0.140200, -49, -2078, 797, 803, 706, 172
0.140334, -49, -2078, 797, 803, 706, 172
0.140473, -49, -2078, 797, 803, 706, 172
0.140608, -49, -2078, 797, 803, 706, 172
0.140743, -49, -2078, 797, 803, 706, 172
0.140877, -49, -2078, 797, 803, 706, 172
0.141011, -49, -2078, 797, 803, 706, 172
0.141145, 608, -2022, -69, 1059, 648, -94
0.141279, 608, -2022, -69, 1059, 648, -94
0.141414, 608, -2022, -69, 1059, 648, -94
0.141548, 608, -2022, -69, 1059, 648, -94
0.141682, 608, -2022, -69, 1059, 648, -94
0.141816, 608, -2022, -69, 1059, 648, -94
0.141950, 608, -2022, -69, 1059, 648, -94
0.142084, 608, -2022, -69, 1059, 648, -94
0.142218, 316, -2051, -635, 902, 690, -588
0.142353, 316, -2051, -635, 902, 690, -588
0.142487, 316, -2051, -635, 902, 690, -588
0.142621, 316, -2051, -635, 902, 690, -588
0.142755, 316, -2051, -635, 902, 690, -588
0.142889, 316, -2051, -635, 902, 690, -588
0.143024, 316, -2051, -635, 902, 690, -588
0.143158, -452, -2095, -440, 700, 697, -655
0.143292, -452, -2095, -440, 700, 697, -655
0.143426, -452, -2095, -440, 700, 697, -655
0.143560, -452, -2095, -440, 700, 697, -655
0.143694, -452, -2095, -440, 700, 697, -655
0.143829, -452, -2095, -440, 700, 697, -655
0.143963, -452, -2095, -440, 700, 697, -655
0.144097, -452, -2095, -440, 700, 697, -655
0.144231, -480, -2068, -120, 685, 591, -309
0.144365, -480, -2068, -120, 685, 591, -309
0.144499, -480, -2068, -120, 685, 591, -309
0.144634, -480, -2068, -120, 685, 591, -309
0.144767, -480, -2068, -120, 685, 591, -309
0.144901, -480, -2068, -120, 685, 591, -309
0.145034, -480, -2068, -120, 685, 591, -309
0.145168, -365, -2040, -67, 680, 526, -66
0.145302, -365, -2040, -67, 680, 526, -66
0.145435, -365, -2040, -67, 680, 526, -66
0.145568, -365, -2040, -67, 680, 526, -66
0.145702, -365, -2040, -67, 680, 526, -66
0.145835, -365, -2040, -67, 680, 526, -66
0.145969, -365, -2040, -67, 680, 526, -66
0.146102, -365, -2040, -67, 680, 526, -66
0.146236, -911, -2048, 41, 599, 579, 187
0.146370, -911, -2048, 41, 599, 579, 187
0.146503, -911, -2048, 41, 599, 579, 187
0.146637, -911, -2048, 41, 599, 579, 187
0.146770, -911, -2048, 41, 599, 579, 187
0.146904, -911, -2048, 41, 599, 579, 187
0.147037, -911, -2048, 41, 599, 579, 187
0.147170, -1217, -2045, 49, 556, 602, 778
0.147304, -1217, -2045, 49, 556, 602, 778
0.147437, -1217, -2045, 49, 556, 602, 778
0.147571, -1217, -2045, 49, 556, 602, 778
0.147704, -1217, -2045, 49, 556, 602, 778
0.147838, -1217, -2045, 49, 556, 602, 778
0.147971, -1217, -2045, 49, 556, 602, 778
0.148104, -1217, -2045, 49, 556, 602, 778
0.148238, -461, -2022, -296, 449, 494, 1310
0.148372, -461, -2022, -296, 449, 494, 1310
0.148505, -461, -2022, -296, 449, 494, 1310
0.148645, -461, -2022, -296, 449, 494, 1310
0.148782, -461, -2022, -296, 449, 494, 1310
0.148919, -461, -2022, -296, 449, 494, 1310
0.149053, -461, -2022, -296, 449, 494, 1310
0.149187, -461, -2022, -296, 449, 494, 1310
0.149321, 568, -2000, -640, 171, 327, 1190
0.149456, 568, -2000, -640, 171, 327, 1190
0.149590, 568, -2000, -640, 171, 327, 1190
0.149725, 568, -2000, -640, 171, 327, 1190
0.149859, 568, -2000, -640, 171, 327, 1190
0.149993, 568, -2000, -640, 171, 327, 1190
0.150127, 568, -2000, -640, 171, 327, 1190
0.150261, 617, -2005, -522, -115, 210, 609
0.150396, 617, -2005, -522, -115, 210, 609
0.150530, 617, -2005, -522, -115, 210, 609
0.150664, 617, -2005, -522, -115, 210, 609
0.150798, 617, -2005, -522, -115, 210, 609
0.150932, 617, -2005, -522, -115, 210, 609
0.151066, 617, -2005, -522, -115, 210, 609
0.151201, 617, -2005, -522, -115, 210, 609
0.151335, 170, -2035, -125, -236, 207, 262
0.151472, 170, -2035, -125, -236, 207, 262
0.151615, 170, -2035, -125, -236, 207, 262
0.151753, 170, -2035, -125, -236, 207, 262
0.151888, 170, -2035, -125, -236, 207, 262
0.152023, 170, -2035, -125, -236, 207, 262
0.152157, 170, -2035, -125, -236, 207, 262
0.152291, 429, -2069, 167, -225, 331, 155
0.152425, 429, -2069, 167, -225, 331, 155
0.152560, 429, -2069, 167, -225, 331, 155
0.152694, 429, -2069, 167, -225, 331, 155
0.152829, 429, -2069, 167, -225, 331, 155
0.152963, 429, -2069, 167, -225, 331, 155
0.153097, 429, -2069, 167, -225, 331, 155
0.153231, 429, -2069, 167, -225, 331, 155
0.153387, 530, -2128, 433, -50, 542, -145
0.153517, 530, -2128, 433, -50, 542, -145
0.153653, 530, -2128, 433, -50, 542, -145
0.153795, 530, -2128, 433, -50, 542, -145
0.153933, 530, -2128, 433, -50, 542, -145
0.154068, 530, -2128, 433, -50, 542, -145
0.154202, 530, -2128, 433, -50, 542, -145
0.154337, -117, -2126, 372, 296, 742, -350
0.154471, -117, -2126, 372, 296, 742, -350
0.154605, -117, -2126, 372, 296, 742, -350
0.154740, -117, -2126, 372, 296, 742, -350
0.154874, -117, -2126, 372, 296, 742, -350
0.155008, -117, -2126, 372, 296, 742, -350
0.155142, -117, -2126, 372, 296, 742, -350
0.155276, -202, -2032, -224, 446, 851, -214
0.155411, -202, -2032, -224, 446, 851, -214
0.155545, -202, -2032, -224, 446, 851, -214
0.155679, -202, -2032, -224, 446, 851, -214
0.155813, -202, -2032, -224, 446, 851, -214
0.155947, -202, -2032, -224, 446, 851, -214
0.156081, -202, -2032, -224, 446, 851, -214
0.156215, -202, -2032, -224, 446, 851, -214
0.156350, 87, -2047, -245, 325, 848, -179
0.156484, 87, -2047, -245, 325, 848, -179
0.156619, 87, -2047, -245, 325, 848, -179
0.156753, 87, -2047, -245, 325, 848, -179
0.156888, 87, -2047, -245, 325, 848, -179
0.157022, 87, -2047, -245, 325, 848, -179
0.157157, 87, -2047, -245, 325, 848, -179
0.157291, 87, -2047, -245, 325, 848, -179
0.157425, -462, -2138, 591, 512, 732, -199
0.157560, -462, -2138, 591, 512, 732, -199
0.157694, -462, -2138, 591, 512, 732, -199
0.157828, -462, -2138, 591, 512, 732, -199
0.157962, -462, -2138, 591, 512, 732, -199
0.158096, -462, -2138, 591, 512, 732, -199
0.158230, -462, -2138, 591, 512, 732, -199
0.158364, -922, -2084, 632, 1028, 545, 179
0.158499, -922, -2084, 632, 1028, 545, 179
0.158633, -922, -2084, 632, 1028, 545, 179
0.158767, -922, -2084, 632, 1028, 545, 179
0.158901, -922, -2084, 632, 1028, 545, 179
0.159036, -922, -2084, 632, 1028, 545, 179
0.159170, -922, -2084, 632, 1028, 545, 179
0.159304, -922, -2084, 632, 1028, 545, 179
0.159438, -393, -1987, -316, 1121, 437, 608
0.159572, -393, -1987, -316, 1121, 437, 608
0.159706, -393, -1987, -316, 1121, 437, 608
0.159841, -393, -1987, -316, 1121, 437, 608
0.159975, -393, -1987, -316, 1121, 437, 608
0.160109, -393, -1987, -316, 1121, 437, 608
0.160243, -393, -1987, -316, 1121, 437, 608
0.160377, 99, -1991, -688, 761, 478, 621
0.160511, 99, -1991, -688, 761, 478, 621
0.160646, 99, -1991, -688, 761, 478, 621
0.160780, 99, -1991, -688, 761, 478, 621
0.160914, 99, -1991, -688, 761, 478, 621
0.161049, 99, -1991, -688, 761, 478, 621
0.161183, 99, -1991, -688, 761, 478, 621
0.161317, 99, -1991, -688, 761, 478, 621
0.161451, -31, -2020, -312, 505, 498, 484
0.161585, -31, -2020, -312, 505, 498, 484
0.161719, -31, -2020, -312, 505, 498, 484
0.161853, -31, -2020, -312, 505, 498, 484
0.161987, -31, -2020, -312, 505, 498, 484
0.162122, -31, -2020, -312, 505, 498, 484
0.162256, -31, -2020, -312, 505, 498, 484
0.162390, -186, -2046, -13, 416, 434, 504
0.162524, -186, -2046, -13, 416, 434, 504
0.162658, -186, -2046, -13, 416, 434, 504
0.162793, -186, -2046, -13, 416, 434, 504
0.162927, -186, -2046, -13, 416, 434, 504
0.163061, -186, -2046, -13, 416, 434, 504
0.163195, -186, -2046, -13, 416, 434, 504
0.163329, -186, -2046, -13, 416, 434, 504
0.163463, -296, -2112, 95, 372, 430, 596
0.163598, -296, -2112, 95, 372, 430, 596
0.163732, -296, -2112, 95, 372, 430, 596
0.163866, -296, -2112, 95, 372, 430, 596
0.164000, -296, -2112, 95, 372, 430, 596
0.164134, -296, -2112, 95, 372, 430, 596
0.164268, -296, -2112, 95, 372, 430, 596
0.164402, -765, -2153, 131, 412, 491, 791
0.164537, -765, -2153, 131, 412, 491, 791
0.164671, -765, -2153, 131, 412, 491, 791
0.164805, -765, -2153, 131, 412, 491, 791
0.164939, -765, -2153, 131, 412, 491, 791
0.165074, -765, -2153, 131, 412, 491, 791
0.165208, -765, -2153, 131, 412, 491, 791
0.165343, -765, -2153, 131, 412, 491, 791
0.165478, -928, -2104, 94, 524, 478, 1236
0.165614, -928, -2104, 94, 524, 478, 1236
0.165748, -928, -2104, 94, 524, 478, 1236
0.165883, -928, -2104, 94, 524, 478, 1236
0.166017, -928, -2104, 94, 524, 478, 1236
0.166151, -928, -2104, 94, 524, 478, 1236
0.166285, -928, -2104, 94, 524, 478, 1236
0.166448, -237, -2041, -96, 570, 357, 1577
0.166587, -237, -2041, -96, 570, 357, 1577
0.166721, -237, -2041, -96, 570, 357, 1577
0.166855, -237, -2041, -96, 570, 357, 1577
0.166989, -237, -2041, -96, 570, 357, 1577
0.167123, -237, -2041, -96, 570, 357, 1577
0.167257, -237, -2041, -96, 570, 357, 1577
0.167391, -237, -2041, -96, 570, 357, 1577
0.167526, 581, -2000, -446, 410, 251, 1385
0.167660, 581, -2000, -446, 410, 251, 1385
0.167794, 581, -2000, -446, 410, 251, 1385
0.167928, 581, -2000, -446, 410, 251, 1385
0.168062, 581, -2000, -446, 410, 251, 1385
0.168196, 581, -2000, -446, 410, 251, 1385
0.168331, 581, -2000, -446, 410, 251, 1385
0.168465, 774, -1993, -422, 158, 294, 837
0.168600, 774, -1993, -422, 158, 294, 837
0.168734, 774, -1993, -422, 158, 294, 837
0.168867, 774, -1993, -422, 158, 294, 837
0.169001, 774, -1993, -422, 158, 294, 837
0.169134, 774, -1993, -422, 158, 294, 837
0.169267, 774, -1993, -422, 158, 294, 837
0.169401, 774, -1993, -422, 158, 294, 837
0.169534, 478, -2040, -30, 69, 476, 405
0.169668, 478, -2040, -30, 69, 476, 405
0.169801, 478, -2040, -30, 69, 476, 405
0.169935, 478, -2040, -30, 69, 476, 405
0.170068, 478, -2040, -30, 69, 476, 405
0.170201, 478, -2040, -30, 69, 476, 405
0.170335, 478, -2040, -30, 69, 476, 405
0.170468, 478, -2040, -30, 69, 476, 405
0.170602, 489, -2022, -81, 75, 734, 203
0.170735, 489, -2022, -81, 75, 734, 203
0.170868, 489, -2022, -81, 75, 734, 203
0.171002, 489, -2022, -81, 75, 734, 203
0.171135, 489, -2022, -81, 75, 734, 203
0.171269, 489, -2022, -81, 75, 734, 203
0.171402, 489, -2022, -81, 75, 734, 203
0.171536, 769, -1983, -462, -114, 1041, -90
0.171669, 769, -1983, -462, -114, 1041, -90
0.171803, 769, -1983, -462, -114, 1041, -90
0.171936, 769, -1983, -462, -114, 1041, -90
0.172070, 769, -1983, -462, -114, 1041, -90
0.172203, 769, -1983, -462, -114, 1041, -90
0.172337, 769, -1983, -462, -114, 1041, -90
0.172471, 769, -1983, -462, -114, 1041, -90
0.172605, 366, -2097, -262, -356, 1343, -458
0.172740, 366, -2097, -262, -356, 1343, -458
0.172874, 366, -2097, -262, -356, 1343, -458
0.173008, 366, -2097, -262, -356, 1343, -458
0.173142, 366, -2097, -262, -356, 1343, -458
0.173276, 366, -2097, -262, -356, 1343, -458
0.173410, 366, -2097, -262, -356, 1343, -458
0.173544, -340, -2156, 311, -267, 1521, -449
0.173679, -340, -2156, 311, -267, 1521, -449
0.173813, -340, -2156, 311, -267, 1521, -449
0.173947, -340, -2156, 311, -267, 1521, -449
0.174081, -340, -2156, 311, -267, 1521, -449
0.174216, -340, -2156, 311, -267, 1521, -449
0.174350, -340, -2156, 311, -267, 1521, -449
0.174484, -340, -2156, 311, -267, 1521, -449
0.174618, -254, -2027, 331, 19, 1513, -134
0.174752, -254, -2027, 331, 19, 1513, -134
0.174886, -254, -2027, 331, 19, 1513, -134
0.175021, -254, -2027, 331, 19, 1513, -134
0.175155, -254, -2027, 331, 19, 1513, -134
0.175289, -254, -2027, 331, 19, 1513, -134
0.175423, -254, -2027, 331, 19, 1513, -134
0.175557, 237, -1974, -124, 74, 1439, -57
0.175691, 237, -1974, -124, 74, 1439, -57
0.175826, 237, -1974, -124, 74, 1439, -57
0.175960, 237, -1974, -124, 74, 1439, -57
0.176094, 237, -1974, -124, 74, 1439, -57
0.176228, 237, -1974, -124, 74, 1439, -57
0.176362, 237, -1974, -124, 74, 1439, -57
0.176496, 237, -1974, -124, 74, 1439, -57
0.176631, 280, -2072, -204, -49, 1441, -265
0.176765, 280, -2072, -204, -49, 1441, -265
0.176899, 280, -2072, -204, -49, 1441, -265
0.177033, 280, -2072, -204, -49, 1441, -265
0.177167, 280, -2072, -204, -49, 1441, -265
0.177301, 280, -2072, -204, -49, 1441, -265
0.177436, 280, -2072, -204, -49, 1441, -265
0.177570, 280, -2072, -204, -49, 1441, -265
0.177704, 51, -2105, 80, 35, 1465, -388
0.177838, 51, -2105, 80, 35, 1465, -388
0.177972, 51, -2105, 80, 35, 1465, -388
0.178106, 51, -2105, 80, 35, 1465, -388
0.178240, 51, -2105, 80, 35, 1465, -388
0.178374, 51, -2105, 80, 35, 1465, -388
0.178509, 51, -2105, 80, 35, 1465, -388
0.178643, 95, -2023, -81, 188, 1421, -377
0.178777, 95, -2023, -81, 188, 1421, -377
0.178911, 95, -2023, -81, 188, 1421, -377
0.179045, 95, -2023, -81, 188, 1421, -377
0.179179, 95, -2023, -81, 188, 1421, -377
0.179319, 95, -2023, -81, 188, 1421, -377
0.179454, 95, -2023, -81, 188, 1421, -377
0.179588, 95, -2023, -81, 188, 1421, -377
0.179722, 62, -2037, -321, 87, 1399, -413
0.179857, 62, -2037, -321, 87, 1399, -413
0.179991, 62, -2037, -321, 87, 1399, -413
0.180125, 62, -2037, -321, 87, 1399, -413
0.180259, 62, -2037, -321, 87, 1399, -413
0.180393, 62, -2037, -321, 87, 1399, -413
0.180527, 62, -2037, -321, 87, 1399, -413
0.180662, -490, -2128, 83, 41, 1414, -323
0.180796, -490, -2128, 83, 41, 1414, -323
0.180930, -490, -2128, 83, 41, 1414, -323
0.181064, -490, -2128, 83, 41, 1414, -323
0.181198, -490, -2128, 83, 41, 1414, -323
0.181333, -490, -2128, 83, 41, 1414, -323
0.181467, -490, -2128, 83, 41, 1414, -323
0.181601, -490, -2128, 83, 41, 1414, -323
0.181735, -1001, -2117, 489, 312, 1321, 130
0.181869, -1001, -2117, 489, 312, 1321, 130
0.182003, -1001, -2117, 489, 312, 1321, 130
0.182137, -1001, -2117, 489, 312, 1321, 130
0.182272, -1001, -2117, 489, 312, 1321, 130
0.182406, -1001, -2117, 489, 312, 1321, 130
0.182540, -1001, -2117, 489, 312, 1321, 130
0.182674, -787, -2047, 281, 582, 1119, 711
0.182808, -787, -2047, 281, 582, 1119, 711
0.182942, -787, -2047, 281, 582, 1119, 711
0.183076, -787, -2047, 281, 582, 1119, 711
0.183210, -787, -2047, 281, 582, 1119, 711
0.183345, -787, -2047, 281, 582, 1119, 711
0.183479, -787, -2047, 281, 582, 1119, 711
0.183613, -787, -2047, 281, 582, 1119, 711
0.183747, -119, -2014, -125, 622, 934, 968
0.183881, -119, -2014, -125, 622, 934, 968
0.184015, -119, -2014, -125, 622, 934, 968
0.184150, -119, -2014, -125, 622, 934, 968
0.184284, -119, -2014, -125, 622, 934, 968
0.184419, -119, -2014, -125, 622, 934, 968
0.184553, -119, -2014, -125, 622, 934, 968
0.184688, 273, -2028, -317, 539, 821, 810
0.184822, 273, -2028, -317, 539, 821, 810
0.184956, 273, -2028, -317, 539, 821, 810
0.185090, 273, -2028, -317, 539, 821, 810
0.185224, 273, -2028, -317, 539, 821, 810
0.185358, 273, -2028, -317, 539, 821, 810
0.185492, 273, -2028, -317, 539, 821, 810
0.185626, 273, -2028, -317, 539, 821, 810
0.185761, 327, -2055, -308, 455, 772, 532
0.185895, 327, -2055, -308, 455, 772, 532
0.186029, 327, -2055, -308, 455, 772, 532
0.186163, 327, -2055, -308, 455, 772, 532
0.186297, 327, -2055, -308, 455, 772, 532
0.186431, 327, -2055, -308, 455, 772, 532
0.186565, 327, -2055, -308, 455, 772, 532
0.186700, 388, -2063, -290, 374, 791, 311
0.186834, 388, -2063, -290, 374, 791, 311
0.186968, 388, -2063, -290, 374, 791, 311
0.187102, 388, -2063, -290, 374, 791, 311
0.187236, 388, -2063, -290, 374, 791, 311
0.187370, 388, -2063, -290, 374, 791, 311
0.187504, 388, -2063, -290, 374, 791, 311
0.187638, 388, -2063, -290, 374, 791, 311
0.187773, 669, -2037, -402, 234, 890, 37
0.187907, 669, -2037, -402, 234, 890, 37
0.188041, 669, -2037, -402, 234, 890, 37
0.188175, 669, -2037, -402, 234, 890, 37
0.188309, 669, -2037, -402, 234, 890, 37
0.188443, 669, -2037, -402, 234, 890, 37
0.188578, 669, -2037, -402, 234, 890, 37
0.188711, 669, -2037, -402, 234, 890, 37
0.188845, 879, -2009, -502, 10, 1045, -431
0.188978, 879, -2009, -502, 10, 1045, -431
0.189112, 879, -2009, -502, 10, 1045, -431
0.189246, 879, -2009, -502, 10, 1045, -431
0.189379, 879, -2009, -502, 10, 1045, -431
0.189512, 879, -2009, -502, 10, 1045, -431
0.189646, 879, -2009, -502, 10, 1045, -431
0.189780, 230, -2069, -175, -161, 1235, -858
0.189913, 230, -2069, -175, -161, 1235, -858
0.190047, 230, -2069, -175, -161, 1235, -858
0.190180, 230, -2069, -175, -161, 1235, -858
0.190313, 230, -2069, -175, -161, 1235, -858
0.190447, 230, -2069, -175, -161, 1235, -858
0.190580, 230, -2069, -175, -161, 1235, -858
0.190714, 230, -2069, -175, -161, 1235, -858
0.190847, -782, -2097, 364, -76, 1403, -709
0.190981, -782, -2097, 364, -76, 1403, -709
0.191114, -782, -2097, 364, -76, 1403, -709
0.191248, -782, -2097, 364, -76, 1403, -709
0.191381, -782, -2097, 364, -76, 1403, -709
0.191515, -782, -2097, 364, -76, 1403, -709
0.191648, -782, -2097, 364, -76, 1403, -709
0.191781, -646, -2019, 325, 94, 1465, -146
0.191915, -646, -2019, 325, 94, 1465, -146
0.192048, -646, -2019, 325, 94, 1465, -146
0.192186, -646, -2019, 325, 94, 1465, -146
0.192320, -646, -2019, 325, 94, 1465, -146
0.192453, -646, -2019, 325, 94, 1465, -146
0.192589, -646, -2019, 325, 94, 1465, -146
0.192723, -646, -2019, 325, 94, 1465, -146
0.192857, -217, -2074, 240, 164, 1451, 84
0.192991, -217, -2074, 240, 164, 1451, 84
0.193125, -217, -2074, 240, 164, 1451, 84
0.193260, -217, -2074, 240, 164, 1451, 84
0.193394, -217, -2074, 240, 164, 1451, 84
0.193528, -217, -2074, 240, 164, 1451, 84
0.193662, -217, -2074, 240, 164, 1451, 84
0.193796, -1085, -2168, 519, 448, 1382, 224
0.193930, -1085, -2168, 519, 448, 1382, 224
0.194064, -1085, -2168, 519, 448, 1382, 224
0.194198, -1085, -2168, 519, 448, 1382, 224
0.194333, -1085, -2168, 519, 448, 1382, 224
0.194467, -1085, -2168, 519, 448, 1382, 224
0.194601, -1085, -2168, 519, 448, 1382, 224
0.194735, -1085, -2168, 519, 448, 1382, 224
0.194869, -1729, -2083, 311, 841, 1208, 973
0.195003, -1729, -2083, 311, 841, 1208, 973
0.195138, -1729, -2083, 311, 841, 1208, 973
0.195272, -1729, -2083, 311, 841, 1208, 973
0.195406, -1729, -2083, 311, 841, 1208, 973
0.195540, -1729, -2083, 311, 841, 1208, 973
0.195674, -1729, -2083, 311, 841, 1208, 973
0.195808, -1729, -2083, 311, 841, 1208, 973
0.195942, -918, -2015, -79, 905, 981, 1802
0.196077, -918, -2015, -79, 905, 981, 1802
0.196211, -918, -2015, -79, 905, 981, 1802
0.196345, -918, -2015, -79, 905, 981, 1802
0.196479, -918, -2015, -79, 905, 981, 1802
0.196614, -918, -2015, -79, 905, 981, 1802
0.196747, -918, -2015, -79, 905, 981, 1802
0.196881, -79, -2052, -57, 837, 775, 1991
0.197015, -79, -2052, -57, 837, 775, 1991
0.197148, -79, -2052, -57, 837, 775, 1991
0.197281, -79, -2052, -57, 837, 775, 1991
0.197415, -79, -2052, -57, 837, 775, 1991
0.197548, -79, -2052, -57, 837, 775, 1991
0.197682, -79, -2052, -57, 837, 775, 1991
0.197815, -79, -2052, -57, 837, 775, 1991
0.197948, 265, -2038, -155, 816, 637, 1772
0.198082, 265, -2038, -155, 816, 637, 1772
0.198215, 265, -2038, -155, 816, 637, 1772
0.198349, 265, -2038, -155, 816, 637, 1772
0.198482, 265, -2038, -155, 816, 637, 1772
0.198616, 265, -2038, -155, 816, 637, 1772
0.198749, 265, -2038, -155, 816, 637, 1772
0.198883, 843, -1990, -514, 607, 655, 1377
0.199016, 843, -1990, -514, 607, 655, 1377
0.199150, 843, -1990, -514, 607, 655, 1377
0.199283, 843, -1990, -514, 607, 655, 1377
0.199417, 843, -1990, -514, 607, 655, 1377
0.199550, 843, -1990, -514, 607, 655, 1377
0.199683, 843, -1990, -514, 607, 655, 1377
0.199817, 843, -1990, -514, 607, 655, 1377
0.199950, 1387, -2016, -512, 270, 853, 676
0.200084, 1387, -2016, -512, 270, 853, 676
0.200217, 1387, -2016, -512, 270, 853, 676
0.200351, 1387, -2016, -512, 270, 853, 676
0.200485, 1387, -2016, -512, 270, 853, 676
0.200620, 1387, -2016, -512, 270, 853, 676
0.200755, 1387, -2016, -512, 270, 853, 676
0.200889, 1174, -2072, -35, 146, 1145, -160
0.201023, 1174, -2072, -35, 146, 1145, -160
0.201158, 1174, -2072, -35, 146, 1145, -160
0.201292, 1174, -2072, -35, 146, 1145, -160
0.201426, 1174, -2072, -35, 146, 1145, -160
0.201560, 1174, -2072, -35, 146, 1145, -160
0.201694, 1174, -2072, -35, 146, 1145, -160
0.201828, 1174, -2072, -35, 146, 1145, -160
0.201962, 610, -2065, 200, 236, 1464, -693
0.202097, 610, -2065, 200, 236, 1464, -693
0.202231, 610, -2065, 200, 236, 1464, -693
0.202365, 610, -2065, 200, 236, 1464, -693
0.202499, 610, -2065, 200, 236, 1464, -693
0.202633, 610, -2065, 200, 236, 1464, -693
0.202768, 610, -2065, 200, 236, 1464, -693
0.202902, 610, -2065, 200, 236, 1464, -693
0.203036, 295, -2054, 92, 279, 1789, -890
0.203170, 295, -2054, 92, 279, 1789, -890
0.203304, 295, -2054, 92, 279, 1789, -890
0.203438, 295, -2054, 92, 279, 1789, -890
0.203573, 295, -2054, 92, 279, 1789, -890
0.203707, 295, -2054, 92, 279, 1789, -890
0.203841, 295, -2054, 92, 279, 1789, -890
0.203975, -170, -2092, 271, 367, 2031, -899
0.204109, -170, -2092, 271, 367, 2031, -899
0.204243, -170, -2092, 271, 367, 2031, -899
0.204378, -170, -2092, 271, 367, 2031, -899
0.204512, -170, -2092, 271, 367, 2031, -899
0.204646, -170, -2092, 271, 367, 2031, -899
0.204780, -170, -2092, 271, 367, 2031, -899
0.204919, -170, -2092, 271, 367, 2031, -899
0.205053, -755, -2092, 513, 691, 2086, -597
0.205188, -755, -2092, 513, 691, 2086, -597
0.205322, -755, -2092, 513, 691, 2086, -597
0.205456, -755, -2092, 513, 691, 2086, -597
0.205590, -755, -2092, 513, 691, 2086, -597
0.205724, -755, -2092, 513, 691, 2086, -597
0.205858, -755, -2092, 513, 691, 2086, -597
0.205992, -775, -2074, 296, 1011, 1986, -67
0.206127, -775, -2074, 296, 1011, 1986, -67
0.206261, -775, -2074, 296, 1011, 1986, -67
0.206395, -775, -2074, 296, 1011, 1986, -67
0.206529, -775, -2074, 296, 1011, 1986, -67
0.206663, -775, -2074, 296, 1011, 1986, -67
0.206797, -775, -2074, 296, 1011, 1986, -67
0.206932, -775, -2074, 296, 1011, 1986, -67
0.207066, -259, -2091, -173, 1082, 1795, 283
0.207200, -259, -2091, -173, 1082, 1795, 283
0.207334, -259, -2091, -173, 1082, 1795, 283
0.207468, -259, -2091, -173, 1082, 1795, 283
0.207603, -259, -2091, -173, 1082, 1795, 283
0.207737, -259, -2091, -173, 1082, 1795, 283
0.207871, -259, -2091, -173, 1082, 1795, 283
0.208005, 141, -2084, -475, 947, 1551, 272
0.208139, 141, -2084, -475, 947, 1551, 272
0.208273, 141, -2084, -475, 947, 1551, 272
0.208408, 141, -2084, -475, 947, 1551, 272
0.208542, 141, -2084, -475, 947, 1551, 272
0.208676, 141, -2084, -475, 947, 1551, 272
0.208810, 141, -2084, -475, 947, 1551, 272
0.208945, 141, -2084, -475, 947, 1551, 272
0.209079, 256, -2049, -511, 736, 1344, 116
0.209213, 256, -2049, -511, 736, 1344, 116
0.209347, 256, -2049, -511, 736, 1344, 116
0.209481, 256, -2049, -511, 736, 1344, 116
0.209615, 256, -2049, -511, 736, 1344, 116
0.209750, 256, -2049, -511, 736, 1344, 116
0.209884, 256, -2049, -511, 736, 1344, 116
0.210018, 418, -2000, -588, 466, 1246, -34
0.210152, 418, -2000, -588, 466, 1246, -34
0.210286, 418, -2000, -588, 466, 1246, -34
0.210420, 418, -2000, -588, 466, 1246, -34
0.210555, 418, -2000, -588, 466, 1246, -34
0.210689, 418, -2000, -588, 466, 1246, -34
0.210823, 418, -2000, -588, 466, 1246, -34
0.210957, 418, -2000, -588, 466, 1246, -34
0.211091, 587, -1974, -681, 75, 1271, -252
0.211225, 587, -1974, -681, 75, 1271, -252
0.211359, 587, -1974, -681, 75, 1271, -252
0.211494, 587, -1974, -681, 75, 1271, -252
0.211628, 587, -1974, -681, 75, 1271, -252
0.211762, 587, -1974, -681, 75, 1271, -252
0.211896, 587, -1974, -681, 75, 1271, -252
0.212030, 587, -1974, -681, 75, 1271, -252
0.212164, 667, -2031, -371, -270, 1388, -540
0.212299, 667, -2031, -371, -270, 1388, -540
0.212433, 667, -2031, -371, -270, 1388, -540
0.212567, 667, -2031, -371, -270, 1388, -540
0.212704, 667, -2031, -371, -270, 1388, -540
0.212839, 667, -2031, -371, -270, 1388, -540
0.212973, 667, -2031, -371, -270, 1388, -540
0.213107, 769, -2081, -5, -329, 1540, -857
0.213241, 769, -2081, -5, -329, 1540, -857
0.213375, 769, -2081, -5, -329, 1540, -857
0.213509, 769, -2081, -5, -329, 1540, -857
0.213644, 769, -2081, -5, -329, 1540, -857
0.213778, 769, -2081, -5, -329, 1540, -857
0.213912, 769, -2081, -5, -329, 1540, -857
0.214046, 769, -2081, -5, -329, 1540, -857
0.214180, 791, -2025, -194, -317, 1717, -1210
0.214314, 791, -2025, -194, -317, 1717, -1210
0.214449, 791, -2025, -194, -317, 1717, -1210
0.214583, 791, -2025, -194, -317, 1717, -1210
0.214717, 791, -2025, -194, -317, 1717, -1210
0.214851, 791, -2025, -194, -317, 1717, -1210
0.214985, 791, -2025, -194, -317, 1717, -1210
0.215119, 535, -2021, -340, -490, 1926, -1520
0.215253, 535, -2021, -340, -490, 1926, -1520
0.215387, 535, -2021, -340, -490, 1926, -1520
0.215521, 535, -2021, -340, -490, 1926, -1520
0.215655, 535, -2021, -340, -490, 1926, -1520
0.215789, 535, -2021, -340, -490, 1926, -1520
0.215923, 535, -2021, -340, -490, 1926, -1520
0.216057, 535, -2021, -340, -490, 1926, -1520
0.216191, 53, -2147, 236, -448, 2101, -1604
0.216326, 53, -2147, 236, -448, 2101, -1604
0.216460, 53, -2147, 236, -448, 2101, -1604
0.216594, 53, -2147, 236, -448, 2101, -1604
0.216728, 53, -2147, 236, -448, 2101, -1604
0.216862, 53, -2147, 236, -448, 2101, -1604
0.216996, 53, -2147, 236, -448, 2101, -1604
0.217130, -212, -2152, 508, 0, 2157, -1413
0.217264, -212, -2152, 508, 0, 2157, -1413
0.217406, -212, -2152, 508, 0, 2157, -1413
0.217541, -212, -2152, 508, 0, 2157, -1413
0.217675, -212, -2152, 508, 0, 2157, -1413
0.217809, -212, -2152, 508, 0, 2157, -1413
0.217943, -212, -2152, 508, 0, 2157, -1413
0.218077, -212, -2152, 508, 0, 2157, -1413
0.218211, 286, -2003, -129, 224, 2144, -1250
0.218345, 286, -2003, -129, 224, 2144, -1250
0.218479, 286, -2003, -129, 224, 2144, -1250
0.218613, 286, -2003, -129, 224, 2144, -1250
0.218747, 286, -2003, -129, 224, 2144, -1250
0.218881, 286, -2003, -129, 224, 2144, -1250
0.219015, 286, -2003, -129, 224, 2144, -1250
0.219149, 1058, -1978, -515, 30, 2136, -1544
0.219283, 1058, -1978, -515, 30, 2136, -1544
0.219417, 1058, -1978, -515, 30, 2136, -1544
0.219551, 1058, -1978, -515, 30, 2136, -1544
0.219685, 1058, -1978, -515, 30, 2136, -1544
0.219819, 1058, -1978, -515, 30, 2136, -1544
0.219953, 1058, -1978, -515, 30, 2136, -1544
0.220087, 1058, -1978, -515, 30, 2136, -1544
0.220221, 968, -2098, -108, -51, 2129, -2168
0.220356, 968, -2098, -108, -51, 2129, -2168
0.220490, 968, -2098, -108, -51, 2129, -2168
0.220624, 968, -2098, -108, -51, 2129, -2168
0.220758, 968, -2098, -108, -51, 2129, -2168
0.220892, 968, -2098, -108, -51, 2129, -2168
0.221027, 968, -2098, -108, -51, 2129, -2168
0.221161, 336, -2133, 431, 212, 2136, -2540
0.221295, 336, -2133, 431, 212, 2136, -2540
0.221429, 336, -2133, 431, 212, 2136, -2540
0.221563, 336, -2133, 431, 212, 2136, -2540
0.221697, 336, -2133, 431, 212, 2136, -2540
0.221832, 336, -2133, 431, 212, 2136, -2540
0.221966, 336, -2133, 431, 212, 2136, -2540
0.222100, 336, -2133, 431, 212, 2136, -2540
0.222234, 255, -1995, -24, 421, 2173, -2579
0.222368, 255, -1995, -24, 421, 2173, -2579
0.222503, 255, -1995, -24, 421, 2173, -2579
0.222637, 255, -1995, -24, 421, 2173, -2579
0.222771, 255, -1995, -24, 421, 2173, -2579
0.222905, 255, -1995, -24, 421, 2173, -2579
0.223039, 255, -1995, -24, 421, 2173, -2579
0.223173, 255, -1995, -24, 421, 2173, -2579
0.223307, 519, -1913, -1161, -25, 2255, -2677
0.223442, 519, -1913, -1161, -25, 2255, -2677
0.223576, 519, -1913, -1161, -25, 2255, -2677
0.223710, 519, -1913, -1161, -25, 2255, -2677
0.223844, 519, -1913, -1161, -25, 2255, -2677
0.223978, 519, -1913, -1161, -25, 2255, -2677
0.224113, 519, -1913, -1161, -25, 2255, -2677
0.224247, 471, -2132, -475, -590, 2305, -2909
0.224381, 471, -2132, -475, -590, 2305, -2909
0.224515, 471, -2132, -475, -590, 2305, -2909
0.224650, 471, -2132, -475, -590, 2305, -2909
0.224784, 471, -2132, -475, -590, 2305, -2909
0.224918, 471, -2132, -475, -590, 2305, -2909
0.225052, 471, -2132, -475, -590, 2305, -2909
0.225186, 471, -2132, -475, -590, 2305, -2909
0.225321, 240, -2270, 1188, -128, 2172, -3065
0.225455, 240, -2270, 1188, -128, 2172, -3065
0.225589, 240, -2270, 1188, -128, 2172, -3065
0.225723, 240, -2270, 1188, -128, 2172, -3065
0.225857, 240, -2270, 1188, -128, 2172, -3065
0.225992, 240, -2270, 1188, -128, 2172, -3065
0.226126, 240, -2270, 1188, -128, 2172, -3065
0.226260, -6, -2078, 834, 636, 2048, -3106
0.226394, -6, -2078, 834, 636, 2048, -3106
0.226528, -6, -2078, 834, 636, 2048, -3106
0.226663, -6, -2078, 834, 636, 2048, -3106
0.226797, -6, -2078, 834, 636, 2048, -3106
0.226931, -6, -2078, 834, 636, 2048, -3106
0.227065, -6, -2078, 834, 636, 2048, -3106
0.227199, -6, -2078, 834, 636, 2048, -3106
0.227333, -339, -2008, 123, 760, 2151, -2991
0.227468, -339, -2008, 123, 760, 2151, -2991
0.227602, -339, -2008, 123, 760, 2151, -2991
0.227736, -339, -2008, 123, 760, 2151, -2991
0.227870, -339, -2008, 123, 760, 2151, -2991
0.228004, -339, -2008, 123, 760, 2151, -2991
0.228138, -339, -2008, 123, 760, 2151, -2991
0.228272, -149, -2031, 177, 950, 2171, -2739
0.228407, -149, -2031, 177, 950, 2171, -2739
0.228541, -149, -2031, 177, 950, 2171, -2739
0.228675, -149, -2031, 177, 950, 2171, -2739
0.228810, -149, -2031, 177, 950, 2171, -2739
0.228944, -149, -2031, 177, 950, 2171, -2739
0.229078, -149, -2031, 177, 950, 2171, -2739
0.229212, -149, -2031, 177, 950, 2171, -2739
0.229346, 466, -1997, -496, 1109, 1994, -2756
0.229480, 466, -1997, -496, 1109, 1994, -2756
0.229614, 466, -1997, -496, 1109, 1994, -2756
0.229753, 466, -1997, -496, 1109, 1994, -2756
0.229887, 466, -1997, -496, 1109, 1994, -2756
0.230021, 466, -1997, -496, 1109, 1994, -2756
0.230156, 466, -1997, -496, 1109, 1994, -2756
0.230290, -87, -2110, -436, 842, 1901, -2985
0.230424, -87, -2110, -436, 842, 1901, -2985
0.230558, -87, -2110, -436, 842, 1901, -2985
0.230692, -87, -2110, -436, 842, 1901, -2985
0.230826, -87, -2110, -436, 842, 1901, -2985
0.230961, -87, -2110, -436, 842, 1901, -2985
0.231095, -87, -2110, -436, 842, 1901, -2985
0.231229, -87, -2110, -436, 842, 1901, -2985
0.231363, -1428, -2214, 792, 1057, 1820, -2563
0.231497, -1428, -2214, 792, 1057, 1820, -2563
0.231632, -1428, -2214, 792, 1057, 1820, -2563
0.231766, -1428, -2214, 792, 1057, 1820, -2563
0.231900, -1428, -2214, 792, 1057, 1820, -2563
0.232034, -1428, -2214, 792, 1057, 1820, -2563
0.232168, -1428, -2214, 792, 1057, 1820, -2563
0.232302, -1428, -2214, 792, 1057, 1820, -2563
0.232436, -1491, -2085, 577, 1602, 1671, -1504
0.232576, -1491, -2085, 577, 1602, 1671, -1504
0.232710, -1491, -2085, 577, 1602, 1671, -1504
0.232844, -1491, -2085, 577, 1602, 1671, -1504
0.232979, -1491, -2085, 577, 1602, 1671, -1504
0.233113, -1491, -2085, 577, 1602, 1671, -1504
0.233247, -1491, -2085, 577, 1602, 1671, -1504
0.233381, -567, -1943, -614, 1408, 1621, -792
0.233515, -567, -1943, -614, 1408, 1621, -792
0.233650, -567, -1943, -614, 1408, 1621, -792
0.233784, -567, -1943, -614, 1408, 1621, -792
0.233918, -567, -1943, -614, 1408, 1621, -792
0.234052, -567, -1943, -614, 1408, 1621, -792
0.234186, -567, -1943, -614, 1408, 1621, -792
0.234320, -567, -1943, -614, 1408, 1621, -792
0.234454, -80, -1988, -691, 912, 1544, -681
0.234589, -80, -1988, -691, 912, 1544, -681
0.234723, -80, -1988, -691, 912, 1544, -681
0.234857, -80, -1988, -691, 912, 1544, -681
0.234991, -80, -1988, -691, 912, 1544, -681
0.235125, -80, -1988, -691, 912, 1544, -681
0.235259, -80, -1988, -691, 912, 1544, -681
0.235393, 257, -2040, -374, 769, 1287, -806
0.235528, 257, -2040, -374, 769, 1287, -806
0.235662, 257, -2040, -374, 769, 1287, -806
0.235796, 257, -2040, -374, 769, 1287, -806
0.235930, 257, -2040, -374, 769, 1287, -806
0.236064, 257, -2040, -374, 769, 1287, -806
0.236198, 257, -2040, -374, 769, 1287, -806
0.236332, 257, -2040, -374, 769, 1287, -806
0.236466, 714, -2062, -312, 635, 1091, -1156
0.236601, 714, -2062, -312, 635, 1091, -1156
0.236735, 714, -2062, -312, 635, 1091, -1156
0.236869, 714, -2062, -312, 635, 1091, -1156
0.237003, 714, -2062, -312, 635, 1091, -1156
0.237138, 714, -2062, -312, 635, 1091, -1156
0.237272, 714, -2062, -312, 635, 1091, -1156
0.237406, 451, -2137, 280, 563, 1125, -1626
0.237540, 451, -2137, 280, 563, 1125, -1626
0.237674, 451, -2137, 280, 563, 1125, -1626
0.237808, 451, -2137, 280, 563, 1125, -1626
0.237942, 451, -2137, 280, 563, 1125, -1626
0.238077, 451, -2137, 280, 563, 1125, -1626
0.238211, 451, -2137, 280, 563, 1125, -1626
0.238345, 451, -2137, 280, 563, 1125, -1626
0.238479, 28, -2137, 519, 812, 1276, -1802
0.238613, 28, -2137, 519, 812, 1276, -1802
0.238747, 28, -2137, 519, 812, 1276, -1802
0.238881, 28, -2137, 519, 812, 1276, -1802
0.239016, 28, -2137, 519, 812, 1276, -1802
0.239150, 28, -2137, 519, 812, 1276, -1802
0.239284, 28, -2137, 519, 812, 1276, -1802
0.239418, 275, -2015, -370, 826, 1500, -1820
0.239552, 275, -2015, -370, 826, 1500, -1820
0.239686, 275, -2015, -370, 826, 1500, -1820
0.239821, 275, -2015, -370, 826, 1500, -1820
0.239955, 275, -2015, -370, 826, 1500, -1820
0.240089, 275, -2015, -370, 826, 1500, -1820
0.240223, 275, -2015, -370, 826, 1500, -1820
0.240357, 275, -2015, -370, 826, 1500, -1820
0.240491, 197, -1971, -775, 426, 1738, -1962
0.240626, 197, -1971, -775, 426, 1738, -1962
0.240760, 197, -1971, -775, 426, 1738, -1962
0.240894, 197, -1971, -775, 426, 1738, -1962
0.241028, 197, -1971, -775, 426, 1738, -1962
0.241162, 197, -1971, -775, 426, 1738, -1962
0.241296, 197, -1971, -775, 426, 1738, -1962
0.241430, 197, -1971, -775, 426, 1738, -1962
0.241564, -408, -2030, -337, 176, 1814, -1905
0.241699, -408, -2030, -337, 176, 1814, -1905
0.241837, -408, -2030, -337, 176, 1814, -1905
0.241972, -408, -2030, -337, 176, 1814, -1905
0.242106, -408, -2030, -337, 176, 1814, -1905
0.242240, -408, -2030, -337, 176, 1814, -1905
0.242374, -408, -2030, -337, 176, 1814, -1905
0.242508, -489, -2010, -286, 54, 1768, -1511
0.242642, -489, -2010, -286, 54, 1768, -1511
0.242776, -489, -2010, -286, 54, 1768, -1511
0.242911, -489, -2010, -286, 54, 1768, -1511
0.243045, -489, -2010, -286, 54, 1768, -1511
0.243179, -489, -2010, -286, 54, 1768, -1511
0.243313, -489, -2010, -286, 54, 1768, -1511
0.243447, -489, -2010, -286, 54, 1768, -1511
0.243581, 487, -1944, -726, -338, 1755, -1299
0.243716, 487, -1944, -726, -338, 1755, -1299
0.243850, 487, -1944, -726, -338, 1755, -1299
0.243984, 487, -1944, -726, -338, 1755, -1299
0.244118, 487, -1944, -726, -338, 1755, -1299
0.244252, 487, -1944, -726, -338, 1755, -1299
0.244386, 487, -1944, -726, -338, 1755, -1299
0.244520, 1702, -1992, -812, -856, 1797, -1826
0.244655, 1702, -1992, -812, -856, 1797, -1826
0.244789, 1702, -1992, -812, -856, 1797, -1826
0.244924, 1702, -1992, -812, -856, 1797, -1826
0.245058, 1702, -1992, -812, -856, 1797, -1826
0.245192, 1702, -1992, -812, -856, 1797, -1826
0.245326, 1702, -1992, -812, -856, 1797, -1826
0.245460, 1702, -1992, -812, -856, 1797, -1826
0.245594, 1797, -2097, -210, -1081, 1912, -2895
0.245728, 1797, -2097, -210, -1081, 1912, -2895
0.245862, 1797, -2097, -210, -1081, 1912, -2895
0.245997, 1797, -2097, -210, -1081, 1912, -2895
0.246131, 1797, -2097, -210, -1081, 1912, -2895
0.246265, 1797, -2097, -210, -1081, 1912, -2895
0.246399, 1797, -2097, -210, -1081, 1912, -2895
0.246533, 461, -2143, 474, -922, 2167, -3614
0.246668, 461, -2143, 474, -922, 2167, -3614
0.246802, 461, -2143, 474, -922, 2167, -3614
0.246936, 461, -2143, 474, -922, 2167, -3614
0.247070, 461, -2143, 474, -922, 2167, -3614
0.247204, 461, -2143, 474, -922, 2167, -3614
0.247338, 461, -2143, 474, -922, 2167, -3614
0.247472, 461, -2143, 474, -922, 2167, -3614
0.247607, -1187, -2120, 539, -645, 2490, -3295
0.247741, -1187, -2120, 539, -645, 2490, -3295
0.247875, -1187, -2120, 539, -645, 2490, -3295
0.248009, -1187, -2120, 539, -645, 2490, -3295
0.248143, -1187, -2120, 539, -645, 2490, -3295
0.248277, -1187, -2120, 539, -645, 2490, -3295
0.248412, -1187, -2120, 539, -645, 2490, -3295
0.248546, -1362, -2057, 25, -577, 2616, -2241
0.248680, -1362, -2057, 25, -577, 2616, -2241
0.248814, -1362, -2057, 25, -577, 2616, -2241
0.248949, -1362, -2057, 25, -577, 2616, -2241
0.249083, -1362, -2057, 25, -577, 2616, -2241
0.249217, -1362, -2057, 25, -577, 2616, -2241
0.249351, -1362, -2057, 25, -577, 2616, -2241
0.249485, -1362, -2057, 25, -577, 2616, -2241
0.249619, 85, -2013, -380, -679, 2412, -1565
0.249754, 85, -2013, -380, -679, 2412, -1565
0.249888, 85, -2013, -380, -679, 2412, -1565
0.250022, 85, -2013, -380, -679, 2412, -1565
0.250156, 85, -2013, -380, -679, 2412, -1565
0.250290, 85, -2013, -380, -679, 2412, -1565
0.250424, 85, -2013, -380, -679, 2412, -1565
0.250559, 1194, -2025, -392, -789, 2050, -1943
0.250693, 1194, -2025, -392, -789, 2050, -1943
0.250827, 1194, -2025, -392, -789, 2050, -1943
0.250961, 1194, -2025, -392, -789, 2050, -1943
0.251095, 1194, -2025, -392, -789, 2050, -1943
0.251230, 1194, -2025, -392, -789, 2050, -1943
0.251364, 1194, -2025, -392, -789, 2050, -1943
0.251498, 1194, -2025, -392, -789, 2050, -1943
0.251632, 88, -2175, 559, -625, 1839, -2568
0.251767, 88, -2175, 559, -625, 1839, -2568
0.251901, 88, -2175, 559, -625, 1839, -2568
0.252035, 88, -2175, 559, -625, 1839, -2568
0.252169, 88, -2175, 559, -625, 1839, -2568
0.252303, 88, -2175, 559, -625, 1839, -2568
0.252437, 88, -2175, 559, -625, 1839, -2568
0.252575, 88, -2175, 559, -625, 1839, -2568
0.252709, -1333, -2211, 1151, 23, 1821, -2171
0.252844, -1333, -2211, 1151, 23, 1821, -2171
0.252978, -1333, -2211, 1151, 23, 1821, -2171
0.253112, -1333, -2211, 1151, 23, 1821, -2171
0.253246, -1333, -2211, 1151, 23, 1821, -2171
0.253380, -1333, -2211, 1151, 23, 1821, -2171
0.253514, -1333, -2211, 1151, 23, 1821, -2171
0.253648, -236, -1955, -263, 251, 1868, -1370
0.253783, -236, -1955, -263, 251, 1868, -1370
0.253921, -236, -1955, -263, 251, 1868, -1370
0.254056, -236, -1955, -263, 251, 1868, -1370
0.254190, -236, -1955, -263, 251, 1868, -1370
0.254324, -236, -1955, -263, 251, 1868, -1370
0.254458, -236, -1955, -263, 251, 1868, -1370
0.254593, -236, -1955, -263, 251, 1868, -1370
0.254727, 1178, -1884, -1150, -302, 1941, -1567
0.254861, 1178, -1884, -1150, -302, 1941, -1567
0.254995, 1178, -1884, -1150, -302, 1941, -1567
0.255129, 1178, -1884, -1150, -302, 1941, -1567
0.255264, 1178, -1884, -1150, -302, 1941, -1567
0.255398, 1178, -1884, -1150, -302, 1941, -1567
0.255532, 1178, -1884, -1150, -302, 1941, -1567
0.255666, 1116, -2024, -535, -633, 1882, -2350
0.255800, 1116, -2024, -535, -633, 1882, -2350
0.255934, 1116, -2024, -535, -633, 1882, -2350
0.256069, 1116, -2024, -535, -633, 1882, -2350
0.256203, 1116, -2024, -535, -633, 1882, -2350
0.256337, 1116, -2024, -535, -633, 1882, -2350
0.256471, 1116, -2024, -535, -633, 1882, -2350
0.256605, 1116, -2024, -535, -633, 1882, -2350
0.256750, 738, -2067, -204, -662, 1742, -2913
0.256897, 738, -2067, -204, -662, 1742, -2913
0.257039, 738, -2067, -204, -662, 1742, -2913
0.257181, 738, -2067, -204, -662, 1742, -2913
0.257323, 738, -2067, -204, -662, 1742, -2913
0.257462, 738, -2067, -204, -662, 1742, -2913
0.257602, 738, -2067, -204, -662, 1742, -2913
0.257740, -194, -2140, 348, -685, 1776, -3098
0.257879, -194, -2140, 348, -685, 1776, -3098
0.258023, -194, -2140, 348, -685, 1776, -3098
0.258167, -194, -2140, 348, -685, 1776, -3098
0.258308, -194, -2140, 348, -685, 1776, -3098
0.258455, -194, -2140, 348, -685, 1776, -3098
0.258594, -194, -2140, 348, -685, 1776, -3098
0.258737, -726, -2128, 834, -337, 1885, -2685
0.258877, -726, -2128, 834, -337, 1885, -2685
0.259017, -726, -2128, 834, -337, 1885, -2685
0.259162, -726, -2128, 834, -337, 1885, -2685
0.259304, -726, -2128, 834, -337, 1885, -2685
0.259443, -726, -2128, 834, -337, 1885, -2685
0.259584, -726, -2128, 834, -337, 1885, -2685
0.259725, -158, -2046, 270, 15, 1925, -2257
0.259870, -158, -2046, 270, 15, 1925, -2257
0.260009, -158, -2046, 270, 15, 1925, -2257
0.260149, -158, -2046, 270, 15, 1925, -2257
0.260291, -158, -2046, 270, 15, 1925, -2257
0.260429, -158, -2046, 270, 15, 1925, -2257
0.260564, -158, -2046, 270, 15, 1925, -2257
0.260705, -358, -2142, 356, 189, 1931, -2200
0.260845, -358, -2142, 356, 189, 1931, -2200
0.260987, -358, -2142, 356, 189, 1931, -2200
0.261129, -358, -2142, 356, 189, 1931, -2200
0.261270, -358, -2142, 356, 189, 1931, -2200
0.261412, -358, -2142, 356, 189, 1931, -2200
0.261552, -358, -2142, 356, 189, 1931, -2200
0.261692, -358, -2142, 356, 189, 1931, -2200
0.261834, -959, -2139, 624, 632, 1778, -1877
0.261981, -959, -2139, 624, 632, 1778, -1877
0.262121, -959, -2139, 624, 632, 1778, -1877
0.262261, -959, -2139, 624, 632, 1778, -1877
0.262402, -959, -2139, 624, 632, 1778, -1877
0.262544, -959, -2139, 624, 632, 1778, -1877
0.262685, -959, -2139, 624, 632, 1778, -1877
0.262827, -625, -2031, -68, 862, 1535, -1332
0.262970, -625, -2031, -68, 862, 1535, -1332
0.263111, -625, -2031, -68, 862, 1535, -1332
0.263251, -625, -2031, -68, 862, 1535, -1332
0.263394, -625, -2031, -68, 862, 1535, -1332
0.263536, -625, -2031, -68, 862, 1535, -1332
0.263679, -625, -2031, -68, 862, 1535, -1332
0.263820, 412, -2007, -433, 673, 1358, -1197
0.263967, 412, -2007, -433, 673, 1358, -1197
0.264107, 412, -2007, -433, 673, 1358, -1197
0.264249, 412, -2007, -433, 673, 1358, -1197
0.264390, 412, -2007, -433, 673, 1358, -1197
0.264533, 412, -2007, -433, 673, 1358, -1197
0.264674, 412, -2007, -433, 673, 1358, -1197
0.264814, 1475, -1939, -664, 431, 1168, -1772
0.264957, 1475, -1939, -664, 431, 1168, -1772
0.265101, 1475, -1939, -664, 431, 1168, -1772
0.265248, 1475, -1939, -664, 431, 1168, -1772
0.265394, 1475, -1939, -664, 431, 1168, -1772
0.265536, 1475, -1939, -664, 431, 1168, -1772
0.265681, 1475, -1939, -664, 431, 1168, -1772
0.265828, 1422, -1947, -919, 3, 1143, -2766
0.265970, 1422, -1947, -919, 3, 1143, -2766
0.266107, 1422, -1947, -919, 3, 1143, -2766
0.266248, 1422, -1947, -919, 3, 1143, -2766
0.266425, 1422, -1947, -919, 3, 1143, -2766
0.266565, 1422, -1947, -919, 3, 1143, -2766
0.266707, 1422, -1947, -919, 3, 1143, -2766
0.266849, 544, -2063, -541, -439, 1478, -3356
0.266990, 544, -2063, -541, -439, 1478, -3356
0.267129, 544, -2063, -541, -439, 1478, -3356
0.267267, 544, -2063, -541, -439, 1478, -3356
0.267402, 544, -2063, -541, -439, 1478, -3356
0.267536, 544, -2063, -541, -439, 1478, -3356
0.267669, 544, -2063, -541, -439, 1478, -3356
0.267802, 143, -2044, -272, -613, 1980, -3350
0.267936, 143, -2044, -272, -613, 1980, -3350
0.268070, 143, -2044, -272, -613, 1980, -3350
0.268203, 143, -2044, -272, -613, 1980, -3350
0.268337, 143, -2044, -272, -613, 1980, -3350
0.268470, 143, -2044, -272, -613, 1980, -3350
0.268637, 143, -2044, -272, -613, 1980, -3350
0.268777, 143, -2044, -272, -613, 1980, -3350
0.268914, -160, -2079, -40, -699, 2396, -3161
0.269049, -160, -2079, -40, -699, 2396, -3161
0.269183, -160, -2079, -40, -699, 2396, -3161
0.269317, -160, -2079, -40, -699, 2396, -3161
0.269451, -160, -2079, -40, -699, 2396, -3161
0.269585, -160, -2079, -40, -699, 2396, -3161
0.269719, -160, -2079, -40, -699, 2396, -3161
0.269853, -450, -2151, 436, -594, 2568, -2838
0.269988, -450, -2151, 436, -594, 2568, -2838
0.270122, -450, -2151, 436, -594, 2568, -2838
0.270256, -450, -2151, 436, -594, 2568, -2838
0.270390, -450, -2151, 436, -594, 2568, -2838
0.270524, -450, -2151, 436, -594, 2568, -2838
0.270658, -450, -2151, 436, -594, 2568, -2838
0.270792, -450, -2151, 436, -594, 2568, -2838
0.270925, -124, -1999, 175, -369, 2491, -2531
0.271060, -124, -1999, 175, -369, 2491, -2531
0.271194, -124, -1999, 175, -369, 2491, -2531
0.271328, -124, -1999, 175, -369, 2491, -2531
0.271461, -124, -1999, 175, -369, 2491, -2531
0.271595, -124, -1999, 175, -369, 2491, -2531
0.271729, -124, -1999, 175, -369, 2491, -2531
0.271863, 74, -1998, 25, -309, 2356, -2500
0.271998, 74, -1998, 25, -309, 2356, -2500
0.272132, 74, -1998, 25, -309, 2356, -2500
0.272266, 74, -1998, 25, -309, 2356, -2500
0.272400, 74, -1998, 25, -309, 2356, -2500
0.272534, 74, -1998, 25, -309, 2356, -2500
0.272668, 74, -1998, 25, -309, 2356, -2500
0.272802, 74, -1998, 25, -309, 2356, -2500
0.272936, -617, -2168, 371, -100, 2233, -2443
0.273070, -617, -2168, 371, -100, 2233, -2443
0.273204, -617, -2168, 371, -100, 2233, -2443
0.273338, -617, -2168, 371, -100, 2233, -2443
0.273472, -617, -2168, 371, -100, 2233, -2443
0.273605, -617, -2168, 371, -100, 2233, -2443
0.273741, -617, -2168, 371, -100, 2233, -2443
0.273876, -1355, -2184, 395, 230, 2086, -1883
0.274011, -1355, -2184, 395, 230, 2086, -1883
0.274145, -1355, -2184, 395, 230, 2086, -1883
0.274279, -1355, -2184, 395, 230, 2086, -1883
0.274413, -1355, -2184, 395, 230, 2086, -1883
0.274547, -1355, -2184, 395, 230, 2086, -1883
0.274681, -1355, -2184, 395, 230, 2086, -1883
0.274815, -1355, -2184, 395, 230, 2086, -1883
0.274949, -925, -2078, 538, 525, 1916, -1077
0.275083, -925, -2078, 538, 525, 1916, -1077
0.275217, -925, -2078, 538, 525, 1916, -1077
0.275351, -925, -2078, 538, 525, 1916, -1077
0.275485, -925, -2078, 538, 525, 1916, -1077
0.275619, -925, -2078, 538, 525, 1916, -1077
0.275753, -925, -2078, 538, 525, 1916, -1077
0.275887, -925, -2078, 538, 525, 1916, -1077
0.276021, -254, -1988, 354, 857, 1668, -738
0.276155, -254, -1988, 354, 857, 1668, -738
0.276289, -254, -1988, 354, 857, 1668, -738
0.276423, -254, -1988, 354, 857, 1668, -738
0.276557, -254, -1988, 354, 857, 1668, -738
0.276692, -254, -1988, 354, 857, 1668, -738
0.276826, -254, -1988, 354, 857, 1668, -738
0.276960, -480, -2089, -56, 976, 1467, -704
0.277094, -480, -2089, -56, 976, 1467, -704
0.277228, -480, -2089, -56, 976, 1467, -704
0.277358, -480, -2089, -56, 976, 1467, -704
0.277493, -480, -2089, -56, 976, 1467, -704
0.277627, -480, -2089, -56, 976, 1467, -704
0.277761, -480, -2089, -56, 976, 1467, -704
0.277895, -480, -2089, -56, 976, 1467, -704
0.278029, -453, -2193, 14, 968, 1370, -499
0.278163, -453, -2193, 14, 968, 1370, -499
0.278297, -453, -2193, 14, 968, 1370, -499
0.278431, -453, -2193, 14, 968, 1370, -499
0.278565, -453, -2193, 14, 968, 1370, -499
0.278724, -453, -2193, 14, 968, 1370, -499
0.278859, -453, -2193, 14, 968, 1370, -499
0.278993, 159, -2080, -35, 1011, 1247, -433
0.279127, 159, -2080, -35, 1011, 1247, -433
0.279262, 159, -2080, -35, 1011, 1247, -433
0.279395, 159, -2080, -35, 1011, 1247, -433
0.279530, 159, -2080, -35, 1011, 1247, -433
0.279663, 159, -2080, -35, 1011, 1247, -433
0.279797, 159, -2080, -35, 1011, 1247, -433
0.279931, 159, -2080, -35, 1011, 1247, -433
0.280065, 529, -1943, -391, 930, 1178, -719
0.280199, 529, -1943, -391, 930, 1178, -719
0.280333, 529, -1943, -391, 930, 1178, -719
0.280467, 529, -1943, -391, 930, 1178, -719
0.280602, 529, -1943, -391, 930, 1178, -719
0.280736, 529, -1943, -391, 930, 1178, -719
0.280870, 529, -1943, -391, 930, 1178, -719
0.281004, 540, -1918, -756, 613, 1253, -1125
0.281138, 540, -1918, -756, 613, 1253, -1125
0.281272, 540, -1918, -756, 613, 1253, -1125
0.281407, 540, -1918, -756, 613, 1253, -1125
0.281541, 540, -1918, -756, 613, 1253, -1125
0.281675, 540, -1918, -756, 613, 1253, -1125
0.281809, 540, -1918, -756, 613, 1253, -1125
0.281943, 540, -1918, -756, 613, 1253, -1125
0.282077, 289, -1950, -915, 118, 1417, -1402
0.282211, 289, -1950, -915, 118, 1417, -1402
0.282340, 289, -1950, -915, 118, 1417, -1402
0.282476, 289, -1950, -915, 118, 1417, -1402
0.282611, 289, -1950, -915, 118, 1417, -1402
0.282745, 289, -1950, -915, 118, 1417, -1402
0.282879, 289, -1950, -915, 118, 1417, -1402
0.283013, 82, -2094, -420, -276, 1595, -1453
0.283148, 82, -2094, -420, -276, 1595, -1453
0.283282, 82, -2094, -420, -276, 1595, -1453
0.283416, 82, -2094, -420, -276, 1595, -1453
0.283550, 82, -2094, -420, -276, 1595, -1453
0.283680, 82, -2094, -420, -276, 1595, -1453
0.283814, 82, -2094, -420, -276, 1595, -1453
0.283948, 82, -2094, -420, -276, 1595, -1453
0.284082, -279, -2179, 324, -221, 1715, -1350
0.284217, -279, -2179, 324, -221, 1715, -1350
0.284351, -279, -2179, 324, -221, 1715, -1350
0.284485, -279, -2179, 324, -221, 1715, -1350
0.284621, -279, -2179, 324, -221, 1715, -1350
0.284755, -279, -2179, 324, -221, 1715, -1350
0.284889, -279, -2179, 324, -221, 1715, -1350
0.285023, -711, -2098, 284, 26, 1733, -1028
0.285157, -711, -2098, 284, 26, 1733, -1028
0.285291, -711, -2098, 284, 26, 1733, -1028
0.285426, -711, -2098, 284, 26, 1733, -1028
0.285560, -711, -2098, 284, 26, 1733, -1028
0.285694, -711, -2098, 284, 26, 1733, -1028
0.285828, -711, -2098, 284, 26, 1733, -1028
0.285962, -711, -2098, 284, 26, 1733, -1028
0.286097, -866, -2114, 266, 146, 1661, -527
0.286231, -866, -2114, 266, 146, 1661, -527
0.286365, -866, -2114, 266, 146, 1661, -527
0.286499, -866, -2114, 266, 146, 1661, -527
0.286634, -866, -2114, 266, 146, 1661, -527
0.286768, -866, -2114, 266, 146, 1661, -527
0.286902, -866, -2114, 266, 146, 1661, -527
0.287036, -866, -2114, 266, 146, 1661, -527
0.287170, -1001, -2136, 915, 502, 1471, 9
0.287304, -1001, -2136, 915, 502, 1471, 9
0.287439, -1001, -2136, 915, 502, 1471, 9
0.287573, -1001, -2136, 915, 502, 1471, 9
0.287707, -1001, -2136, 915, 502, 1471, 9
0.287841, -1001, -2136, 915, 502, 1471, 9
0.287975, -1001, -2136, 915, 502, 1471, 9
0.288109, -1109, -2123, 1151, 1163, 1171, 575
0.288244, -1109, -2123, 1151, 1163, 1171, 575
0.288378, -1109, -2123, 1151, 1163, 1171, 575
0.288512, -1109, -2123, 1151, 1163, 1171, 575
0.288646, -1109, -2123, 1151, 1163, 1171, 575
0.288781, -1109, -2123, 1151, 1163, 1171, 575
0.288915, -1109, -2123, 1151, 1163, 1171, 575
0.289049, -1109, -2123, 1151, 1163, 1171, 575
0.289183, -1359, -2155, 626, 1680, 912, 1182
0.289317, -1359, -2155, 626, 1680, 912, 1182
0.289452, -1359, -2155, 626, 1680, 912, 1182
0.289586, -1359, -2155, 626, 1680, 912, 1182
0.289720, -1359, -2155, 626, 1680, 912, 1182
0.289854, -1359, -2155, 626, 1680, 912, 1182
0.289988, -1359, -2155, 626, 1680, 912, 1182
0.290122, -1524, -2138, -68, 1852, 742, 1953
0.290257, -1524, -2138, -68, 1852, 742, 1953
0.290391, -1524, -2138, -68, 1852, 742, 1953
0.290525, -1524, -2138, -68, 1852, 742, 1953
0.290659, -1524, -2138, -68, 1852, 742, 1953
0.290793, -1524, -2138, -68, 1852, 742, 1953
0.290927, -1524, -2138, -68, 1852, 742, 1953
0.291071, -1524, -2138, -68, 1852, 742, 1953
0.291206, -584, -2072, -538, 1766, 529, 2639
0.291341, -584, -2072, -538, 1766, 529, 2639
0.291475, -584, -2072, -538, 1766, 529, 2639
0.291609, -584, -2072, -538, 1766, 529, 2639
0.291743, -584, -2072, -538, 1766, 529, 2639
0.291877, -584, -2072, -538, 1766, 529, 2639
0.292011, -584, -2072, -538, 1766, 529, 2639
0.292146, 1177, -1980, -895, 1456, 230, 2492
0.292280, 1177, -1980, -895, 1456, 230, 2492
0.292414, 1177, -1980, -895, 1456, 230, 2492
0.292548, 1177, -1980, -895, 1456, 230, 2492
0.292683, 1177, -1980, -895, 1456, 230, 2492
0.292817, 1177, -1980, -895, 1456, 230, 2492
0.292951, 1177, -1980, -895, 1456, 230, 2492
0.293085, 1177, -1980, -895, 1456, 230, 2492
0.293219, 2034, -1928, -1071, 940, 68, 1392
0.293353, 2034, -1928, -1071, 940, 68, 1392
0.293488, 2034, -1928, -1071, 940, 68, 1392
0.293622, 2034, -1928, -1071, 940, 68, 1392
0.293756, 2034, -1928, -1071, 940, 68, 1392
0.293890, 2034, -1928, -1071, 940, 68, 1392
0.294024, 2034, -1928, -1071, 940, 68, 1392
0.294158, 1463, -1904, -968, 368, 255, 221
0.294293, 1463, -1904, -968, 368, 255, 221
0.294427, 1463, -1904, -968, 368, 255, 221
0.294561, 1463, -1904, -968, 368, 255, 221
0.294695, 1463, -1904, -968, 368, 255, 221
0.294829, 1463, -1904, -968, 368, 255, 221
0.294963, 1463, -1904, -968, 368, 255, 221
0.295097, 1463, -1904, -968, 368, 255, 221
0.295231, 722, -1913, -770, -197, 686, -316
0.295366, 722, -1913, -770, -197, 686, -316
0.295500, 722, -1913, -770, -197, 686, -316
0.295634, 722, -1913, -770, -197, 686, -316
0.295768, 722, -1913, -770, -197, 686, -316
0.295902, 722, -1913, -770, -197, 686, -316
0.296037, 722, -1913, -770, -197, 686, -316
0.296171, 474, -2038, -250, -595, 1114, -417
0.296305, 474, -2038, -250, -595, 1114, -417
0.296439, 474, -2038, -250, -595, 1114, -417
0.296579, 474, -2038, -250, -595, 1114, -417
0.296714, 474, -2038, -250, -595, 1114, -417
0.296848, 474, -2038, -250, -595, 1114, -417
0.296982, 474, -2038, -250, -595, 1114, -417
0.297116, 474, -2038, -250, -595, 1114, -417
0.297250, 298, -2062, 124, -606, 1348, -445
0.297385, 298, -2062, 124, -606, 1348, -445
0.297519, 298, -2062, 124, -606, 1348, -445
0.297653, 298, -2062, 124, -606, 1348, -445
0.297787, 298, -2062, 124, -606, 1348, -445
0.297921, 298, -2062, 124, -606, 1348, -445
0.298055, 298, -2062, 124, -606, 1348, -445
0.298190, 298, -2062, 124, -606, 1348, -445
0.298324, -231, -2035, 72, -506, 1378, -389
0.298458, -231, -2035, 72, -506, 1378, -389
0.298592, -231, -2035, 72, -506, 1378, -389
0.298726, -231, -2035, 72, -506, 1378, -389
0.298860, -231, -2035, 72, -506, 1378, -389
0.298995, -231, -2035, 72, -506, 1378, -389
0.299129, -231, -2035, 72, -506, 1378, -389
0.299263, -1258, -2160, 401, -336, 1321, 70
0.299397, -1258, -2160, 401, -336, 1321, 70
0.299531, -1258, -2160, 401, -336, 1321, 70
0.299667, -1258, -2160, 401, -336, 1321, 70
0.299801, -1258, -2160, 401, -336, 1321, 70
0.299936, -1258, -2160, 401, -336, 1321, 70
0.300070, -1258, -2160, 401, -336, 1321, 70
0.300204, -1258, -2160, 401, -336, 1321, 70
0.300339, -1495, -2175, 525, 23, 1105, 1030
0.300473, -1495, -2175, 525, 23, 1105, 1030
0.300608, -1495, -2175, 525, 23, 1105, 1030
0.300742, -1495, -2175, 525, 23, 1105, 1030
0.300876, -1495, -2175, 525, 23, 1105, 1030
0.301011, -1495, -2175, 525, 23, 1105, 1030
0.301145, -1495, -2175, 525, 23, 1105, 1030
0.301279, -497, -2128, 539, 361, 725, 1750
0.301413, -497, -2128, 539, 361, 725, 1750
0.301548, -497, -2128, 539, 361, 725, 1750
0.301682, -497, -2128, 539, 361, 725, 1750
0.301816, -497, -2128, 539, 361, 725, 1750
0.301950, -497, -2128, 539, 361, 725, 1750
0.302084, -497, -2128, 539, 361, 725, 1750
0.302218, -497, -2128, 539, 361, 725, 1750
0.302352, 91, -2149, 856, 856, 353, 1764
0.302487, 91, -2149, 856, 856, 353, 1764
0.302621, 91, -2149, 856, 856, 353, 1764
0.302755, 91, -2149, 856, 856, 353, 1764
0.302889, 91, -2149, 856, 856, 353, 1764
0.303023, 91, -2149, 856, 856, 353, 1764
0.303157, 91, -2149, 856, 856, 353, 1764
0.303291, 52, -2054, 184, 1297, 113, 1581
0.303426, 52, -2054, 184, 1297, 113, 1581
0.303569, 52, -2054, 184, 1297, 113, 1581
0.303704, 52, -2054, 184, 1297, 113, 1581
0.303838, 52, -2054, 184, 1297, 113, 1581
0.303973, 52, -2054, 184, 1297, 113, 1581
0.304107, 52, -2054, 184, 1297, 113, 1581
0.304241, 52, -2054, 184, 1297, 113, 1581
0.304375, 316, -1955, -1009, 1049, 104, 1480
0.304509, 316, -1955, -1009, 1049, 104, 1480
0.304644, 316, -1955, -1009, 1049, 104, 1480
0.304778, 316, -1955, -1009, 1049, 104, 1480
0.304912, 316, -1955, -1009, 1049, 104, 1480
0.305046, 316, -1955, -1009, 1049, 104, 1480
0.305181, 316, -1955, -1009, 1049, 104, 1480
0.305315, 565, -2052, -865, 486, 191, 1261
0.305449, 565, -2052, -865, 486, 191, 1261
0.305583, 565, -2052, -865, 486, 191, 1261
0.305717, 565, -2052, -865, 486, 191, 1261
0.305851, 565, -2052, -865, 486, 191, 1261
0.305985, 565, -2052, -865, 486, 191, 1261
0.306120, 565, -2052, -865, 486, 191, 1261
0.306254, 565, -2052, -865, 486, 191, 1261
0.306388, 446, -2100, 4, 396, 159, 998
0.306522, 446, -2100, 4, 396, 159, 998
0.306656, 446, -2100, 4, 396, 159, 998
0.306790, 446, -2100, 4, 396, 159, 998
0.306925, 446, -2100, 4, 396, 159, 998
0.307059, 446, -2100, 4, 396, 159, 998
0.307193, 446, -2100, 4, 396, 159, 998
0.307327, 443, -1974, -146, 432, 108, 808
0.307461, 443, -1974, -146, 432, 108, 808
0.307595, 443, -1974, -146, 432, 108, 808
0.307729, 443, -1974, -146, 432, 108, 808
0.307864, 443, -1974, -146, 432, 108, 808
0.307998, 443, -1974, -146, 432, 108, 808
0.308132, 443, -1974, -146, 432, 108, 808
0.308266, 443, -1974, -146, 432, 108, 808
0.308400, 464, -1946, -638, 75, 242, 600
0.308534, 464, -1946, -638, 75, 242, 600
0.308669, 464, -1946, -638, 75, 242, 600
0.308803, 464, -1946, -638, 75, 242, 600
0.308937, 464, -1946, -638, 75, 242, 600
0.309071, 464, -1946, -638, 75, 242, 600
0.309205, 464, -1946, -638, 75, 242, 600
0.309339, 464, -1946, -638, 75, 242, 600
0.309474, 446, -1992, -719, -339, 463, 413
0.309608, 446, -1992, -719, -339, 463, 413
0.309742, 446, -1992, -719, -339, 463, 413
0.309876, 446, -1992, -719, -339, 463, 413
0.310010, 446, -1992, -719, -339, 463, 413
0.310144, 446, -1992, -719, -339, 463, 413
0.310279, 446, -1992, -719, -339, 463, 413
0.310413, 434, -2038, -500, -649, 594, 231
0.310547, 434, -2038, -500, -649, 594, 231
0.310681, 434, -2038, -500, -649, 594, 231
0.310815, 434, -2038, -500, -649, 594, 231
0.310949, 434, -2038, -500, -649, 594, 231
0.311083, 434, -2038, -500, -649, 594, 231
0.311217, 434, -2038, -500, -649, 594, 231
0.311352, 434, -2038, -500, -649, 594, 231
0.311486, 193, -2107, 88, -745, 650, 85
0.311620, 193, -2107, 88, -745, 650, 85
0.311754, 193, -2107, 88, -745, 650, 85
0.311888, 193, -2107, 88, -745, 650, 85
0.312022, 193, -2107, 88, -745, 650, 85
0.312156, 193, -2107, 88, -745, 650, 85
0.312290, 193, -2107, 88, -745, 650, 85
0.312424, 53, -2084, 390, -562, 656, 83
0.312559, 53, -2084, 390, -562, 656, 83
0.312693, 53, -2084, 390, -562, 656, 83
0.312827, 53, -2084, 390, -562, 656, 83
0.312961, 53, -2084, 390, -562, 656, 83
0.313096, 53, -2084, 390, -562, 656, 83
0.313230, 53, -2084, 390, -562, 656, 83
0.313364, 53, -2084, 390, -562, 656, 83
0.313498, 131, -2030, 30, -445, 653, 89
0.313632, 131, -2030, 30, -445, 653, 89
0.313766, 131, -2030, 30, -445, 653, 89
0.313901, 131, -2030, 30, -445, 653, 89
0.314035, 131, -2030, 30, -445, 653, 89
0.314169, 131, -2030, 30, -445, 653, 89
0.314303, 131, -2030, 30, -445, 653, 89
0.314437, 48, -2033, -140, -465, 659, 53
0.314571, 48, -2033, -140, -465, 659, 53
0.314706, 48, -2033, -140, -465, 659, 53
0.314840, 48, -2033, -140, -465, 659, 53
0.314974, 48, -2033, -140, -465, 659, 53
0.315108, 48, -2033, -140, -465, 659, 53
0.315242, 48, -2033, -140, -465, 659, 53
0.315376, 48, -2033, -140, -465, 659, 53
0.315510, -23, -2033, 150, -395, 598, 76
0.315645, -23, -2033, 150, -395, 598, 76
0.315779, -23, -2033, 150, -395, 598, 76
0.315913, -23, -2033, 150, -395, 598, 76
0.316047, -23, -2033, 150, -395, 598, 76
0.316182, -23, -2033, 150, -395, 598, 76
0.316316, -23, -2033, 150, -395, 598, 76
0.316450, 254, -2009, 210, -238, 487, 78
0.316585, 254, -2009, 210, -238, 487, 78
0.316719, 254, -2009, 210, -238, 487, 78
0.316868, 254, -2009, 210, -238, 487, 78
0.317003, 254, -2009, 210, -238, 487, 78
0.317137, 254, -2009, 210, -238, 487, 78
0.317272, 254, -2009, 210, -238, 487, 78
0.317407, 254, -2009, 210, -238, 487, 78
0.317541, 516, -2055, 195, -92, 436, -125
0.317675, 516, -2055, 195, -92, 436, -125
0.317809, 516, -2055, 195, -92, 436, -125
0.317943, 516, -2055, 195, -92, 436, -125
0.318078, 516, -2055, 195, -92, 436, -125
0.318212, 516, -2055, 195, -92, 436, -125
0.318346, 516, -2055, 195, -92, 436, -125
0.318480, -230, -2178, 372, 140, 464, -328
0.318614, -230, -2178, 372, 140, 464, -328
0.318749, -230, -2178, 372, 140, 464, -328
0.318883, -230, -2178, 372, 140, 464, -328
0.319017, -230, -2178, 372, 140, 464, -328
0.319151, -230, -2178, 372, 140, 464, -328
0.319285, -230, -2178, 372, 140, 464, -328
0.319419, -230, -2178, 372, 140, 464, -328
0.319553, -1282, -2103, -24, 330, 487, 105
0.319688, -1282, -2103, -24, 330, 487, 105
0.319822, -1282, -2103, -24, 330, 487, 105
0.319956, -1282, -2103, -24, 330, 487, 105
0.320090, -1282, -2103, -24, 330, 487, 105
0.320224, -1282, -2103, -24, 330, 487, 105
0.320358, -1282, -2103, -24, 330, 487, 105
0.320492, -1282, -2103, -24, 330, 487, 105
0.320627, -894, -2031, -543, 76, 417, 930
0.320761, -894, -2031, -543, 76, 417, 930
0.320894, -894, -2031, -543, 76, 417, 930
0.321028, -894, -2031, -543, 76, 417, 930
0.321161, -894, -2031, -543, 76, 417, 930
0.321295, -894, -2031, -543, 76, 417, 930
0.321428, -894, -2031, -543, 76, 417, 930
0.321561, -59, -2168, 119, -89, 235, 1252
0.321695, -59, -2168, 119, -89, 235, 1252
0.321829, -59, -2168, 119, -89, 235, 1252
0.321962, -59, -2168, 119, -89, 235, 1252
0.322095, -59, -2168, 119, -89, 235, 1252
0.322229, -59, -2168, 119, -89, 235, 1252
0.322362, -59, -2168, 119, -89, 235, 1252
0.322496, -59, -2168, 119, -89, 235, 1252
0.322629, -465, -2186, 1010, 410, -3, 1222
0.322763, -465, -2186, 1010, 410, -3, 1222
0.322897, -465, -2186, 1010, 410, -3, 1222
0.323030, -465, -2186, 1010, 410, -3, 1222
0.323163, -465, -2186, 1010, 410, -3, 1222
0.323297, -465, -2186, 1010, 410, -3, 1222
0.323430, -465, -2186, 1010, 410, -3, 1222
0.323564, -1344, -2105, 1047, 1043, -132, 1635
0.323697, -1344, -2105, 1047, 1043, -132, 1635
0.323831, -1344, -2105, 1047, 1043, -132, 1635
0.323964, -1344, -2105, 1047, 1043, -132, 1635
0.324098, -1344, -2105, 1047, 1043, -132, 1635
0.324231, -1344, -2105, 1047, 1043, -132, 1635
0.324365, -1344, -2105, 1047, 1043, -132, 1635
0.324498, -1344, -2105, 1047, 1043, -132, 1635
0.324633, -734, -2020, 219, 1340, -143, 2371
0.324767, -734, -2020, 219, 1340, -143, 2371
0.324901, -734, -2020, 219, 1340, -143, 2371
0.325035, -734, -2020, 219, 1340, -143, 2371
0.325169, -734, -2020, 219, 1340, -143, 2371
0.325303, -734, -2020, 219, 1340, -143, 2371
0.325438, -734, -2020, 219, 1340, -143, 2371
0.325572, 821, -1949, -735, 1187, -203, 2409
0.325706, 821, -1949, -735, 1187, -203, 2409
0.325840, 821, -1949, -735, 1187, -203, 2409
0.325975, 821, -1949, -735, 1187, -203, 2409
0.326109, 821, -1949, -735, 1187, -203, 2409
0.326243, 821, -1949, -735, 1187, -203, 2409
0.326377, 821, -1949, -735, 1187, -203, 2409
0.326511, 821, -1949, -735, 1187, -203, 2409
0.326645, 1503, -1934, -1174, 749, -311, 1598
0.326779, 1503, -1934, -1174, 749, -311, 1598
0.326914, 1503, -1934, -1174, 749, -311, 1598
0.327048, 1503, -1934, -1174, 749, -311, 1598
0.327182, 1503, -1934, -1174, 749, -311, 1598
0.327316, 1503, -1934, -1174, 749, -311, 1598
0.327450, 1503, -1934, -1174, 749, -311, 1598
0.327584, 1503, -1934, -1174, 749, -311, 1598
0.327718, 1386, -1939, -1344, 167, -320, 680
0.327853, 1386, -1939, -1344, 167, -320, 680
0.327987, 1386, -1939, -1344, 167, -320, 680
0.328121, 1386, -1939, -1344, 167, -320, 680
0.328255, 1386, -1939, -1344, 167, -320, 680
0.328389, 1386, -1939, -1344, 167, -320, 680
0.328523, 1386, -1939, -1344, 167, -320, 680
0.328658, 824, -1889, -1407, -581, -119, 98
0.328792, 824, -1889, -1407, -581, -119, 98
0.328926, 824, -1889, -1407, -581, -119, 98
0.329061, 824, -1889, -1407, -581, -119, 98
0.329195, 824, -1889, -1407, -581, -119, 98
0.329329, 824, -1889, -1407, -581, -119, 98
0.329469, 824, -1889, -1407, -581, -119, 98
0.329603, 824, -1889, -1407, -581, -119, 98
0.329737, 217, -1975, -841, -1396, 223, -41
0.329872, 217, -1975, -841, -1396, 223, -41
0.330006, 217, -1975, -841, -1396, 223, -41
0.330140, 217, -1975, -841, -1396, 223, -41
0.330274, 217, -1975, -841, -1396, 223, -41
0.330408, 217, -1975, -841, -1396, 223, -41
0.330542, 217, -1975, -841, -1396, 223, -41
0.330676, -348, -2356, 1730, -1292, 575, 171
0.330811, -348, -2356, 1730, -1292, 575, 171
0.330945, -348, -2356, 1730, -1292, 575, 171
0.331079, -348, -2356, 1730, -1292, 575, 171
0.331213, -348, -2356, 1730, -1292, 575, 171
0.331347, -348, -2356, 1730, -1292, 575, 171
0.331481, -348, -2356, 1730, -1292, 575, 171
0.331615, -348, -2356, 1730, -1292, 575, 171
0.331750, -944, -2392, 3176, 289, 759, 671
0.331884, -944, -2392, 3176, 289, 759, 671
0.332018, -944, -2392, 3176, 289, 759, 671
0.332151, -944, -2392, 3176, 289, 759, 671
0.332285, -944, -2392, 3176, 289, 759, 671
0.332418, -944, -2392, 3176, 289, 759, 671
0.332552, -944, -2392, 3176, 289, 759, 671
0.332686, -763, -2074, 1029, 1455, 758, 1247
0.332820, -763, -2074, 1029, 1455, 758, 1247
0.332955, -763, -2074, 1029, 1455, 758, 1247
0.333089, -763, -2074, 1029, 1455, 758, 1247
0.333223, -763, -2074, 1029, 1455, 758, 1247
0.333357, -763, -2074, 1029, 1455, 758, 1247
0.333491, -763, -2074, 1029, 1455, 758, 1247
0.333625, -763, -2074, 1029, 1455, 758, 1247
0.333759, -104, -2039, -396, 1486, 676, 1468
0.333894, -104, -2039, -396, 1486, 676, 1468
0.334028, -104, -2039, -396, 1486, 676, 1468
0.334162, -104, -2039, -396, 1486, 676, 1468
0.334296, -104, -2039, -396, 1486, 676, 1468
0.334430, -104, -2039, -396, 1486, 676, 1468
0.334564, -104, -2039, -396, 1486, 676, 1468
0.334698, 357, -2055, -534, 1551, 378, 1315
0.334832, 357, -2055, -534, 1551, 378, 1315
0.334967, 357, -2055, -534, 1551, 378, 1315
0.335101, 357, -2055, -534, 1551, 378, 1315
0.335235, 357, -2055, -534, 1551, 378, 1315
0.335369, 357, -2055, -534, 1551, 378, 1315
0.335503, 357, -2055, -534, 1551, 378, 1315
0.335637, 357, -2055, -534, 1551, 378, 1315
0.335771, 718, -1918, -1128, 1388, -6, 966
0.335905, 718, -1918, -1128, 1388, -6, 966
0.336040, 718, -1918, -1128, 1388, -6, 966
0.336174, 718, -1918, -1128, 1388, -6, 966
0.336308, 718, -1918, -1128, 1388, -6, 966
0.336442, 718, -1918, -1128, 1388, -6, 966
0.336576, 718, -1918, -1128, 1388, -6, 966
0.336710, 718, -1918, -1128, 1388, -6, 966
0.336843, 973, -1931, -1057, 731, -191, 495
0.336977, 973, -1931, -1057, 731, -191, 495
0.337111, 973, -1931, -1057, 731, -191, 495
0.337244, 973, -1931, -1057, 731, -191, 495
0.337378, 973, -1931, -1057, 731, -191, 495
0.337511, 973, -1931, -1057, 731, -191, 495
0.337644, 973, -1931, -1057, 731, -191, 495
0.337778, 1205, -2059, -417, 276, -117, -60
0.337912, 1205, -2059, -417, 276, -117, -60
0.338045, 1205, -2059, -417, 276, -117, -60
0.338178, 1205, -2059, -417, 276, -117, -60
0.338312, 1205, -2059, -417, 276, -117, -60
0.338445, 1205, -2059, -417, 276, -117, -60
0.338579, 1205, -2059, -417, 276, -117, -60
0.338712, 1205, -2059, -417, 276, -117, -60
0.338845, 1143, -2001, -448, 25, 228, -667
0.338979, 1143, -2001, -448, 25, 228, -667
0.339113, 1143, -2001, -448, 25, 228, -667
0.339246, 1143, -2001, -448, 25, 228, -667
0.339380, 1143, -2001, -448, 25, 228, -667
0.339514, 1143, -2001, -448, 25, 228, -667
0.339647, 1143, -2001, -448, 25, 228, -667
0.339781, 575, -1945, -932, -554, 694, -1081
0.339914, 575, -1945, -932, -554, 694, -1081
0.340048, 575, -1945, -932, -554, 694, -1081
0.340181, 575, -1945, -932, -554, 694, -1081
0.340315, 575, -1945, -932, -554, 694, -1081
0.340448, 575, -1945, -932, -554, 694, -1081
0.340585, 575, -1945, -932, -554, 694, -1081
0.340719, 575, -1945, -932, -554, 694, -1081
0.340852, -125, -2100, -723, -1201, 987, -1086
0.340986, -125, -2100, -723, -1201, 987, -1086
0.341121, -125, -2100, -723, -1201, 987, -1086
0.341255, -125, -2100, -723, -1201, 987, -1086
0.341389, -125, -2100, -723, -1201, 987, -1086
0.341522, -125, -2100, -723, -1201, 987, -1086
0.341656, -125, -2100, -723, -1201, 987, -1086
0.341795, -774, -2192, 303, -1267, 945, -698
0.341930, -774, -2192, 303, -1267, 945, -698
0.342064, -774, -2192, 303, -1267, 945, -698
0.342198, -774, -2192, 303, -1267, 945, -698
0.342332, -774, -2192, 303, -1267, 945, -698
0.342466, -774, -2192, 303, -1267, 945, -698
0.342600, -774, -2192, 303, -1267, 945, -698
0.342734, -774, -2192, 303, -1267, 945, -698
0.342868, -818, -2056, 956, -764, 690, -45
0.343002, -818, -2056, 956, -764, 690, -45
0.343136, -818, -2056, 956, -764, 690, -45
0.343270, -818, -2056, 956, -764, 690, -45
0.343404, -818, -2056, 956, -764, 690, -45
0.343538, -818, -2056, 956, -764, 690, -45
0.343672, -818, -2056, 956, -764, 690, -45
0.343806, -818, -2056, 956, -764, 690, -45
0.343940, 433, -1920, 489, -308, 430, 300
0.344074, 433, -1920, 489, -308, 430, 300
0.344208, 433, -1920, 489, -308, 430, 300
0.344342, 433, -1920, 489, -308, 430, 300
0.344476, 433, -1920, 489, -308, 430, 300
0.344610, 433, -1920, 489, -308, 430, 300
0.344744, 433, -1920, 489, -308, 430, 300
0.344878, 1752, -2051, -86, -176, 271, -328
0.345013, 1752, -2051, -86, -176, 271, -328
0.345147, 1752, -2051, -86, -176, 271, -328
0.345281, 1752, -2051, -86, -176, 271, -328
0.345415, 1752, -2051, -86, -176, 271, -328
0.345549, 1752, -2051, -86, -176, 271, -328
0.345683, 1752, -2051, -86, -176, 271, -328
0.345817, 1752, -2051, -86, -176, 271, -328
0.345952, 1061, -2195, -46, 5, 274, -1380
0.346086, 1061, -2195, -46, 5, 274, -1380
0.346221, 1061, -2195, -46, 5, 274, -1380
0.346355, 1061, -2195, -46, 5, 274, -1380
0.346489, 1061, -2195, -46, 5, 274, -1380
0.346624, 1061, -2195, -46, 5, 274, -1380
0.346758, 1061, -2195, -46, 5, 274, -1380
0.346892, -390, -2076, -105, 264, 425, -1569
0.347026, -390, -2076, -105, 264, 425, -1569
0.347160, -390, -2076, -105, 264, 425, -1569
0.347294, -390, -2076, -105, 264, 425, -1569
0.347429, -390, -2076, -105, 264, 425, -1569
0.347563, -390, -2076, -105, 264, 425, -1569
0.347697, -390, -2076, -105, 264, 425, -1569
0.347831, -390, -2076, -105, 264, 425, -1569
0.347965, -390, -1956, -671, 75, 574, -1031
0.348099, -390, -1956, -671, 75, 574, -1031
0.348233, -390, -1956, -671, 75, 574, -1031
0.348367, -390, -1956, -671, 75, 574, -1031
0.348501, -390, -1956, -671, 75, 574, -1031
0.348636, -390, -1956, -671, 75, 574, -1031
0.348770, -390, -1956, -671, 75, 574, -1031
0.348904, -47, -2055, -361, -329, 558, -723
0.349038, -47, -2055, -361, -329, 558, -723
0.349173, -47, -2055, -361, -329, 558, -723
0.349307, -47, -2055, -361, -329, 558, -723
0.349441, -47, -2055, -361, -329, 558, -723
0.349575, -47, -2055, -361, -329, 558, -723
0.349709, -47, -2055, -361, -329, 558, -723
0.349843, -47, -2055, -361, -329, 558, -723
0.349977, 573, -1987, -64, -296, 359, -743
0.350111, 573, -1987, -64, -296, 359, -743
0.350246, 573, -1987, -64, -296, 359, -743
0.350380, 573, -1987, -64, -296, 359, -743
0.350514, 573, -1987, -64, -296, 359, -743
0.350648, 573, -1987, -64, -296, 359, -743
0.350782, 573, -1987, -64, -296, 359, -743
0.350916, 1471, -1804, -1056, -531, 233, -1268
0.351050, 1471, -1804, -1056, -531, 233, -1268
0.351185, 1471, -1804, -1056, -531, 233, -1268
0.351319, 1471, -1804, -1056, -531, 233, -1268
0.351453, 1471, -1804, -1056, -531, 233, -1268
0.351587, 1471, -1804, -1056, -531, 233, -1268
0.351721, 1471, -1804, -1056, -531, 233, -1268
0.351855, 1471, -1804, -1056, -531, 233, -1268
0.351990, 694, -2031, -1055, -1353, 345, -2029
0.352124, 694, -2031, -1055, -1353, 345, -2029
0.352258, 694, -2031, -1055, -1353, 345, -2029
0.352392, 694, -2031, -1055, -1353, 345, -2029
0.352526, 694, -2031, -1055, -1353, 345, -2029
0.352661, 694, -2031, -1055, -1353, 345, -2029
0.352795, 694, -2031, -1055, -1353, 345, -2029
0.352929, 694, -2031, -1055, -1353, 345, -2029
0.353063, -50, -2208, 269, -1544, 505, -2074
0.353197, -50, -2208, 269, -1544, 505, -2074
0.353331, -50, -2208, 269, -1544, 505, -2074
0.353466, -50, -2208, 269, -1544, 505, -2074
0.353600, -50, -2208, 269, -1544, 505, -2074
0.353734, -50, -2208, 269, -1544, 505, -2074
0.353868, -50, -2208, 269, -1544, 505, -2074
0.354002, 549, -2110, 681, -1115, 629, -1938
0.354141, 549, -2110, 681, -1115, 629, -1938
0.354276, 549, -2110, 681, -1115, 629, -1938
0.354410, 549, -2110, 681, -1115, 629, -1938
0.354544, 549, -2110, 681, -1115, 629, -1938
0.354678, 549, -2110, 681, -1115, 629, -1938
0.354812, 549, -2110, 681, -1115, 629, -1938
0.354946, 549, -2110, 681, -1115, 629, -1938
0.355081, -13, -2141, 241, -912, 764, -2124
0.355215, -13, -2141, 241, -912, 764, -2124
0.355349, -13, -2141, 241, -912, 764, -2124
0.355483, -13, -2141, 241, -912, 764, -2124
0.355617, -13, -2141, 241, -912, 764, -2124
0.355751, -13, -2141, 241, -912, 764, -2124
0.355886, -13, -2141, 241, -912, 764, -2124
0.356020, -989, -2177, 198, -749, 763, -1795
0.356154, -989, -2177, 198, -749, 763, -1795
0.356288, -989, -2177, 198, -749, 763, -1795
0.356422, -989, -2177, 198, -749, 763, -1795
0.356556, -989, -2177, 198, -749, 763, -1795
0.356691, -989, -2177, 198, -749, 763, -1795
0.356825, -989, -2177, 198, -749, 763, -1795
0.356959, -989, -2177, 198, -749, 763, -1795
0.357093, -366, -2121, 566, -335, 556, -1169
0.357228, -366, -2121, 566, -335, 556, -1169
0.357362, -366, -2121, 566, -335, 556, -1169
0.357496, -366, -2121, 566, -335, 556, -1169
0.357630, -366, -2121, 566, -335, 556, -1169
0.357764, -366, -2121, 566, -335, 556, -1169
0.357898, -366, -2121, 566, -335, 556, -1169
0.358032, 893, -1930, 360, 119, 307, -1220
0.358167, 893, -1930, 360, 119, 307, -1220
0.358301, 893, -1930, 360, 119, 307, -1220
0.358435, 893, -1930, 360, 119, 307, -1220
0.358569, 893, -1930, 360, 119, 307, -1220
0.358703, 893, -1930, 360, 119, 307, -1220
0.358837, 893, -1930, 360, 119, 307, -1220
0.358971, 893, -1930, 360, 119, 307, -1220
0.359106, 966, -1899, -133, 213, 168, -1913
0.359240, 966, -1899, -133, 213, 168, -1913
0.359374, 966, -1899, -133, 213, 168, -1913
0.359508, 966, -1899, -133, 213, 168, -1913
0.359642, 966, -1899, -133, 213, 168, -1913
0.359776, 966, -1899, -133, 213, 168, -1913
0.359910, 966, -1899, -133, 213, 168, -1913
0.360044, -336, -2167, 199, 288, 184, -2238
0.360179, -336, -2167, 199, 288, 184, -2238
0.360313, -336, -2167, 199, 288, 184, -2238
0.360447, -336, -2167, 199, 288, 184, -2238
0.360581, -336, -2167, 199, 288, 184, -2238
0.360716, -336, -2167, 199, 288, 184, -2238
0.360850, -336, -2167, 199, 288, 184, -2238
0.360984, -336, -2167, 199, 288, 184, -2238
0.361118, -657, -2136, 18, 498, 290, -1750
0.361252, -657, -2136, 18, 498, 290, -1750
0.361386, -657, -2136, 18, 498, 290, -1750
0.361520, -657, -2136, 18, 498, 290, -1750
0.361654, -657, -2136, 18, 498, 290, -1750
0.361789, -657, -2136, 18, 498, 290, -1750
0.361923, -657, -2136, 18, 498, 290, -1750
0.362057, 579, -1820, -942, 175, 438, -1423
0.362191, 579, -1820, -942, 175, 438, -1423
0.362325, 579, -1820, -942, 175, 438, -1423
0.362459, 579, -1820, -942, 175, 438, -1423
0.362594, 579, -1820, -942, 175, 438, -1423
0.362728, 579, -1820, -942, 175, 438, -1423
0.362862, 579, -1820, -942, 175, 438, -1423
0.362996, 579, -1820, -942, 175, 438, -1423
0.363130, 1549, -1900, -1030, -556, 469, -1995
0.363264, 1549, -1900, -1030, -556, 469, -1995
0.363398, 1549, -1900, -1030, -556, 469, -1995
0.363532, 1549, -1900, -1030, -556, 469, -1995
0.363667, 1549, -1900, -1030, -556, 469, -1995
0.363801, 1549, -1900, -1030, -556, 469, -1995
0.363935, 1549, -1900, -1030, -556, 469, -1995
0.364069, 1549, -1900, -1030, -556, 469, -1995
0.364203, 720, -2250, 601, -609, 462, -2834
0.364337, 720, -2250, 601, -609, 462, -2834
0.364472, 720, -2250, 601, -609, 462, -2834
0.364606, 720, -2250, 601, -609, 462, -2834
0.364740, 720, -2250, 601, -609, 462, -2834
0.364874, 720, -2250, 601, -609, 462, -2834
0.365008, 720, -2250, 601, -609, 462, -2834
0.365143, -946, -2204, 1481, 297, 657, -2794
0.365277, -946, -2204, 1481, 297, 657, -2794
0.365411, -946, -2204, 1481, 297, 657, -2794
0.365545, -946, -2204, 1481, 297, 657, -2794
0.365679, -946, -2204, 1481, 297, 657, -2794
0.365813, -946, -2204, 1481, 297, 657, -2794
0.365947, -946, -2204, 1481, 297, 657, -2794
0.366082, -946, -2204, 1481, 297, 657, -2794
0.366216, -785, -2010, -7, 682, 923, -1990
0.366350, -785, -2010, -7, 682, 923, -1990
0.366484, -785, -2010, -7, 682, 923, -1990
0.366626, -785, -2010, -7, 682, 923, -1990
0.366761, -785, -2010, -7, 682, 923, -1990
0.366895, -785, -2010, -7, 682, 923, -1990
0.367030, -785, -2010, -7, 682, 923, -1990
0.367164, 687, -2014, -702, 194, 983, -1754
0.367298, 687, -2014, -702, 194, 983, -1754
0.367432, 687, -2014, -702, 194, 983, -1754
0.367566, 687, -2014, -702, 194, 983, -1754
0.367701, 687, -2014, -702, 194, 983, -1754
0.367835, 687, -2014, -702, 194, 983, -1754
0.367969, 687, -2014, -702, 194, 983, -1754
0.368103, 687, -2014, -702, 194, 983, -1754
0.368237, 1288, -2026, -55, 123, 782, -2457
0.368371, 1288, -2026, -55, 123, 782, -2457
0.368505, 1288, -2026, -55, 123, 782, -2457
0.368640, 1288, -2026, -55, 123, 782, -2457
0.368774, 1288, -2026, -55, 123, 782, -2457
0.368908, 1288, -2026, -55, 123, 782, -2457
0.369042, 1288, -2026, -55, 123, 782, -2457
0.369176, 345, -2135, 448, 535, 657, -3163
0.369311, 345, -2135, 448, 535, 657, -3163
0.369445, 345, -2135, 448, 535, 657, -3163
0.369579, 345, -2135, 448, 535, 657, -3163
0.369713, 345, -2135, 448, 535, 657, -3163
0.369847, 345, -2135, 448, 535, 657, -3163
0.369981, 345, -2135, 448, 535, 657, -3163
0.370116, 345, -2135, 448, 535, 657, -3163
