Time, ax, ay, az, gx, gy, gz
0.000018, 691, -2093, 457, -336, -255, -9
0.000185, 691, -2093, 457, -336, -255, -9
0.000327, 691, -2093, 457, -336, -255, -9
0.000465, 691, -2093, 457, -336, -255, -9
0.000603, 691, -2093, 457, -336, -255, -9
0.000740, 691, -2093, 457, -336, -255, -9
0.000889, 738, -2108, 682, 56, -75, -422
0.001027, 738, -2108, 682, 56, -75, -422
0.001166, 738, -2108, 682, 56, -75, -422
0.001305, 738, -2108, 682, 56, -75, -422
0.001443, 738, -2108, 682, 56, -75, -422
0.001580, 738, -2108, 682, 56, -75, -422
0.001717, 738, -2108, 682, 56, -75, -422
0.001855, 738, -2108, 682, 56, -75, -422
0.001992, 453, -2080, 595, 555, 76, -797
0.002134, 453, -2080, 595, 555, 76, -797
0.002271, 453, -2080, 595, 555, 76, -797
0.002408, 453, -2080, 595, 555, 76, -797
0.002546, 453, -2080, 595, 555, 76, -797
0.002683, 453, -2080, 595, 555, 76, -797
0.002820, 453, -2080, 595, 555, 76, -797
0.002958, -184, -2046, -2, 850, 197, -897
0.003100, -184, -2046, -2, 850, 197, -897
0.003237, -184, -2046, -2, 850, 197, -897
0.003374, -184, -2046, -2, 850, 197, -897
0.003512, -184, -2046, -2, 850, 197, -897
0.003649, -184, -2046, -2, 850, 197, -897
0.003787, -184, -2046, -2, 850, 197, -897
0.003924, -750, -2035, -556, 683, 253, -581
0.004062, -750, -2035, -556, 683, 253, -581
0.004200, -750, -2035, -556, 683, 253, -581
0.004338, -750, -2035, -556, 683, 253, -581
0.004477, -750, -2035, -556, 683, 253, -581
0.004614, -750, -2035, -556, 683, 253, -581
0.004751, -750, -2035, -556, 683, 253, -581
0.004888, -750, -2035, -556, 683, 253, -581
0.005026, -547, -2019, -211, 367, 197, -96
0.005167, -547, -2019, -211, 367, 197, -96
0.005309, -547, -2019, -211, 367, 197, -96
0.005447, -547, -2019, -211, 367, 197, -96
0.005585, -547, -2019, -211, 367, 197, -96
0.005722, -547, -2019, -211, 367, 197, -96
0.005861, -547, -2019, -211, 367, 197, -96
0.005998, -43, -2022, 93, 326, 99, 68
0.006139, -43, -2022, 93, 326, 99, 68
0.006277, -43, -2022, 93, 326, 99, 68
0.006417, -43, -2022, 93, 326, 99, 68
0.006554, -43, -2022, 93, 326, 99, 68
0.006693, -43, -2022, 93, 326, 99, 68
0.006830, -43, -2022, 93, 326, 99, 68
0.006969, -193, -2033, -400, 280, 78, 3
0.007106, -193, -2033, -400, 280, 78, 3
0.007244, -193, -2033, -400, 280, 78, 3
0.007382, -193, -2033, -400, 280, 78, 3
0.007519, -193, -2033, -400, 280, 78, 3
0.007656, -193, -2033, -400, 280, 78, 3
0.007794, -193, -2033, -400, 280, 78, 3
0.007931, -193, -2033, -400, 280, 78, 3
0.008068, -470, -2033, -582, -44, 112, 177
0.008210, -470, -2033, -582, -44, 112, 177
0.008349, -470, -2033, -582, -44, 112, 177
0.008487, -470, -2033, -582, -44, 112, 177
0.008625, -470, -2033, -582, -44, 112, 177
0.008762, -470, -2033, -582, -44, 112, 177
0.008899, -470, -2033, -582, -44, 112, 177
0.009037, -268, -2050, -241, -343, 85, 476
0.009178, -268, -2050, -241, -343, 85, 476
0.009316, -268, -2050, -241, -343, 85, 476
0.009453, -268, -2050, -241, -343, 85, 476
0.009590, -268, -2050, -241, -343, 85, 476
0.009728, -268, -2050, -241, -343, 85, 476
0.009865, -268, -2050, -241, -343, 85, 476
0.010002, 134, -2067, -43, -435, 35, 556
0.010140, 134, -2067, -43, -435, 35, 556
0.010278, 134, -2067, -43, -435, 35, 556
0.010416, 134, -2067, -43, -435, 35, 556
0.010553, 134, -2067, -43, -435, 35, 556
0.010690, 134, -2067, -43, -435, 35, 556
0.010827, 134, -2067, -43, -435, 35, 556
0.010965, 134, -2067, -43, -435, 35, 556
0.011102, 352, -2055, -14, -422, 32, 387
0.011243, 352, -2055, -14, -422, 32, 387
0.011382, 352, -2055, -14, -422, 32, 387
0.011519, 352, -2055, -14, -422, 32, 387
0.011656, 352, -2055, -14, -422, 32, 387
0.011793, 352, -2055, -14, -422, 32, 387
0.011932, 352, -2055, -14, -422, 32, 387
0.012069, 375, -2052, 22, -379, 46, 144
0.012211, 375, -2052, 22, -379, 46, 144
0.012349, 375, -2052, 22, -379, 46, 144
0.012488, 375, -2052, 22, -379, 46, 144
0.012625, 375, -2052, 22, -379, 46, 144
0.012762, 375, -2052, 22, -379, 46, 144
0.012899, 375, -2052, 22, -379, 46, 144
0.013037, 375, -2052, 22, -379, 46, 144
0.013174, 473, -2082, 203, -269, 58, -94
0.013316, 473, -2082, 203, -269, 58, -94
0.013453, 473, -2082, 203, -269, 58, -94
0.013591, 473, -2082, 203, -269, 58, -94
0.013760, 473, -2082, 203, -269, 58, -94
0.013905, 473, -2082, 203, -269, 58, -94
0.014043, 473, -2082, 203, -269, 58, -94
0.014182, 479, -2100, 335, -42, 88, -386
0.014323, 479, -2100, 335, -42, 88, -386
0.014462, 479, -2100, 335, -42, 88, -386
0.014599, 479, -2100, 335, -42, 88, -386
0.014738, 479, -2100, 335, -42, 88, -386
0.014875, 479, -2100, 335, -42, 88, -386
0.015013, 479, -2100, 335, -42, 88, -386
0.015150, 154, -2102, 96, 139, 141, -610
0.015292, 154, -2102, 96, 139, 141, -610
0.015430, 154, -2102, 96, 139, 141, -610
0.015568, 154, -2102, 96, 139, 141, -610
0.015706, 154, -2102, 96, 139, 141, -610
0.015844, 154, -2102, 96, 139, 141, -610
0.015981, 154, -2102, 96, 139, 141, -610
0.016119, -53, -2110, 126, 195, 182, -615
0.016260, -53, -2110, 126, 195, 182, -615
0.016399, -53, -2110, 126, 195, 182, -615
0.016537, -53, -2110, 126, 195, 182, -615
0.016676, -53, -2110, 126, 195, 182, -615
0.016813, -53, -2110, 126, 195, 182, -615
0.016950, -53, -2110, 126, 195, 182, -615
0.017088, -53, -2110, 126, 195, 182, -615
0.017225, 309, -2072, 852, 490, 177, -622
0.017366, 309, -2072, 852, 490, 177, -622
0.017505, 309, -2072, 852, 490, 177, -622
0.017643, 309, -2072, 852, 490, 177, -622
0.017780, 309, -2072, 852, 490, 177, -622
0.017919, 309, -2072, 852, 490, 177, -622
0.018056, 309, -2072, 852, 490, 177, -622
0.018193, 844, -1975, 1319, 1266, 187, -968
0.018335, 844, -1975, 1319, 1266, 187, -968
0.018473, 844, -1975, 1319, 1266, 187, -968
0.018610, 844, -1975, 1319, 1266, 187, -968
0.018748, 844, -1975, 1319, 1266, 187, -968
0.018885, 844, -1975, 1319, 1266, 187, -968
0.019022, 844, -1975, 1319, 1266, 187, -968
0.019160, 683, -1994, 448, 2066, 305, -1533
0.019302, 683, -1994, 448, 2066, 305, -1533
0.019440, 683, -1994, 448, 2066, 305, -1533
0.019577, 683, -1994, 448, 2066, 305, -1533
0.019715, 683, -1994, 448, 2066, 305, -1533
0.019852, 683, -1994, 448, 2066, 305, -1533
0.019989, 683, -1994, 448, 2066, 305, -1533
0.020127, 683, -1994, 448, 2066, 305, -1533
0.020265, -499, -2090, -1632, 1887, 469, -1698
0.020407, -499, -2090, -1632, 1887, 469, -1698
0.020545, -499, -2090, -1632, 1887, 469, -1698
0.020682, -499, -2090, -1632, 1887, 469, -1698
0.020819, -499, -2090, -1632, 1887, 469, -1698
0.020957, -499, -2090, -1632, 1887, 469, -1698
0.021095, -499, -2090, -1632, 1887, 469, -1698
0.021232, -1419, -2023, -2294, 476, 509, -1002
0.021374, -1419, -2023, -2294, 476, 509, -1002
0.021512, -1419, -2023, -2294, 476, 509, -1002
0.021648, -1419, -2023, -2294, 476, 509, -1002
0.021784, -1419, -2023, -2294, 476, 509, -1002
0.021919, -1419, -2023, -2294, 476, 509, -1002
0.022055, -1419, -2023, -2294, 476, 509, -1002
0.022191, -759, -1980, -622, -809, 367, -75
0.022327, -759, -1980, -622, -809, 367, -75
0.022462, -759, -1980, -622, -809, 367, -75
0.022598, -759, -1980, -622, -809, 367, -75
0.022734, -759, -1980, -622, -809, 367, -75
0.022869, -759, -1980, -622, -809, 367, -75
0.023005, -759, -1980, -622, -809, 367, -75
0.023141, -759, -1980, -622, -809, 367, -75
0.023276, 256, -2067, 458, -1050, 200, 97
0.023412, 256, -2067, 458, -1050, 200, 97
0.023548, 256, -2067, 458, -1050, 200, 97
0.023684, 256, -2067, 458, -1050, 200, 97
0.023819, 256, -2067, 458, -1050, 200, 97
0.023955, 256, -2067, 458, -1050, 200, 97
0.024090, 256, -2067, 458, -1050, 200, 97
0.024226, 368, -2111, 356, -776, 167, -292
0.024363, 368, -2111, 356, -776, 167, -292
0.024502, 368, -2111, 356, -776, 167, -292
0.024640, 368, -2111, 356, -776, 167, -292
0.024777, 368, -2111, 356, -776, 167, -292
0.024915, 368, -2111, 356, -776, 167, -292
0.025053, 368, -2111, 356, -776, 167, -292
0.025191, 368, -2111, 356, -776, 167, -292
0.025329, 170, -2098, 289, -459, 191, -564
0.025471, 170, -2098, 289, -459, 191, -564
0.025609, 170, -2098, 289, -459, 191, -564
0.025748, 170, -2098, 289, -459, 191, -564
0.025885, 170, -2098, 289, -459, 191, -564
0.026023, 170, -2098, 289, -459, 191, -564
0.026162, 170, -2098, 289, -459, 191, -564
0.026300, 2, -2075, 141, -209, 176, -603
0.026442, 2, -2075, 141, -209, 176, -603
0.026580, 2, -2075, 141, -209, 176, -603
0.026717, 2, -2075, 141, -209, 176, -603
0.026863, 2, -2075, 141, -209, 176, -603
0.027000, 2, -2075, 141, -209, 176, -603
0.027139, 2, -2075, 141, -209, 176, -603
0.027276, -87, -2068, 101, -84, 169, -520
0.027418, -87, -2068, 101, -84, 169, -520
0.027555, -87, -2068, 101, -84, 169, -520
0.027692, -87, -2068, 101, -84, 169, -520
0.027830, -87, -2068, 101, -84, 169, -520
0.027967, -87, -2068, 101, -84, 169, -520
0.028104, -87, -2068, 101, -84, 169, -520
0.028241, -87, -2068, 101, -84, 169, -520
0.028379, 127, -2047, 579, 132, 158, -468
0.028521, 127, -2047, 579, 132, 158, -468
0.028659, 127, -2047, 579, 132, 158, -468
0.028797, 127, -2047, 579, 132, 158, -468
0.028935, 127, -2047, 579, 132, 158, -468
0.029072, 127, -2047, 579, 132, 158, -468
0.029209, 127, -2047, 579, 132, 158, -468
0.029346, 524, -2018, 1039, 720, 132, -651
0.029488, 524, -2018, 1039, 720, 132, -651
0.029626, 524, -2018, 1039, 720, 132, -651
0.029764, 524, -2018, 1039, 720, 132, -651
0.029901, 524, -2018, 1039, 720, 132, -651
0.030038, 524, -2018, 1039, 720, 132, -651
0.030176, 524, -2018, 1039, 720, 132, -651
0.030313, 451, -2039, 127, 1313, 172, -1038
0.030455, 451, -2039, 127, 1313, 172, -1038
0.030593, 451, -2039, 127, 1313, 172, -1038
0.030730, 451, -2039, 127, 1313, 172, -1038
0.030868, 451, -2039, 127, 1313, 172, -1038
0.031005, 451, -2039, 127, 1313, 172, -1038
0.031142, 451, -2039, 127, 1313, 172, -1038
0.031279, 451, -2039, 127, 1313, 172, -1038
0.031417, -515, -2037, -1706, 951, 270, -1137
0.031558, -515, -2037, -1706, 951, 270, -1137
0.031697, -515, -2037, -1706, 951, 270, -1137
0.031834, -515, -2037, -1706, 951, 270, -1137
0.031971, -515, -2037, -1706, 951, 270, -1137
0.032109, -515, -2037, -1706, 951, 270, -1137
0.032246, -515, -2037, -1706, 951, 270, -1137
0.032383, -1239, -2017, -1710, -308, 278, -538
0.032525, -1239, -2017, -1710, -308, 278, -538
0.032664, -1239, -2017, -1710, -308, 278, -538
0.032801, -1239, -2017, -1710, -308, 278, -538
0.032938, -1239, -2017, -1710, -308, 278, -538
0.033076, -1239, -2017, -1710, -308, 278, -538
0.033213, -1239, -2017, -1710, -308, 278, -538
0.033350, -650, -2074, -109, -1157, 122, 205
0.033491, -650, -2074, -109, -1157, 122, 205
0.033630, -650, -2074, -109, -1157, 122, 205
0.033768, -650, -2074, -109, -1157, 122, 205
0.033907, -650, -2074, -109, -1157, 122, 205
0.034045, -650, -2074, -109, -1157, 122, 205
0.034182, -650, -2074, -109, -1157, 122, 205
0.034319, -650, -2074, -109, -1157, 122, 205
0.034457, 141, -2134, 585, -1104, -47, 311
0.034599, 141, -2134, 585, -1104, -47, 311
0.034737, 141, -2134, 585, -1104, -47, 311
0.034875, 141, -2134, 585, -1104, -47, 311
0.035013, 141, -2134, 585, -1104, -47, 311
0.035150, 141, -2134, 585, -1104, -47, 311
0.035287, 141, -2134, 585, -1104, -47, 311
0.035424, 199, -2111, 562, -677, -90, 11
0.035566, 199, -2111, 562, -677, -90, 11
0.035705, 199, -2111, 562, -677, -90, 11
0.035842, 199, -2111, 562, -677, -90, 11
0.035979, 199, -2111, 562, -677, -90, 11
0.036117, 199, -2111, 562, -677, -90, 11
0.036254, 199, -2111, 562, -677, -90, 11
0.036391, 175, -2059, 831, -120, -88, -176
0.036527, 175, -2059, 831, -120, -88, -176
0.036663, 175, -2059, 831, -120, -88, -176
0.036799, 175, -2059, 831, -120, -88, -176
0.036934, 175, -2059, 831, -120, -88, -176
0.037070, 175, -2059, 831, -120, -88, -176
0.037206, 175, -2059, 831, -120, -88, -176
0.037341, 175, -2059, 831, -120, -88, -176
0.037477, 525, -1975, 1366, 696, -68, -338
0.037613, 525, -1975, 1366, 696, -68, -338
0.037748, 525, -1975, 1366, 696, -68, -338
0.037884, 525, -1975, 1366, 696, -68, -338
0.038020, 525, -1975, 1366, 696, -68, -338
0.038155, 525, -1975, 1366, 696, -68, -338
0.038291, 525, -1975, 1366, 696, -68, -338
0.038426, 803, -1982, 1246, 1759, 34, -719
0.038562, 803, -1982, 1246, 1759, 34, -719
0.038698, 803, -1982, 1246, 1759, 34, -719
0.038834, 803, -1982, 1246, 1759, 34, -719
0.038969, 803, -1982, 1246, 1759, 34, -719
0.039105, 803, -1982, 1246, 1759, 34, -719
0.039241, 803, -1982, 1246, 1759, 34, -719
0.039376, 803, -1982, 1246, 1759, 34, -719
0.039512, -93, -2135, -1192, 2120, 176, -1054
0.039648, -93, -2135, -1192, 2120, 176, -1054
0.039789, -93, -2135, -1192, 2120, 176, -1054
0.039929, -93, -2135, -1192, 2120, 176, -1054
0.040067, -93, -2135, -1192, 2120, 176, -1054
0.040205, -93, -2135, -1192, 2120, 176, -1054
0.040342, -93, -2135, -1192, 2120, 176, -1054
0.040480, -1551, -2107, -2957, 816, 278, -551
0.040621, -1551, -2107, -2957, 816, 278, -551
0.040759, -1551, -2107, -2957, 816, 278, -551
0.040896, -1551, -2107, -2957, 816, 278, -551
0.041034, -1551, -2107, -2957, 816, 278, -551
0.041171, -1551, -2107, -2957, 816, 278, -551
0.041309, -1551, -2107, -2957, 816, 278, -551
0.041446, -1263, -1983, -895, -799, 205, 608
0.041587, -1263, -1983, -895, -799, 205, 608
0.041725, -1263, -1983, -895, -799, 205, 608
0.041862, -1263, -1983, -895, -799, 205, 608
0.041999, -1263, -1983, -895, -799, 205, 608
0.042136, -1263, -1983, -895, -799, 205, 608
0.042273, -1263, -1983, -895, -799, 205, 608
0.042410, -1263, -1983, -895, -799, 205, 608
0.042547, 176, -2041, 833, -1111, -28, 1043
0.042689, 176, -2041, 833, -1111, -28, 1043
0.042826, 176, -2041, 833, -1111, -28, 1043
0.042963, 176, -2041, 833, -1111, -28, 1043
0.043100, 176, -2041, 833, -1111, -28, 1043
0.043237, 176, -2041, 833, -1111, -28, 1043
0.043374, 176, -2041, 833, -1111, -28, 1043
0.043512, 643, -2092, 480, -700, -120, 526
0.043652, 643, -2092, 480, -700, -120, 526
0.043790, 643, -2092, 480, -700, -120, 526
0.043927, 643, -2092, 480, -700, -120, 526
0.044065, 643, -2092, 480, -700, -120, 526
0.044202, 643, -2092, 480, -700, -120, 526
0.044339, 643, -2092, 480, -700, -120, 526
0.044481, 443, -2062, 394, -293, -56, 10
0.044620, 443, -2062, 394, -293, -56, 10
0.044758, 443, -2062, 394, -293, -56, 10
0.044895, 443, -2062, 394, -293, -56, 10
0.045034, 443, -2062, 394, -293, -56, 10
0.045171, 443, -2062, 394, -293, -56, 10
0.045308, 443, -2062, 394, -293, -56, 10
0.045446, 443, -2062, 394, -293, -56, 10
0.045580, 291, -2068, 308, 112, -18, -203
0.045720, 291, -2068, 308, 112, -18, -203
0.045858, 291, -2068, 308, 112, -18, -203
0.045995, 291, -2068, 308, 112, -18, -203
0.046134, 291, -2068, 308, 112, -18, -203
0.046272, 291, -2068, 308, 112, -18, -203
0.046410, 291, -2068, 308, 112, -18, -203
0.046549, -59, -2068, -388, 233, 24, -231
0.046690, -59, -2068, -388, 233, 24, -231
0.046829, -59, -2068, -388, 233, 24, -231
0.046966, -59, -2068, -388, 233, 24, -231
0.047104, -59, -2068, -388, 233, 24, -231
0.047242, -59, -2068, -388, 233, 24, -231
0.047379, -59, -2068, -388, 233, 24, -231
0.047516, -290, -2034, -630, -89, 67, -37
0.047654, -290, -2034, -630, -89, 67, -37
0.047792, -290, -2034, -630, -89, 67, -37
0.047930, -290, -2034, -630, -89, 67, -37
0.048068, -290, -2034, -630, -89, 67, -37
0.048205, -290, -2034, -630, -89, 67, -37
0.048343, -290, -2034, -630, -89, 67, -37
0.048481, -290, -2034, -630, -89, 67, -37
0.048619, -49, -2046, -7, -365, 25, 167
0.048760, -49, -2046, -7, -365, 25, 167
0.048899, -49, -2046, -7, -365, 25, 167
0.049036, -49, -2046, -7, -365, 25, 167
0.049173, -49, -2046, -7, -365, 25, 167
0.049310, -49, -2046, -7, -365, 25, 167
0.049448, -49, -2046, -7, -365, 25, 167
0.049585, 242, -2075, 454, -252, -26, 112
0.049727, 242, -2075, 454, -252, -26, 112
0.049865, 242, -2075, 454, -252, -26, 112
0.050003, 242, -2075, 454, -252, -26, 112
0.050141, 242, -2075, 454, -252, -26, 112
0.050278, 242, -2075, 454, -252, -26, 112
0.050415, 242, -2075, 454, -252, -26, 112
0.050553, 271, -2081, 522, 94, 23, -99
0.050690, 271, -2081, 522, 94, 23, -99
0.050829, 271, -2081, 522, 94, 23, -99
0.050966, 271, -2081, 522, 94, 23, -99
0.051103, 271, -2081, 522, 94, 23, -99
0.051241, 271, -2081, 522, 94, 23, -99
0.051378, 271, -2081, 522, 94, 23, -99
0.051515, 271, -2081, 522, 94, 23, -99
0.051653, 297, -2085, 563, 550, 97, -279
0.051794, 297, -2085, 563, 550, 97, -279
0.051932, 297, -2085, 563, 550, 97, -279
0.052071, 297, -2085, 563, 550, 97, -279
0.052208, 297, -2085, 563, 550, 97, -279
0.052345, 297, -2085, 563, 550, 97, -279
0.052484, 297, -2085, 563, 550, 97, -279
0.052621, 492, -2042, 566, 1061, 158, -484
0.052763, 492, -2042, 566, 1061, 158, -484
0.052901, 492, -2042, 566, 1061, 158, -484
0.053044, 492, -2042, 566, 1061, 158, -484
0.053182, 492, -2042, 566, 1061, 158, -484
0.053320, 492, -2042, 566, 1061, 158, -484
0.053458, 492, -2042, 566, 1061, 158, -484
0.053597, 277, -2010, 65, 1414, 254, -749
0.053733, 277, -2010, 65, 1414, 254, -749
0.053867, 277, -2010, 65, 1414, 254, -749
0.054001, 277, -2010, 65, 1414, 254, -749
0.054135, 277, -2010, 65, 1414, 254, -749
0.054269, 277, -2010, 65, 1414, 254, -749
0.054403, 277, -2010, 65, 1414, 254, -749
0.054537, 277, -2010, 65, 1414, 254, -749
0.054672, -481, -2028, -684, 1250, 337, -741
0.054806, -481, -2028, -684, 1250, 337, -741
0.054940, -481, -2028, -684, 1250, 337, -741
0.055074, -481, -2028, -684, 1250, 337, -741
0.055208, -481, -2028, -684, 1250, 337, -741
0.055342, -481, -2028, -684, 1250, 337, -741
0.055476, -481, -2028, -684, 1250, 337, -741
0.055610, -481, -2028, -684, 1250, 337, -741
0.055744, -739, -2030, -508, 750, 316, -314
0.055879, -739, -2030, -508, 750, 316, -314
0.056013, -739, -2030, -508, 750, 316, -314
0.056147, -739, -2030, -508, 750, 316, -314
0.056282, -739, -2030, -508, 750, 316, -314
0.056416, -739, -2030, -508, 750, 316, -314
0.056550, -739, -2030, -508, 750, 316, -314
0.056684, -513, -2036, -350, 406, 211, 70
0.056819, -513, -2036, -350, 406, 211, 70
0.056953, -513, -2036, -350, 406, 211, 70
0.057087, -513, -2036, -350, 406, 211, 70
0.057221, -513, -2036, -350, 406, 211, 70
0.057356, -513, -2036, -350, 406, 211, 70
0.057490, -513, -2036, -350, 406, 211, 70
0.057624, -513, -2036, -350, 406, 211, 70
0.057758, -774, -2045, -1022, -66, 126, 318
0.057893, -774, -2045, -1022, -66, 126, 318
0.058027, -774, -2045, -1022, -66, 126, 318
0.058161, -774, -2045, -1022, -66, 126, 318
0.058295, -774, -2045, -1022, -66, 126, 318
0.058429, -774, -2045, -1022, -66, 126, 318
0.058564, -774, -2045, -1022, -66, 126, 318
0.058698, -1015, -2028, -1015, -855, 35, 785
0.058832, -1015, -2028, -1015, -855, 35, 785
0.058966, -1015, -2028, -1015, -855, 35, 785
0.059100, -1015, -2028, -1015, -855, 35, 785
0.059235, -1015, -2028, -1015, -855, 35, 785
0.059369, -1015, -2028, -1015, -855, 35, 785
0.059503, -1015, -2028, -1015, -855, 35, 785
0.059637, -1015, -2028, -1015, -855, 35, 785
0.059771, -581, -2032, -324, -1418, -138, 1257
0.059906, -581, -2032, -324, -1418, -138, 1257
0.060040, -581, -2032, -324, -1418, -138, 1257
0.060174, -581, -2032, -324, -1418, -138, 1257
0.060309, -581, -2032, -324, -1418, -138, 1257
0.060443, -581, -2032, -324, -1418, -138, 1257
0.060577, -581, -2032, -324, -1418, -138, 1257
0.060711, -132, -2051, -75, -1575, -314, 1362
0.060846, -132, -2051, -75, -1575, -314, 1362
0.060980, -132, -2051, -75, -1575, -314, 1362
0.061114, -132, -2051, -75, -1575, -314, 1362
0.061248, -132, -2051, -75, -1575, -314, 1362
0.061383, -132, -2051, -75, -1575, -314, 1362
0.061517, -132, -2051, -75, -1575, -314, 1362
0.061651, -132, -2051, -75, -1575, -314, 1362
0.061785, -64, -2066, -121, -1586, -422, 1269
0.061920, -64, -2066, -121, -1586, -422, 1269
0.062054, -64, -2066, -121, -1586, -422, 1269
0.062188, -64, -2066, -121, -1586, -422, 1269
0.062322, -64, -2066, -121, -1586, -422, 1269
0.062456, -64, -2066, -121, -1586, -422, 1269
0.062591, -64, -2066, -121, -1586, -422, 1269
0.062725, -134, -2074, -102, -1539, -517, 1223
0.062859, -134, -2074, -102, -1539, -517, 1223
0.062993, -134, -2074, -102, -1539, -517, 1223
0.063127, -134, -2074, -102, -1539, -517, 1223
0.063262, -134, -2074, -102, -1539, -517, 1223
0.063396, -134, -2074, -102, -1539, -517, 1223
0.063530, -134, -2074, -102, -1539, -517, 1223
0.063664, -134, -2074, -102, -1539, -517, 1223
0.063798, -150, -2062, -72, -1422, -607, 1249
0.063933, -150, -2062, -72, -1422, -607, 1249
0.064067, -150, -2062, -72, -1422, -607, 1249
0.064201, -150, -2062, -72, -1422, -607, 1249
0.064336, -150, -2062, -72, -1422, -607, 1249
0.064470, -150, -2062, -72, -1422, -607, 1249
0.064604, -150, -2062, -72, -1422, -607, 1249
0.064738, 27, -2042, -7, -1344, -610, 1263
0.064873, 27, -2042, -7, -1344, -610, 1263
0.065007, 27, -2042, -7, -1344, -610, 1263
0.065142, 27, -2042, -7, -1344, -610, 1263
0.065276, 27, -2042, -7, -1344, -610, 1263
0.065421, 27, -2042, -7, -1344, -610, 1263
0.065556, 27, -2042, -7, -1344, -610, 1263
0.065690, 27, -2042, -7, -1344, -610, 1263
0.065824, 282, -2045, 78, -1374, -532, 1149
0.065958, 282, -2045, 78, -1374, -532, 1149
0.066092, 282, -2045, 78, -1374, -532, 1149
0.066227, 282, -2045, 78, -1374, -532, 1149
0.066361, 282, -2045, 78, -1374, -532, 1149
0.066492, 282, -2045, 78, -1374, -532, 1149
0.066628, 282, -2045, 78, -1374, -532, 1149
0.066763, 282, -2045, 78, -1374, -532, 1149
0.066897, 304, -2069, 98, -1393, -449, 929
0.067032, 304, -2069, 98, -1393, -449, 929
0.067166, 304, -2069, 98, -1393, -449, 929
0.067300, 304, -2069, 98, -1393, -449, 929
0.067434, 304, -2069, 98, -1393, -449, 929
0.067569, 304, -2069, 98, -1393, -449, 929
0.067703, 304, -2069, 98, -1393, -449, 929
0.067832, 298, -2082, 70, -1343, -380, 734
0.067974, 298, -2082, 70, -1343, -380, 734
0.068108, 298, -2082, 70, -1343, -380, 734
0.068242, 298, -2082, 70, -1343, -380, 734
0.068377, 298, -2082, 70, -1343, -380, 734
0.068511, 298, -2082, 70, -1343, -380, 734
0.068646, 298, -2082, 70, -1343, -380, 734
0.068780, 298, -2082, 70, -1343, -380, 734
0.068914, 586, -2079, 73, -1286, -324, 483
0.069048, 586, -2079, 73, -1286, -324, 483
0.069182, 586, -2079, 73, -1286, -324, 483
0.069317, 586, -2079, 73, -1286, -324, 483
0.069451, 586, -2079, 73, -1286, -324, 483
0.069585, 586, -2079, 73, -1286, -324, 483
0.069719, 586, -2079, 73, -1286, -324, 483
0.069853, 590, -2100, 133, -1200, -279, 79
0.069988, 590, -2100, 133, -1200, -279, 79
0.070122, 590, -2100, 133, -1200, -279, 79
0.070256, 590, -2100, 133, -1200, -279, 79
0.070390, 590, -2100, 133, -1200, -279, 79
0.070525, 590, -2100, 133, -1200, -279, 79
0.070659, 590, -2100, 133, -1200, -279, 79
0.070793, 590, -2100, 133, -1200, -279, 79
0.070927, 162, -2131, 220, -1024, -216, -176
0.071062, 162, -2131, 220, -1024, -216, -176
0.071196, 162, -2131, 220, -1024, -216, -176
0.071330, 162, -2131, 220, -1024, -216, -176
0.071464, 162, -2131, 220, -1024, -216, -176
0.071599, 162, -2131, 220, -1024, -216, -176
0.071733, 162, -2131, 220, -1024, -216, -176
0.071867, 66, -2121, 284, -778, -156, -156
0.072001, 66, -2121, 284, -778, -156, -156
0.072136, 66, -2121, 284, -778, -156, -156
0.072270, 66, -2121, 284, -778, -156, -156
0.072405, 66, -2121, 284, -778, -156, -156
0.072539, 66, -2121, 284, -778, -156, -156
0.072673, 66, -2121, 284, -778, -156, -156
0.072807, 66, -2121, 284, -778, -156, -156
0.072942, 306, -2098, 404, -484, -140, -183
0.073076, 306, -2098, 404, -484, -140, -183
0.073210, 306, -2098, 404, -484, -140, -183
0.073344, 306, -2098, 404, -484, -140, -183
0.073479, 306, -2098, 404, -484, -140, -183
0.073613, 306, -2098, 404, -484, -140, -183
0.073747, 306, -2098, 404, -484, -140, -183
0.073881, 481, -2090, 808, -28, -123, -390
0.074015, 481, -2090, 808, -28, -123, -390
0.074150, 481, -2090, 808, -28, -123, -390
0.074284, 481, -2090, 808, -28, -123, -390
0.074418, 481, -2090, 808, -28, -123, -390
0.074552, 481, -2090, 808, -28, -123, -390
0.074687, 481, -2090, 808, -28, -123, -390
0.074821, 481, -2090, 808, -28, -123, -390
0.074955, 856, -2006, 1652, 828, -49, -718
0.075089, 856, -2006, 1652, 828, -49, -718
0.075224, 856, -2006, 1652, 828, -49, -718
0.075358, 856, -2006, 1652, 828, -49, -718
0.075495, 856, -2006, 1652, 828, -49, -718
0.075631, 856, -2006, 1652, 828, -49, -718
0.075765, 856, -2006, 1652, 828, -49, -718
0.075899, 1393, -1858, 2791, 2433, 87, -1336
0.076034, 1393, -1858, 2791, 2433, 87, -1336
0.076168, 1393, -1858, 2791, 2433, 87, -1336
0.076303, 1393, -1858, 2791, 2433, 87, -1336
0.076438, 1393, -1858, 2791, 2433, 87, -1336
0.076572, 1393, -1858, 2791, 2433, 87, -1336
0.076706, 1393, -1858, 2791, 2433, 87, -1336
0.076841, 1393, -1858, 2791, 2433, 87, -1336
0.076975, 722, -2085, 1026, 4224, 269, -2124
0.077109, 722, -2085, 1026, 4224, 269, -2124
0.077243, 722, -2085, 1026, 4224, 269, -2124
0.077377, 722, -2085, 1026, 4224, 269, -2124
0.077512, 722, -2085, 1026, 4224, 269, -2124
0.077646, 722, -2085, 1026, 4224, 269, -2124
0.077780, 722, -2085, 1026, 4224, 269, -2124
0.077914, 722, -2085, 1026, 4224, 269, -2124
0.078062, -1362, -2237, -4058, 3666, 444, -2067
0.078198, -1362, -2237, -4058, 3666, 444, -2067
0.078332, -1362, -2237, -4058, 3666, 444, -2067
0.078466, -1362, -2237, -4058, 3666, 444, -2067
0.078600, -1362, -2237, -4058, 3666, 444, -2067
0.078735, -1362, -2237, -4058, 3666, 444, -2067
0.078869, -1362, -2237, -4058, 3666, 444, -2067
0.079003, -2470, -1893, -4286, 525, 456, -627
0.079137, -2470, -1893, -4286, 525, 456, -627
0.079272, -2470, -1893, -4286, 525, 456, -627
0.079406, -2470, -1893, -4286, 525, 456, -627
0.079540, -2470, -1893, -4286, 525, 456, -627
0.079674, -2470, -1893, -4286, 525, 456, -627
0.079808, -2470, -1893, -4286, 525, 456, -627
0.079943, -1487, -1930, 137, -1452, 146, 922
0.080077, -1487, -1930, 137, -1452, 146, 922
0.080211, -1487, -1930, 137, -1452, 146, 922
0.080346, -1487, -1930, 137, -1452, 146, 922
0.080480, -1487, -1930, 137, -1452, 146, 922
0.080615, -1487, -1930, 137, -1452, 146, 922
0.080749, -1487, -1930, 137, -1452, 146, 922
0.080883, -1487, -1930, 137, -1452, 146, 922
0.081017, -235, -2139, 1014, -1275, -254, 1264
0.081152, -235, -2139, 1014, -1275, -254, 1264
0.081286, -235, -2139, 1014, -1275, -254, 1264
0.081420, -235, -2139, 1014, -1275, -254, 1264
0.081554, -235, -2139, 1014, -1275, -254, 1264
0.081689, -235, -2139, 1014, -1275, -254, 1264
0.081823, -235, -2139, 1014, -1275, -254, 1264
0.081957, -235, -2139, 1014, -1275, -254, 1264
0.082091, -65, -2064, -205, -973, -408, 874
0.082225, -65, -2064, -205, -973, -408, 874
0.082360, -65, -2064, -205, -973, -408, 874
0.082494, -65, -2064, -205, -973, -408, 874
0.082628, -65, -2064, -205, -973, -408, 874
0.082762, -65, -2064, -205, -973, -408, 874
0.082897, -65, -2064, -205, -973, -408, 874
0.083031, -393, -2043, -225, -1004, -482, 712
0.083165, -393, -2043, -225, -1004, -482, 712
0.083299, -393, -2043, -225, -1004, -482, 712
0.083434, -393, -2043, -225, -1004, -482, 712
0.083568, -393, -2043, -225, -1004, -482, 712
0.083702, -393, -2043, -225, -1004, -482, 712
0.083836, -393, -2043, -225, -1004, -482, 712
0.083970, -393, -2043, -225, -1004, -482, 712
0.084104, -515, -2070, -169, -1024, -631, 891
0.084239, -515, -2070, -169, -1024, -631, 891
0.084373, -515, -2070, -169, -1024, -631, 891
0.084507, -515, -2070, -169, -1024, -631, 891
0.084642, -515, -2070, -169, -1024, -631, 891
0.084776, -515, -2070, -169, -1024, -631, 891
0.084910, -515, -2070, -169, -1024, -631, 891
0.085044, -387, -2073, -232, -1050, -721, 1129
0.085179, -387, -2073, -232, -1050, -721, 1129
0.085313, -387, -2073, -232, -1050, -721, 1129
0.085447, -387, -2073, -232, -1050, -721, 1129
0.085581, -387, -2073, -232, -1050, -721, 1129
0.085715, -387, -2073, -232, -1050, -721, 1129
0.085850, -387, -2073, -232, -1050, -721, 1129
0.085984, -387, -2073, -232, -1050, -721, 1129
0.086118, -115, -2066, -93, -1063, -760, 1237
0.086252, -115, -2066, -93, -1063, -760, 1237
0.086387, -115, -2066, -93, -1063, -760, 1237
0.086521, -115, -2066, -93, -1063, -760, 1237
0.086655, -115, -2066, -93, -1063, -760, 1237
0.086789, -115, -2066, -93, -1063, -760, 1237
0.086923, -115, -2066, -93, -1063, -760, 1237
0.087057, 231, -2073, 145, -999, -802, 1128
0.087192, 231, -2073, 145, -999, -802, 1128
0.087326, 231, -2073, 145, -999, -802, 1128
0.087460, 231, -2073, 145, -999, -802, 1128
0.087595, 231, -2073, 145, -999, -802, 1128
0.087729, 231, -2073, 145, -999, -802, 1128
0.087863, 231, -2073, 145, -999, -802, 1128
0.087997, 231, -2073, 145, -999, -802, 1128
0.088131, 347, -2098, 339, -858, -759, 838
0.088266, 347, -2098, 339, -858, -759, 838
0.088400, 347, -2098, 339, -858, -759, 838
0.088534, 347, -2098, 339, -858, -759, 838
0.088669, 347, -2098, 339, -858, -759, 838
0.088803, 347, -2098, 339, -858, -759, 838
0.088937, 347, -2098, 339, -858, -759, 838
0.089071, 293, -2108, 466, -643, -609, 563
0.089206, 293, -2108, 466, -643, -609, 563
0.089339, 293, -2108, 466, -643, -609, 563
0.089473, 293, -2108, 466, -643, -609, 563
0.089606, 293, -2108, 466, -643, -609, 563
0.089740, 293, -2108, 466, -643, -609, 563
0.089873, 293, -2108, 466, -643, -609, 563
0.090007, 293, -2108, 466, -643, -609, 563
0.090146, 508, -2093, 732, -282, -466, 319
0.090284, 508, -2093, 732, -282, -466, 319
0.090418, 508, -2093, 732, -282, -466, 319
0.090551, 508, -2093, 732, -282, -466, 319
0.090685, 508, -2093, 732, -282, -466, 319
0.090818, 508, -2093, 732, -282, -466, 319
0.090952, 508, -2093, 732, -282, -466, 319
0.091085, 508, -2093, 732, -282, -466, 319
0.091219, 1008, -2083, 1450, 426, -356, -113
0.091353, 1008, -2083, 1450, 426, -356, -113
0.091486, 1008, -2083, 1450, 426, -356, -113
0.091620, 1008, -2083, 1450, 426, -356, -113
0.091753, 1008, -2083, 1450, 426, -356, -113
0.091887, 1008, -2083, 1450, 426, -356, -113
0.092020, 1008, -2083, 1450, 426, -356, -113
0.092154, 1751, -2059, 2668, 1842, -190, -894
0.092292, 1751, -2059, 2668, 1842, -190, -894
0.092426, 1751, -2059, 2668, 1842, -190, -894
0.092561, 1751, -2059, 2668, 1842, -190, -894
0.092695, 1751, -2059, 2668, 1842, -190, -894
0.092829, 1751, -2059, 2668, 1842, -190, -894
0.092963, 1751, -2059, 2668, 1842, -190, -894
0.093097, 1751, -2059, 2668, 1842, -190, -894
0.093232, 1987, -2093, 1918, 3769, 82, -2066
0.093366, 1987, -2093, 1918, 3769, 82, -2066
0.093500, 1987, -2093, 1918, 3769, 82, -2066
0.093634, 1987, -2093, 1918, 3769, 82, -2066
0.093768, 1987, -2093, 1918, 3769, 82, -2066
0.093902, 1987, -2093, 1918, 3769, 82, -2066
0.094037, 1987, -2093, 1918, 3769, 82, -2066
0.094171, 279, -2102, -2410, 4091, 389, -2920
0.094305, 279, -2102, -2410, 4091, 389, -2920
0.094439, 279, -2102, -2410, 4091, 389, -2920
0.094574, 279, -2102, -2410, 4091, 389, -2920
0.094708, 279, -2102, -2410, 4091, 389, -2920
0.094842, 279, -2102, -2410, 4091, 389, -2920
0.094976, 279, -2102, -2410, 4091, 389, -2920
0.095110, 279, -2102, -2410, 4091, 389, -2920
0.095245, -1847, -1962, -4007, 1816, 550, -2279
0.095379, -1847, -1962, -4007, 1816, 550, -2279
0.095513, -1847, -1962, -4007, 1816, 550, -2279
0.095647, -1847, -1962, -4007, 1816, 550, -2279
0.095781, -1847, -1962, -4007, 1816, 550, -2279
0.095916, -1847, -1962, -4007, 1816, 550, -2279
0.096050, -1847, -1962, -4007, 1816, 550, -2279
0.096184, -1705, -1954, -709, -172, 384, -701
0.096319, -1705, -1954, -709, -172, 384, -701
0.096453, -1705, -1954, -709, -172, 384, -701
0.096587, -1705, -1954, -709, -172, 384, -701
0.096722, -1705, -1954, -709, -172, 384, -701
0.096856, -1705, -1954, -709, -172, 384, -701
0.096990, -1705, -1954, -709, -172, 384, -701
0.097124, -1705, -1954, -709, -172, 384, -701
0.097258, -703, -2064, 448, -408, 45, 160
0.097393, -703, -2064, 448, -408, 45, 160
0.097527, -703, -2064, 448, -408, 45, 160
0.097661, -703, -2064, 448, -408, 45, 160
0.097795, -703, -2064, 448, -408, 45, 160
0.097930, -703, -2064, 448, -408, 45, 160
0.098064, -703, -2064, 448, -408, 45, 160
0.098198, -583, -2070, -627, -453, -154, 307
0.098332, -583, -2070, -627, -453, -154, 307
0.098467, -583, -2070, -627, -453, -154, 307
0.098601, -583, -2070, -627, -453, -154, 307
0.098735, -583, -2070, -627, -453, -154, 307
0.098869, -583, -2070, -627, -453, -154, 307
0.099003, -583, -2070, -627, -453, -154, 307
0.099138, -583, -2070, -627, -453, -154, 307
0.099272, -403, -2071, -282, -713, -300, 487
0.099406, -403, -2071, -282, -713, -300, 487
0.099540, -403, -2071, -282, -713, -300, 487
0.099674, -403, -2071, -282, -713, -300, 487
0.099809, -403, -2071, -282, -713, -300, 487
0.099943, -403, -2071, -282, -713, -300, 487
0.100077, -403, -2071, -282, -713, -300, 487
0.100211, -403, -2071, -282, -713, -300, 487
0.100346, 216, -2096, 460, -582, -479, 547
0.100480, 216, -2096, 460, -582, -479, 547
0.100614, 216, -2096, 460, -582, -479, 547
0.100749, 216, -2096, 460, -582, -479, 547
0.100883, 216, -2096, 460, -582, -479, 547
0.101017, 216, -2096, 460, -582, -479, 547
0.101151, 216, -2096, 460, -582, -479, 547
0.101286, 531, -2092, 687, -62, -530, 286
0.101420, 531, -2092, 687, -62, -530, 286
0.101554, 531, -2092, 687, -62, -530, 286
0.101689, 531, -2092, 687, -62, -530, 286
0.101823, 531, -2092, 687, -62, -530, 286
0.101957, 531, -2092, 687, -62, -530, 286
0.102091, 531, -2092, 687, -62, -530, 286
0.102225, 531, -2092, 687, -62, -530, 286
0.102360, 744, -2030, 1125, 680, -443, -64
0.102498, 744, -2030, 1125, 680, -443, -64
0.102633, 744, -2030, 1125, 680, -443, -64
0.102767, 744, -2030, 1125, 680, -443, -64
0.102902, 744, -2030, 1125, 680, -443, -64
0.103037, 744, -2030, 1125, 680, -443, -64
0.103171, 744, -2030, 1125, 680, -443, -64
0.103305, 1356, -1946, 1906, 1813, -299, -588
0.103440, 1356, -1946, 1906, 1813, -299, -588
0.103574, 1356, -1946, 1906, 1813, -299, -588
0.103708, 1356, -1946, 1906, 1813, -299, -588
0.103843, 1356, -1946, 1906, 1813, -299, -588
0.103977, 1356, -1946, 1906, 1813, -299, -588
0.104111, 1356, -1946, 1906, 1813, -299, -588
0.104245, 1356, -1946, 1906, 1813, -299, -588
0.104380, 793, -2037, 132, 2789, -86, -1366
0.104514, 793, -2037, 132, 2789, -86, -1366
0.104648, 793, -2037, 132, 2789, -86, -1366
0.104781, 793, -2037, 132, 2789, -86, -1366
0.104915, 793, -2037, 132, 2789, -86, -1366
0.105048, 793, -2037, 132, 2789, -86, -1366
0.105182, 793, -2037, 132, 2789, -86, -1366
0.105315, -1633, -2126, -3268, 1881, 155, -1322
0.105449, -1633, -2126, -3268, 1881, 155, -1322
0.105583, -1633, -2126, -3268, 1881, 155, -1322
0.105716, -1633, -2126, -3268, 1881, 155, -1322
0.105850, -1633, -2126, -3268, 1881, 155, -1322
0.105983, -1633, -2126, -3268, 1881, 155, -1322
0.106117, -1633, -2126, -3268, 1881, 155, -1322
0.106250, -1633, -2126, -3268, 1881, 155, -1322
0.106384, -2509, -2010, -2303, -352, 132, 150
0.106518, -2509, -2010, -2303, -352, 132, 150
0.106652, -2509, -2010, -2303, -352, 132, 150
0.106785, -2509, -2010, -2303, -352, 132, 150
0.106919, -2509, -2010, -2303, -352, 132, 150
0.107052, -2509, -2010, -2303, -352, 132, 150
0.107186, -2509, -2010, -2303, -352, 132, 150
0.107319, -793, -2009, 514, -1311, -233, 1347
0.107453, -793, -2009, 514, -1311, -233, 1347
0.107586, -793, -2009, 514, -1311, -233, 1347
0.107720, -793, -2009, 514, -1311, -233, 1347
0.107854, -793, -2009, 514, -1311, -233, 1347
0.107987, -793, -2009, 514, -1311, -233, 1347
0.108121, -793, -2009, 514, -1311, -233, 1347
0.108254, -793, -2009, 514, -1311, -233, 1347
0.108390, 304, -2094, 502, -1065, -501, 1149
0.108529, 304, -2094, 502, -1065, -501, 1149
0.108663, 304, -2094, 502, -1065, -501, 1149
0.108797, 304, -2094, 502, -1065, -501, 1149
0.108931, 304, -2094, 502, -1065, -501, 1149
0.109065, 304, -2094, 502, -1065, -501, 1149
0.109199, 304, -2094, 502, -1065, -501, 1149
0.109333, 304, -2094, 502, -1065, -501, 1149
0.109464, 226, -2096, -26, -849, -497, 567
0.109599, 226, -2096, -26, -849, -497, 567
0.109733, 226, -2096, -26, -849, -497, 567
0.109867, 226, -2096, -26, -849, -497, 567
0.110001, 226, -2096, -26, -849, -497, 567
0.110136, 226, -2096, -26, -849, -497, 567
0.110270, 226, -2096, -26, -849, -497, 567
0.110404, 291, -2092, 125, -654, -500, 265
0.110538, 291, -2092, 125, -654, -500, 265
0.110673, 291, -2092, 125, -654, -500, 265
0.110807, 291, -2092, 125, -654, -500, 265
0.110941, 291, -2092, 125, -654, -500, 265
0.111075, 291, -2092, 125, -654, -500, 265
0.111209, 291, -2092, 125, -654, -500, 265
0.111344, 291, -2092, 125, -654, -500, 265
0.111478, 565, -2085, 222, -409, -502, 31
0.111612, 565, -2085, 222, -409, -502, 31
0.111746, 565, -2085, 222, -409, -502, 31
0.111881, 565, -2085, 222, -409, -502, 31
0.112015, 565, -2085, 222, -409, -502, 31
0.112149, 565, -2085, 222, -409, -502, 31
0.112284, 565, -2085, 222, -409, -502, 31
0.112418, 696, -2083, 461, -117, -353, -279
0.112553, 696, -2083, 461, -117, -353, -279
0.112687, 696, -2083, 461, -117, -353, -279
0.112821, 696, -2083, 461, -117, -353, -279
0.112956, 696, -2083, 461, -117, -353, -279
0.113090, 696, -2083, 461, -117, -353, -279
0.113224, 696, -2083, 461, -117, -353, -279
0.113358, 696, -2083, 461, -117, -353, -279
0.113492, 513, -2069, 848, 364, -188, -568
0.113627, 513, -2069, 848, 364, -188, -568
0.113761, 513, -2069, 848, 364, -188, -568
0.113895, 513, -2069, 848, 364, -188, -568
0.114030, 513, -2069, 848, 364, -188, -568
0.114164, 513, -2069, 848, 364, -188, -568
0.114298, 513, -2069, 848, 364, -188, -568
0.114441, 327, -2022, 993, 1050, -72, -720
0.114577, 327, -2022, 993, 1050, -72, -720
0.114713, 327, -2022, 993, 1050, -72, -720
0.114864, 327, -2022, 993, 1050, -72, -720
0.114999, 327, -2022, 993, 1050, -72, -720
0.115134, 327, -2022, 993, 1050, -72, -720
0.115268, 327, -2022, 993, 1050, -72, -720
0.115402, 327, -2022, 993, 1050, -72, -720
0.115536, 262, -2012, 449, 1605, 69, -814
0.115671, 262, -2012, 449, 1605, 69, -814
0.115805, 262, -2012, 449, 1605, 69, -814
0.115939, 262, -2012, 449, 1605, 69, -814
0.116069, 262, -2012, 449, 1605, 69, -814
0.116205, 262, -2012, 449, 1605, 69, -814
0.116341, 262, -2012, 449, 1605, 69, -814
0.116476, 210, -2015, -247, 1680, 176, -906
0.116611, 210, -2015, -247, 1680, 176, -906
0.116746, 210, -2015, -247, 1680, 176, -906
0.116884, 210, -2015, -247, 1680, 176, -906
0.117023, 210, -2015, -247, 1680, 176, -906
0.117159, 210, -2015, -247, 1680, 176, -906
0.117294, 210, -2015, -247, 1680, 176, -906
0.117428, 210, -2015, -247, 1680, 176, -906
0.117563, 215, -2039, -290, 1528, 210, -986
0.117695, 215, -2039, -290, 1528, 210, -986
0.117830, 215, -2039, -290, 1528, 210, -986
0.117965, 215, -2039, -290, 1528, 210, -986
0.118099, 215, -2039, -290, 1528, 210, -986
0.118233, 215, -2039, -290, 1528, 210, -986
0.118362, 215, -2039, -290, 1528, 210, -986
0.118498, -363, -2074, -1007, 1253, 245, -981
0.118633, -363, -2074, -1007, 1253, 245, -981
0.118767, -363, -2074, -1007, 1253, 245, -981
0.118902, -363, -2074, -1007, 1253, 245, -981
0.119037, -363, -2074, -1007, 1253, 245, -981
0.119171, -363, -2074, -1007, 1253, 245, -981
0.119305, -363, -2074, -1007, 1253, 245, -981
0.119439, -363, -2074, -1007, 1253, 245, -981
0.119574, -1514, -2030, -1992, 279, 241, -452
0.119708, -1514, -2030, -1992, 279, 241, -452
0.119842, -1514, -2030, -1992, 279, 241, -452
0.119977, -1514, -2030, -1992, 279, 241, -452
0.120111, -1514, -2030, -1992, 279, 241, -452
0.120245, -1514, -2030, -1992, 279, 241, -452
0.120382, -1514, -2030, -1992, 279, 241, -452
0.120516, -1538, -2034, -977, -950, 37, 598
0.120650, -1538, -2034, -977, -950, 37, 598
0.120785, -1538, -2034, -977, -950, 37, 598
0.120919, -1538, -2034, -977, -950, 37, 598
0.121053, -1538, -2034, -977, -950, 37, 598
0.121188, -1538, -2034, -977, -950, 37, 598
0.121322, -1538, -2034, -977, -950, 37, 598
0.121456, -1538, -2034, -977, -950, 37, 598
0.121590, -449, -2094, 338, -1321, -302, 1221
0.121725, -449, -2094, 338, -1321, -302, 1221
0.121859, -449, -2094, 338, -1321, -302, 1221
0.121994, -449, -2094, 338, -1321, -302, 1221
0.122128, -449, -2094, 338, -1321, -302, 1221
0.122262, -449, -2094, 338, -1321, -302, 1221
0.122396, -449, -2094, 338, -1321, -302, 1221
0.122531, 79, -2101, 308, -1043, -495, 1112
0.122660, 79, -2101, 308, -1043, -495, 1112
0.122791, 79, -2101, 308, -1043, -495, 1112
0.122927, 79, -2101, 308, -1043, -495, 1112
0.123062, 79, -2101, 308, -1043, -495, 1112
0.123197, 79, -2101, 308, -1043, -495, 1112
0.123331, 79, -2101, 308, -1043, -495, 1112
0.123465, 79, -2101, 308, -1043, -495, 1112
0.123600, 162, -2092, 232, -706, -518, 874
0.123734, 162, -2092, 232, -706, -518, 874
0.123869, 162, -2092, 232, -706, -518, 874
0.124003, 162, -2092, 232, -706, -518, 874
0.124137, 162, -2092, 232, -706, -518, 874
0.124272, 162, -2092, 232, -706, -518, 874
0.124412, 162, -2092, 232, -706, -518, 874
0.124547, 411, -2089, 477, -311, -504, 687
0.124681, 411, -2089, 477, -311, -504, 687
0.124816, 411, -2089, 477, -311, -504, 687
0.124950, 411, -2089, 477, -311, -504, 687
0.125085, 411, -2089, 477, -311, -504, 687
0.125219, 411, -2089, 477, -311, -504, 687
0.125353, 411, -2089, 477, -311, -504, 687
0.125487, 411, -2089, 477, -311, -504, 687
0.125621, 610, -2079, 711, 174, -420, 416
0.125756, 610, -2079, 711, 174, -420, 416
0.125890, 610, -2079, 711, 174, -420, 416
0.126024, 610, -2079, 711, 174, -420, 416
0.126158, 610, -2079, 711, 174, -420, 416
0.126292, 610, -2079, 711, 174, -420, 416
0.126427, 610, -2079, 711, 174, -420, 416
0.126561, 610, -2079, 711, 174, -420, 416
0.126695, 734, -2077, 708, 722, -240, 69
0.126829, 734, -2077, 708, 722, -240, 69
0.126964, 734, -2077, 708, 722, -240, 69
0.127098, 734, -2077, 708, 722, -240, 69
0.127232, 734, -2077, 708, 722, -240, 69
0.127383, 734, -2077, 708, 722, -240, 69
0.127518, 734, -2077, 708, 722, -240, 69
0.127652, 543, -2066, -57, 1053, -54, -306
0.127787, 543, -2066, -57, 1053, -54, -306
0.127921, 543, -2066, -57, 1053, -54, -306
0.128055, 543, -2066, -57, 1053, -54, -306
0.128189, 543, -2066, -57, 1053, -54, -306
0.128324, 543, -2066, -57, 1053, -54, -306
0.128458, 543, -2066, -57, 1053, -54, -306
0.128593, 543, -2066, -57, 1053, -54, -306
0.128727, -125, -2026, -914, 770, 89, -461
0.128861, -125, -2026, -914, 770, 89, -461
0.128995, -125, -2026, -914, 770, 89, -461
0.129130, -125, -2026, -914, 770, 89, -461
0.129264, -125, -2026, -914, 770, 89, -461
0.129398, -125, -2026, -914, 770, 89, -461
0.129532, -125, -2026, -914, 770, 89, -461
0.129666, -548, -2025, -697, 132, 141, -221
0.129801, -548, -2025, -697, 132, 141, -221
0.129935, -548, -2025, -697, 132, 141, -221
0.130069, -548, -2025, -697, 132, 141, -221
0.130203, -548, -2025, -697, 132, 141, -221
0.130337, -548, -2025, -697, 132, 141, -221
0.130472, -548, -2025, -697, 132, 141, -221
0.130606, -548, -2025, -697, 132, 141, -221
0.130740, -418, -2068, -71, -247, 71, 101
0.130874, -418, -2068, -71, -247, 71, 101
0.131008, -418, -2068, -71, -247, 71, 101
0.131143, -418, -2068, -71, -247, 71, 101
0.131277, -418, -2068, -71, -247, 71, 101
0.131411, -418, -2068, -71, -247, 71, 101
0.131545, -418, -2068, -71, -247, 71, 101
0.131679, -253, -2068, 128, -270, -13, 232
0.131813, -253, -2068, 128, -270, -13, 232
0.131948, -253, -2068, 128, -270, -13, 232
0.132082, -253, -2068, 128, -270, -13, 232
0.132216, -253, -2068, 128, -270, -13, 232
0.132351, -253, -2068, 128, -270, -13, 232
0.132485, -253, -2068, 128, -270, -13, 232
0.132619, -253, -2068, 128, -270, -13, 232
0.132753, -72, -2030, 243, -128, -43, 259
0.132887, -72, -2030, 243, -128, -43, 259
0.133021, -72, -2030, 243, -128, -43, 259
0.133156, -72, -2030, 243, -128, -43, 259
0.133290, -72, -2030, 243, -128, -43, 259
0.133424, -72, -2030, 243, -128, -43, 259
0.133558, -72, -2030, 243, -128, -43, 259
0.133692, 419, -1996, 549, 169, -63, 153
0.133827, 419, -1996, 549, 169, -63, 153
0.133961, 419, -1996, 549, 169, -63, 153
0.134095, 419, -1996, 549, 169, -63, 153
0.134229, 419, -1996, 549, 169, -63, 153
0.134363, 419, -1996, 549, 169, -63, 153
0.134498, 419, -1996, 549, 169, -63, 153
0.134632, 419, -1996, 549, 169, -63, 153
0.134766, 1025, -2001, 719, 675, -34, -275
0.134900, 1025, -2001, 719, 675, -34, -275
0.135034, 1025, -2001, 719, 675, -34, -275
0.135168, 1025, -2001, 719, 675, -34, -275
0.135303, 1025, -2001, 719, 675, -34, -275
0.135437, 1025, -2001, 719, 675, -34, -275
0.135571, 1025, -2001, 719, 675, -34, -275
0.135705, 785, -2080, -127, 1077, 101, -892
0.135839, 785, -2080, -127, 1077, 101, -892
0.135974, 785, -2080, -127, 1077, 101, -892
0.136108, 785, -2080, -127, 1077, 101, -892
0.136242, 785, -2080, -127, 1077, 101, -892
0.136377, 785, -2080, -127, 1077, 101, -892
0.136511, 785, -2080, -127, 1077, 101, -892
0.136645, 785, -2080, -127, 1077, 101, -892
0.136779, -351, -2111, -1441, 726, 259, -1025
0.136913, -351, -2111, -1441, 726, 259, -1025
0.137048, -351, -2111, -1441, 726, 259, -1025
0.137182, -351, -2111, -1441, 726, 259, -1025
0.137326, -351, -2111, -1441, 726, 259, -1025
0.137463, -351, -2111, -1441, 726, 259, -1025
0.137597, -351, -2111, -1441, 726, 259, -1025
0.137732, -601, -2043, -1113, -166, 287, -487
0.137866, -601, -2043, -1113, -166, 287, -487
0.138001, -601, -2043, -1113, -166, 287, -487
0.138135, -601, -2043, -1113, -166, 287, -487
0.138269, -601, -2043, -1113, -166, 287, -487
0.138403, -601, -2043, -1113, -166, 287, -487
0.138537, -601, -2043, -1113, -166, 287, -487
0.138672, -601, -2043, -1113, -166, 287, -487
0.138806, 126, -2032, 97, -612, 193, -143
0.138940, 126, -2032, 97, -612, 193, -143
0.139074, 126, -2032, 97, -612, 193, -143
0.139209, 126, -2032, 97, -612, 193, -143
0.139343, 126, -2032, 97, -612, 193, -143
0.139477, 126, -2032, 97, -612, 193, -143
0.139611, 126, -2032, 97, -612, 193, -143
0.139745, 126, -2032, 97, -612, 193, -143
0.139880, 108, -2075, 157, -546, 152, -306
0.140014, 108, -2075, 157, -546, 152, -306
0.140156, 108, -2075, 157, -546, 152, -306
0.140292, 108, -2075, 157, -546, 152, -306
0.140426, 108, -2075, 157, -546, 152, -306
0.140560, 108, -2075, 157, -546, 152, -306
0.140694, 108, -2075, 157, -546, 152, -306
0.140829, -541, -2089, -160, -499, 175, -284
0.140963, -541, -2089, -160, -499, 175, -284
0.141097, -541, -2089, -160, -499, 175, -284
0.141232, -541, -2089, -160, -499, 175, -284
0.141366, -541, -2089, -160, -499, 175, -284
0.141500, -541, -2089, -160, -499, 175, -284
0.141634, -541, -2089, -160, -499, 175, -284
0.141768, -541, -2089, -160, -499, 175, -284
0.141903, -616, -2091, 33, -491, 109, 111
0.142037, -616, -2091, 33, -491, 109, 111
0.142171, -616, -2091, 33, -491, 109, 111
0.142305, -616, -2091, 33, -491, 109, 111
0.142439, -616, -2091, 33, -491, 109, 111
0.142574, -616, -2091, 33, -491, 109, 111
0.142708, -616, -2091, 33, -491, 109, 111
0.142842, 43, -2078, 417, -304, -18, 346
0.142976, 43, -2078, 417, -304, -18, 346
0.143111, 43, -2078, 417, -304, -18, 346
0.143245, 43, -2078, 417, -304, -18, 346
0.143379, 43, -2078, 417, -304, -18, 346
0.143513, 43, -2078, 417, -304, -18, 346
0.143647, 43, -2078, 417, -304, -18, 346
0.143782, 43, -2078, 417, -304, -18, 346
0.143916, 798, -2050, 857, 164, -57, 62
0.144050, 798, -2050, 857, 164, -57, 62
0.144184, 798, -2050, 857, 164, -57, 62
0.144319, 798, -2050, 857, 164, -57, 62
0.144453, 798, -2050, 857, 164, -57, 62
0.144587, 798, -2050, 857, 164, -57, 62
0.144721, 798, -2050, 857, 164, -57, 62
0.144856, 1035, -2024, 1358, 984, 28, -590
0.144990, 1035, -2024, 1358, 984, 28, -590
0.145124, 1035, -2024, 1358, 984, 28, -590
0.145258, 1035, -2024, 1358, 984, 28, -590
0.145392, 1035, -2024, 1358, 984, 28, -590
0.145527, 1035, -2024, 1358, 984, 28, -590
0.145661, 1035, -2024, 1358, 984, 28, -590
0.145795, 1035, -2024, 1358, 984, 28, -590
0.145929, -158, -2070, 342, 1832, 177, -1076
0.146063, -158, -2070, 342, 1832, 177, -1076
0.146198, -158, -2070, 342, 1832, 177, -1076
0.146332, -158, -2070, 342, 1832, 177, -1076
0.146466, -158, -2070, 342, 1832, 177, -1076
0.146600, -158, -2070, 342, 1832, 177, -1076
0.146735, -158, -2070, 342, 1832, 177, -1076
0.146869, -2551, -2078, -2167, 1458, 272, -413
0.147003, -2551, -2078, -2167, 1458, 272, -413
0.147137, -2551, -2078, -2167, 1458, 272, -413
0.147271, -2551, -2078, -2167, 1458, 272, -413
0.147406, -2551, -2078, -2167, 1458, 272, -413
0.147540, -2551, -2078, -2167, 1458, 272, -413
0.147674, -2551, -2078, -2167, 1458, 272, -413
0.147808, -2551, -2078, -2167, 1458, 272, -413
0.147942, -2935, -1965, -2117, -192, 144, 1509
0.148077, -2935, -1965, -2117, -192, 144, 1509
0.148211, -2935, -1965, -2117, -192, 144, 1509
0.148346, -2935, -1965, -2117, -192, 144, 1509
0.148480, -2935, -1965, -2117, -192, 144, 1509
0.148614, -2935, -1965, -2117, -192, 144, 1509
0.148748, -2935, -1965, -2117, -192, 144, 1509
0.148882, -750, -1978, -4, -1243, -187, 2819
0.149017, -750, -1978, -4, -1243, -187, 2819
0.149151, -750, -1978, -4, -1243, -187, 2819
0.149285, -750, -1978, -4, -1243, -187, 2819
0.149420, -750, -1978, -4, -1243, -187, 2819
0.149554, -750, -1978, -4, -1243, -187, 2819
0.149688, -750, -1978, -4, -1243, -187, 2819
0.149822, -750, -1978, -4, -1243, -187, 2819
0.149956, 565, -2075, 440, -1218, -411, 2500
0.150091, 565, -2075, 440, -1218, -411, 2500
0.150225, 565, -2075, 440, -1218, -411, 2500
0.150359, 565, -2075, 440, -1218, -411, 2500
0.150494, 565, -2075, 440, -1218, -411, 2500
0.150629, 565, -2075, 440, -1218, -411, 2500
0.150764, 565, -2075, 440, -1218, -411, 2500
0.150898, 398, -2082, 41, -1024, -394, 1743
0.151033, 398, -2082, 41, -1024, -394, 1743
0.151168, 398, -2082, 41, -1024, -394, 1743
0.151302, 398, -2082, 41, -1024, -394, 1743
0.151436, 398, -2082, 41, -1024, -394, 1743
0.151570, 398, -2082, 41, -1024, -394, 1743
0.151704, 398, -2082, 41, -1024, -394, 1743
0.151839, 398, -2082, 41, -1024, -394, 1743
0.151973, 382, -2065, 133, -881, -346, 1352
0.152107, 382, -2065, 133, -881, -346, 1352
0.152241, 382, -2065, 133, -881, -346, 1352
0.152374, 382, -2065, 133, -881, -346, 1352
0.152509, 382, -2065, 133, -881, -346, 1352
0.152651, 382, -2065, 133, -881, -346, 1352
0.152786, 382, -2065, 133, -881, -346, 1352
0.152920, 382, -2065, 133, -881, -346, 1352
0.153054, 689, -2062, 244, -676, -328, 1041
0.153189, 689, -2062, 244, -676, -328, 1041
0.153323, 689, -2062, 244, -676, -328, 1041
0.153457, 689, -2062, 244, -676, -328, 1041
0.153591, 689, -2062, 244, -676, -328, 1041
0.153725, 689, -2062, 244, -676, -328, 1041
0.153859, 689, -2062, 244, -676, -328, 1041
0.153994, 867, -2072, 238, -434, -244, 607
0.154128, 867, -2072, 238, -434, -244, 607
0.154262, 867, -2072, 238, -434, -244, 607
0.154396, 867, -2072, 238, -434, -244, 607
0.154531, 867, -2072, 238, -434, -244, 607
0.154665, 867, -2072, 238, -434, -244, 607
0.154799, 867, -2072, 238, -434, -244, 607
0.154933, 867, -2072, 238, -434, -244, 607
0.155067, 1018, -2092, 315, -179, -114, 114
0.155202, 1018, -2092, 315, -179, -114, 114
0.155336, 1018, -2092, 315, -179, -114, 114
0.155470, 1018, -2092, 315, -179, -114, 114
0.155605, 1018, -2092, 315, -179, -114, 114
0.155740, 1018, -2092, 315, -179, -114, 114
0.155874, 1018, -2092, 315, -179, -114, 114
0.156007, 1326, -2088, 433, 137, 33, -489
0.156141, 1326, -2088, 433, 137, 33, -489
0.156275, 1326, -2088, 433, 137, 33, -489
0.156417, 1326, -2088, 433, 137, 33, -489
0.156551, 1326, -2088, 433, 137, 33, -489
0.156686, 1326, -2088, 433, 137, 33, -489
0.156820, 1326, -2088, 433, 137, 33, -489
0.156954, 1326, -2088, 433, 137, 33, -489
0.157088, 1264, -2085, 282, 446, 205, -1229
0.157222, 1264, -2085, 282, 446, 205, -1229
0.157357, 1264, -2085, 282, 446, 205, -1229
0.157491, 1264, -2085, 282, 446, 205, -1229
0.157625, 1264, -2085, 282, 446, 205, -1229
0.157759, 1264, -2085, 282, 446, 205, -1229
0.157893, 1264, -2085, 282, 446, 205, -1229
0.158027, 433, -2098, -63, 600, 378, -1730
0.158162, 433, -2098, -63, 600, 378, -1730
0.158296, 433, -2098, -63, 600, 378, -1730
0.158430, 433, -2098, -63, 600, 378, -1730
0.158565, 433, -2098, -63, 600, 378, -1730
0.158699, 433, -2098, -63, 600, 378, -1730
0.158833, 433, -2098, -63, 600, 378, -1730
0.158967, 433, -2098, -63, 600, 378, -1730
0.159101, -325, -2059, -236, 580, 485, -1619
0.159236, -325, -2059, -236, 580, 485, -1619
0.159370, -325, -2059, -236, 580, 485, -1619
0.159504, -325, -2059, -236, 580, 485, -1619
0.159638, -325, -2059, -236, 580, 485, -1619
0.159773, -325, -2059, -236, 580, 485, -1619
0.159907, -325, -2059, -236, 580, 485, -1619
0.160041, -316, -2012, -110, 495, 473, -1208
0.160175, -316, -2012, -110, 495, 473, -1208
0.160310, -316, -2012, -110, 495, 473, -1208
0.160444, -316, -2012, -110, 495, 473, -1208
0.160578, -316, -2012, -110, 495, 473, -1208
0.160712, -316, -2012, -110, 495, 473, -1208
0.160846, -316, -2012, -110, 495, 473, -1208
0.160981, -316, -2012, -110, 495, 473, -1208
0.161115, 10, -2040, 182, 527, 413, -1005
0.161249, 10, -2040, 182, 527, 413, -1005
0.161383, 10, -2040, 182, 527, 413, -1005
0.161517, 10, -2040, 182, 527, 413, -1005
0.161651, 10, -2040, 182, 527, 413, -1005
0.161785, 10, -2040, 182, 527, 413, -1005
0.161919, 10, -2040, 182, 527, 413, -1005
0.162053, 380, -2080, 589, 819, 398, -1083
0.162187, 380, -2080, 589, 819, 398, -1083
0.162322, 380, -2080, 589, 819, 398, -1083
0.162456, 380, -2080, 589, 819, 398, -1083
0.162590, 380, -2080, 589, 819, 398, -1083
0.162724, 380, -2080, 589, 819, 398, -1083
0.162858, 380, -2080, 589, 819, 398, -1083
0.162992, 380, -2080, 589, 819, 398, -1083
0.163126, 765, -2029, 1060, 1461, 437, -1402
0.163260, 765, -2029, 1060, 1461, 437, -1402
0.163394, 765, -2029, 1060, 1461, 437, -1402
0.163528, 765, -2029, 1060, 1461, 437, -1402
0.163663, 765, -2029, 1060, 1461, 437, -1402
0.163797, 765, -2029, 1060, 1461, 437, -1402
0.163931, 765, -2029, 1060, 1461, 437, -1402
0.164065, 765, -2029, 1060, 1461, 437, -1402
0.164199, 645, -1972, 741, 2246, 539, -1853
0.164334, 645, -1972, 741, 2246, 539, -1853
0.164468, 645, -1972, 741, 2246, 539, -1853
0.164603, 645, -1972, 741, 2246, 539, -1853
0.164737, 645, -1972, 741, 2246, 539, -1853
0.164871, 645, -1972, 741, 2246, 539, -1853
0.165005, 645, -1972, 741, 2246, 539, -1853
0.165139, -356, -2046, -1126, 2334, 659, -2004
0.165289, -356, -2046, -1126, 2334, 659, -2004
0.165424, -356, -2046, -1126, 2334, 659, -2004
0.165559, -356, -2046, -1126, 2334, 659, -2004
0.165693, -356, -2046, -1126, 2334, 659, -2004
0.165827, -356, -2046, -1126, 2334, 659, -2004
0.165961, -356, -2046, -1126, 2334, 659, -2004
0.166095, -356, -2046, -1126, 2334, 659, -2004
0.166229, -1556, -2104, -2408, 1171, 675, -1398
0.166364, -1556, -2104, -2408, 1171, 675, -1398
0.166498, -1556, -2104, -2408, 1171, 675, -1398
0.166632, -1556, -2104, -2408, 1171, 675, -1398
0.166766, -1556, -2104, -2408, 1171, 675, -1398
0.166900, -1556, -2104, -2408, 1171, 675, -1398
0.167034, -1556, -2104, -2408, 1171, 675, -1398
0.167169, -1592, -2059, -1033, -196, 495, -283
0.167303, -1592, -2059, -1033, -196, 495, -283
0.167437, -1592, -2059, -1033, -196, 495, -283
0.167571, -1592, -2059, -1033, -196, 495, -283
0.167706, -1592, -2059, -1033, -196, 495, -283
0.167842, -1592, -2059, -1033, -196, 495, -283
0.167976, -1592, -2059, -1033, -196, 495, -283
0.168110, -1592, -2059, -1033, -196, 495, -283
0.168244, -654, -2068, 424, -568, 189, 401
0.168379, -654, -2068, 424, -568, 189, 401
0.168513, -654, -2068, 424, -568, 189, 401
0.168647, -654, -2068, 424, -568, 189, 401
0.168782, -654, -2068, 424, -568, 189, 401
0.168916, -654, -2068, 424, -568, 189, 401
0.169050, -654, -2068, 424, -568, 189, 401
0.169184, -153, -2097, 195, -394, -15, 351
0.169318, -153, -2097, 195, -394, -15, 351
0.169452, -153, -2097, 195, -394, -15, 351
0.169587, -153, -2097, 195, -394, -15, 351
0.169721, -153, -2097, 195, -394, -15, 351
0.169855, -153, -2097, 195, -394, -15, 351
0.169989, -153, -2097, 195, -394, -15, 351
0.170123, -153, -2097, 195, -394, -15, 351
0.170257, -22, -2075, 37, -306, -79, 122
0.170392, -22, -2075, 37, -306, -79, 122
0.170526, -22, -2075, 37, -306, -79, 122
0.170660, -22, -2075, 37, -306, -79, 122
0.170794, -22, -2075, 37, -306, -79, 122
0.170928, -22, -2075, 37, -306, -79, 122
0.171062, -22, -2075, 37, -306, -79, 122
0.171197, 292, -2061, 350, -142, -133, -92
0.171331, 292, -2061, 350, -142, -133, -92
0.171465, 292, -2061, 350, -142, -133, -92
0.171600, 292, -2061, 350, -142, -133, -92
0.171734, 292, -2061, 350, -142, -133, -92
0.171868, 292, -2061, 350, -142, -133, -92
0.172002, 292, -2061, 350, -142, -133, -92
0.172136, 292, -2061, 350, -142, -133, -92
0.172270, 298, -2067, 322, 150, -134, -382
0.172405, 298, -2067, 322, 150, -134, -382
0.172539, 298, -2067, 322, 150, -134, -382
0.172673, 298, -2067, 322, 150, -134, -382
0.172807, 298, -2067, 322, 150, -134, -382
0.172942, 298, -2067, 322, 150, -134, -382
0.173076, 298, -2067, 322, 150, -134, -382
0.173210, -3, -2051, 40, 359, -51, -525
0.173344, -3, -2051, 40, 359, -51, -525
0.173478, -3, -2051, 40, 359, -51, -525
0.173613, -3, -2051, 40, 359, -51, -525
0.173747, -3, -2051, 40, 359, -51, -525
0.173881, -3, -2051, 40, 359, -51, -525
0.174015, -3, -2051, 40, 359, -51, -525
0.174149, -3, -2051, 40, 359, -51, -525
0.174283, -34, -2010, -229, 372, -4, -489
0.174418, -34, -2010, -229, 372, -4, -489
0.174552, -34, -2010, -229, 372, -4, -489
0.174686, -34, -2010, -229, 372, -4, -489
0.174820, -34, -2010, -229, 372, -4, -489
0.174954, -34, -2010, -229, 372, -4, -489
0.175088, -34, -2010, -229, 372, -4, -489
0.175222, -207, -2010, -591, 128, 1, -454
0.175357, -207, -2010, -591, 128, 1, -454
0.175491, -207, -2010, -591, 128, 1, -454
0.175625, -207, -2010, -591, 128, 1, -454
0.175759, -207, -2010, -591, 128, 1, -454
0.175893, -207, -2010, -591, 128, 1, -454
0.176028, -207, -2010, -591, 128, 1, -454
0.176162, -207, -2010, -591, 128, 1, -454
0.176296, -577, -2044, -706, -371, 28, -262
0.176431, -577, -2044, -706, -371, 28, -262
0.176565, -577, -2044, -706, -371, 28, -262
0.176699, -577, -2044, -706, -371, 28, -262
0.176833, -577, -2044, -706, -371, 28, -262
0.176967, -577, -2044, -706, -371, 28, -262
0.177101, -577, -2044, -706, -371, 28, -262
0.177236, -577, -2044, -706, -371, 28, -262
0.177370, -466, -2056, -332, -837, 11, 67
0.177504, -466, -2056, -332, -837, 11, 67
0.177638, -466, -2056, -332, -837, 11, 67
0.177772, -466, -2056, -332, -837, 11, 67
0.177913, -466, -2056, -332, -837, 11, 67
0.178048, -466, -2056, -332, -837, 11, 67
0.178183, -466, -2056, -332, -837, 11, 67
0.178317, -214, -2060, -42, -1024, -65, 225
0.178451, -214, -2060, -42, -1024, -65, 225
0.178586, -214, -2060, -42, -1024, -65, 225
0.178720, -214, -2060, -42, -1024, -65, 225
0.178854, -214, -2060, -42, -1024, -65, 225
0.178988, -214, -2060, -42, -1024, -65, 225
0.179123, -214, -2060, -42, -1024, -65, 225
0.179257, -214, -2060, -42, -1024, -65, 225
0.179391, -175, -2080, 2, -1022, -115, 246
0.179525, -175, -2080, 2, -1022, -115, 246
0.179660, -175, -2080, 2, -1022, -115, 246
0.179794, -175, -2080, 2, -1022, -115, 246
0.179928, -175, -2080, 2, -1022, -115, 246
0.180062, -175, -2080, 2, -1022, -115, 246
0.180196, -175, -2080, 2, -1022, -115, 246
0.180331, -102, -2082, 50, -952, -124, 276
0.180466, -102, -2082, 50, -952, -124, 276
0.180600, -102, -2082, 50, -952, -124, 276
0.180734, -102, -2082, 50, -952, -124, 276
0.180868, -102, -2082, 50, -952, -124, 276
0.181002, -102, -2082, 50, -952, -124, 276
0.181136, -102, -2082, 50, -952, -124, 276
0.181271, -102, -2082, 50, -952, -124, 276
0.181405, 57, -2069, 165, -815, -122, 275
0.181539, 57, -2069, 165, -815, -122, 275
0.181673, 57, -2069, 165, -815, -122, 275
0.181807, 57, -2069, 165, -815, -122, 275
0.181942, 57, -2069, 165, -815, -122, 275
0.182076, 57, -2069, 165, -815, -122, 275
0.182210, 57, -2069, 165, -815, -122, 275
0.182344, 241, -2069, 340, -577, -110, 185
0.182478, 241, -2069, 340, -577, -110, 185
0.182612, 241, -2069, 340, -577, -110, 185
0.182747, 241, -2069, 340, -577, -110, 185
0.182881, 241, -2069, 340, -577, -110, 185
0.183015, 241, -2069, 340, -577, -110, 185
0.183149, 241, -2069, 340, -577, -110, 185
0.183283, 241, -2069, 340, -577, -110, 185
0.183417, 468, -2074, 623, -211, -70, -7
0.183552, 468, -2074, 623, -211, -70, -7
0.183686, 468, -2074, 623, -211, -70, -7
0.183820, 468, -2074, 623, -211, -70, -7
0.183954, 468, -2074, 623, -211, -70, -7
0.184089, 468, -2074, 623, -211, -70, -7
0.184223, 468, -2074, 623, -211, -70, -7
0.184357, 792, -2045, 1152, 417, 10, -338
0.184492, 792, -2045, 1152, 417, 10, -338
0.184626, 792, -2045, 1152, 417, 10, -338
0.184760, 792, -2045, 1152, 417, 10, -338
0.184894, 792, -2045, 1152, 417, 10, -338
0.185028, 792, -2045, 1152, 417, 10, -338
0.185163, 792, -2045, 1152, 417, 10, -338
0.185297, 792, -2045, 1152, 417, 10, -338
0.185431, 981, -2020, 1425, 1403, 129, -843
0.185565, 981, -2020, 1425, 1403, 129, -843
0.185699, 981, -2020, 1425, 1403, 129, -843
0.185833, 981, -2020, 1425, 1403, 129, -843
0.185967, 981, -2020, 1425, 1403, 129, -843
0.186102, 981, -2020, 1425, 1403, 129, -843
0.186236, 981, -2020, 1425, 1403, 129, -843
0.186370, 981, -2020, 1425, 1403, 129, -843
0.186504, 454, -2060, 33, 2156, 270, -1332
0.186638, 454, -2060, 33, 2156, 270, -1332
0.186772, 454, -2060, 33, 2156, 270, -1332
0.186907, 454, -2060, 33, 2156, 270, -1332
0.187041, 454, -2060, 33, 2156, 270, -1332
0.187175, 454, -2060, 33, 2156, 270, -1332
0.187309, 454, -2060, 33, 2156, 270, -1332
0.187443, -672, -2074, -1904, 1708, 383, -1295
0.187577, -672, -2074, -1904, 1708, 383, -1295
0.187712, -672, -2074, -1904, 1708, 383, -1295
0.187846, -672, -2074, -1904, 1708, 383, -1295
0.187980, -672, -2074, -1904, 1708, 383, -1295
0.188114, -672, -2074, -1904, 1708, 383, -1295
0.188248, -672, -2074, -1904, 1708, 383, -1295
0.188383, -672, -2074, -1904, 1708, 383, -1295
0.188517, -1059, -2040, -1480, 475, 360, -595
0.188651, -1059, -2040, -1480, 475, 360, -595
0.188785, -1059, -2040, -1480, 475, 360, -595
0.188919, -1059, -2040, -1480, 475, 360, -595
0.189054, -1059, -2040, -1480, 475, 360, -595
0.189188, -1059, -2040, -1480, 475, 360, -595
0.189322, -1059, -2040, -1480, 475, 360, -595
0.189456, -314, -2052, -4, -211, 185, -7
0.189590, -314, -2052, -4, -211, 185, -7
0.189725, -314, -2052, -4, -211, 185, -7
0.189859, -314, -2052, -4, -211, 185, -7
0.189993, -314, -2052, -4, -211, 185, -7
0.190127, -314, -2052, -4, -211, 185, -7
0.190261, -314, -2052, -4, -211, 185, -7
0.190395, -314, -2052, -4, -211, 185, -7
0.190529, 193, -2071, 195, -231, 57, -74
0.190669, 193, -2071, 195, -231, 57, -74
0.190804, 193, -2071, 195, -231, 57, -74
0.190938, 193, -2071, 195, -231, 57, -74
0.191073, 193, -2071, 195, -231, 57, -74
0.191207, 193, -2071, 195, -231, 57, -74
0.191341, 193, -2071, 195, -231, 57, -74
0.191475, -67, -2070, -40, -157, 55, -288
0.191609, -67, -2070, -40, -157, 55, -288
0.191744, -67, -2070, -40, -157, 55, -288
0.191878, -67, -2070, -40, -157, 55, -288
0.192012, -67, -2070, -40, -157, 55, -288
0.192146, -67, -2070, -40, -157, 55, -288
0.192284, -67, -2070, -40, -157, 55, -288
0.192417, -67, -2070, -40, -157, 55, -288
0.192551, -185, -2064, 0, -103, 46, -215
0.192685, -185, -2064, 0, -103, 46, -215
0.192818, -185, -2064, 0, -103, 46, -215
0.192953, -185, -2064, 0, -103, 46, -215
0.193087, -185, -2064, 0, -103, 46, -215
0.193222, -185, -2064, 0, -103, 46, -215
0.193356, -185, -2064, 0, -103, 46, -215
0.193491, -1, -2042, -43, -48, 14, -104
0.193625, -1, -2042, -43, -48, 14, -104
0.193759, -1, -2042, -43, -48, 14, -104
0.193892, -1, -2042, -43, -48, 14, -104
0.194026, -1, -2042, -43, -48, 14, -104
0.194159, -1, -2042, -43, -48, 14, -104
0.194292, -1, -2042, -43, -48, 14, -104
0.194426, -1, -2042, -43, -48, 14, -104
0.194559, -37, -2041, -193, -73, 26, -93
0.194693, -37, -2041, -193, -73, 26, -93
0.194826, -37, -2041, -193, -73, 26, -93
0.194960, -37, -2041, -193, -73, 26, -93
0.195093, -37, -2041, -193, -73, 26, -93
0.195227, -37, -2041, -193, -73, 26, -93
0.195360, -37, -2041, -193, -73, 26, -93
0.195494, -37, -2041, -193, -73, 26, -93
0.195627, -113, -2071, -229, -187, 24, -49
0.195761, -113, -2071, -229, -187, 24, -49
0.195895, -113, -2071, -229, -187, 24, -49
0.196030, -113, -2071, -229, -187, 24, -49
0.196164, -113, -2071, -229, -187, 24, -49
0.196308, -113, -2071, -229, -187, 24, -49
0.196444, -113, -2071, -229, -187, 24, -49
0.196578, -65, -2097, -35, -289, -13, -5
0.196712, -65, -2097, -35, -289, -13, -5
0.196847, -65, -2097, -35, -289, -13, -5
0.196981, -65, -2097, -35, -289, -13, -5
0.197115, -65, -2097, -35, -289, -13, -5
0.197249, -65, -2097, -35, -289, -13, -5
0.197383, -65, -2097, -35, -289, -13, -5
0.197517, -65, -2097, -35, -289, -13, -5
0.197652, -9, -2100, 279, -245, -13, -15
0.197786, -9, -2100, 279, -245, -13, -15
0.197920, -9, -2100, 279, -245, -13, -15
0.198054, -9, -2100, 279, -245, -13, -15
0.198188, -9, -2100, 279, -245, -13, -15
0.198322, -9, -2100, 279, -245, -13, -15
0.198457, -9, -2100, 279, -245, -13, -15
0.198591, 140, -2060, 395, -15, -2, -97
0.198725, 140, -2060, 395, -15, -2, -97
0.198859, 140, -2060, 395, -15, -2, -97
0.198993, 140, -2060, 395, -15, -2, -97
0.199127, 140, -2060, 395, -15, -2, -97
0.199262, 140, -2060, 395, -15, -2, -97
0.199396, 140, -2060, 395, -15, -2, -97
0.199530, 140, -2060, 395, -15, -2, -97
0.199664, 141, -2020, 299, 272, -6, -266
0.199798, 141, -2020, 299, 272, -6, -266
0.199932, 141, -2020, 299, 272, -6, -266
0.200067, 141, -2020, 299, 272, -6, -266
0.200201, 141, -2020, 299, 272, -6, -266
0.200336, 141, -2020, 299, 272, -6, -266
0.200470, 141, -2020, 299, 272, -6, -266
0.200604, 167, -2030, 445, 539, 32, -398
0.200738, 167, -2030, 445, 539, 32, -398
0.200872, 167, -2030, 445, 539, 32, -398
0.201006, 167, -2030, 445, 539, 32, -398
0.201140, 167, -2030, 445, 539, 32, -398
0.201275, 167, -2030, 445, 539, 32, -398
0.201409, 167, -2030, 445, 539, 32, -398
0.201543, 167, -2030, 445, 539, 32, -398
0.201677, 660, -2042, 910, 1023, 101, -618
0.201811, 660, -2042, 910, 1023, 101, -618
0.201945, 660, -2042, 910, 1023, 101, -618
0.202080, 660, -2042, 910, 1023, 101, -618
0.202214, 660, -2042, 910, 1023, 101, -618
0.202348, 660, -2042, 910, 1023, 101, -618
0.202482, 660, -2042, 910, 1023, 101, -618
0.202616, 546, -2041, 87, 1594, 201, -1088
0.202750, 546, -2041, 87, 1594, 201, -1088
0.202885, 546, -2041, 87, 1594, 201, -1088
0.203019, 546, -2041, 87, 1594, 201, -1088
0.203153, 546, -2041, 87, 1594, 201, -1088
0.203287, 546, -2041, 87, 1594, 201, -1088
0.203421, 546, -2041, 87, 1594, 201, -1088
0.203555, 546, -2041, 87, 1594, 201, -1088
0.203690, -778, -2047, -1752, 1214, 320, -1161
0.203824, -778, -2047, -1752, 1214, 320, -1161
0.203965, -778, -2047, -1752, 1214, 320, -1161
0.204099, -778, -2047, -1752, 1214, 320, -1161
0.204234, -778, -2047, -1752, 1214, 320, -1161
0.204368, -778, -2047, -1752, 1214, 320, -1161
0.204502, -778, -2047, -1752, 1214, 320, -1161
0.204637, -1493, -2051, -1367, -43, 307, -347
0.204771, -1493, -2051, -1367, -43, 307, -347
0.204905, -1493, -2051, -1367, -43, 307, -347
0.205039, -1493, -2051, -1367, -43, 307, -347
0.205173, -1493, -2051, -1367, -43, 307, -347
0.205307, -1493, -2051, -1367, -43, 307, -347
0.205442, -1493, -2051, -1367, -43, 307, -347
0.205576, -1493, -2051, -1367, -43, 307, -347
0.205710, -670, -2077, 311, -664, 108, 510
0.205844, -670, -2077, 311, -664, 108, 510
0.205978, -670, -2077, 311, -664, 108, 510
0.206113, -670, -2077, 311, -664, 108, 510
0.206247, -670, -2077, 311, -664, 108, 510
0.206381, -670, -2077, 311, -664, 108, 510
0.206515, -670, -2077, 311, -664, 108, 510
0.206649, 246, -2098, 602, -420, -56, 571
0.206784, 246, -2098, 602, -420, -56, 571
0.206918, 246, -2098, 602, -420, -56, 571
0.207052, 246, -2098, 602, -420, -56, 571
0.207186, 246, -2098, 602, -420, -56, 571
0.207320, 246, -2098, 602, -420, -56, 571
0.207454, 246, -2098, 602, -420, -56, 571
0.207589, 246, -2098, 602, -420, -56, 571
0.207723, 430, -2065, 346, -42, -54, 167
0.207857, 430, -2065, 346, -42, -54, 167
0.207991, 430, -2065, 346, -42, -54, 167
0.208125, 430, -2065, 346, -42, -54, 167
0.208259, 430, -2065, 346, -42, -54, 167
0.208394, 430, -2065, 346, -42, -54, 167
0.208527, 430, -2065, 346, -42, -54, 167
0.208661, 430, -2065, 346, -42, -54, 167
0.208794, 366, -2034, 306, 271, -8, -147
0.208928, 366, -2034, 306, 271, -8, -147
0.209062, 366, -2034, 306, 271, -8, -147
0.209196, 366, -2034, 306, 271, -8, -147
0.209330, 366, -2034, 306, 271, -8, -147
0.209464, 366, -2034, 306, 271, -8, -147
0.209598, 366, -2034, 306, 271, -8, -147
0.209731, 309, -2015, 230, 519, 34, -308
0.209865, 309, -2015, 230, 519, 34, -308
0.209998, 309, -2015, 230, 519, 34, -308
0.210132, 309, -2015, 230, 519, 34, -308
0.210265, 309, -2015, 230, 519, 34, -308
0.210399, 309, -2015, 230, 519, 34, -308
0.210532, 309, -2015, 230, 519, 34, -308
0.210666, 309, -2015, 230, 519, 34, -308
0.210799, 236, -1998, 15, 662, 100, -403
0.210933, 236, -1998, 15, 662, 100, -403
0.211066, 236, -1998, 15, 662, 100, -403
0.211200, 236, -1998, 15, 662, 100, -403
0.211333, 236, -1998, 15, 662, 100, -403
0.211467, 236, -1998, 15, 662, 100, -403
0.211600, 236, -1998, 15, 662, 100, -403
0.211734, 38, -2050, -541, 558, 145, -452
0.211867, 38, -2050, -541, 558, 145, -452
0.212001, 38, -2050, -541, 558, 145, -452
0.212134, 38, -2050, -541, 558, 145, -452
0.212268, 38, -2050, -541, 558, 145, -452
0.212403, 38, -2050, -541, 558, 145, -452
0.212537, 38, -2050, -541, 558, 145, -452
0.212672, 38, -2050, -541, 558, 145, -452
0.212806, -268, -2099, -915, 82, 164, -352
0.212940, -268, -2099, -915, 82, 164, -352
0.213074, -268, -2099, -915, 82, 164, -352
0.213208, -268, -2099, -915, 82, 164, -352
0.213343, -268, -2099, -915, 82, 164, -352
0.213477, -268, -2099, -915, 82, 164, -352
0.213611, -268, -2099, -915, 82, 164, -352
0.213745, -243, -2064, -432, -455, 146, -124
0.213880, -243, -2064, -432, -455, 146, -124
0.214014, -243, -2064, -432, -455, 146, -124
0.214148, -243, -2064, -432, -455, 146, -124
0.214282, -243, -2064, -432, -455, 146, -124
0.214416, -243, -2064, -432, -455, 146, -124
0.214550, -243, -2064, -432, -455, 146, -124
0.214685, -243, -2064, -432, -455, 146, -124
0.214819, -41, -2056, 108, -627, 72, -36
0.214953, -41, -2056, 108, -627, 72, -36
0.215087, -41, -2056, 108, -627, 72, -36
0.215221, -41, -2056, 108, -627, 72, -36
0.215355, -41, -2056, 108, -627, 72, -36
0.215489, -41, -2056, 108, -627, 72, -36
0.215623, -41, -2056, 108, -627, 72, -36
0.215757, -41, -2056, 108, -627, 72, -36
0.215891, -141, -2085, 35, -556, 21, -68
0.216026, -141, -2085, 35, -556, 21, -68
0.216160, -141, -2085, 35, -556, 21, -68
0.216294, -141, -2085, 35, -556, 21, -68
0.216429, -141, -2085, 35, -556, 21, -68
0.216563, -141, -2085, 35, -556, 21, -68
0.216697, -141, -2085, 35, -556, 21, -68
0.216843, -354, -2083, -127, -521, -10, 23
0.216978, -354, -2083, -127, -521, -10, 23
0.217112, -354, -2083, -127, -521, -10, 23
0.217246, -354, -2083, -127, -521, -10, 23
0.217381, -354, -2083, -127, -521, -10, 23
0.217515, -354, -2083, -127, -521, -10, 23
0.217649, -354, -2083, -127, -521, -10, 23
0.217783, -354, -2083, -127, -521, -10, 23
0.217917, -462, -2063, -113, -537, -90, 250
0.218052, -462, -2063, -113, -537, -90, 250
0.218186, -462, -2063, -113, -537, -90, 250
0.218320, -462, -2063, -113, -537, -90, 250
0.218454, -462, -2063, -113, -537, -90, 250
0.218588, -462, -2063, -113, -537, -90, 250
0.218722, -462, -2063, -113, -537, -90, 250
0.218857, -429, -2049, -37, -546, -179, 505
0.218991, -429, -2049, -37, -546, -179, 505
0.219125, -429, -2049, -37, -546, -179, 505
0.219259, -429, -2049, -37, -546, -179, 505
0.219394, -429, -2049, -37, -546, -179, 505
0.219528, -429, -2049, -37, -546, -179, 505
0.219662, -429, -2049, -37, -546, -179, 505
0.219796, -429, -2049, -37, -546, -179, 505
0.219930, -234, -2050, 14, -525, -244, 675
0.220065, -234, -2050, 14, -525, -244, 675
0.220199, -234, -2050, 14, -525, -244, 675
0.220334, -234, -2050, 14, -525, -244, 675
0.220468, -234, -2050, 14, -525, -244, 675
0.220602, -234, -2050, 14, -525, -244, 675
0.220736, -234, -2050, 14, -525, -244, 675
0.220869, 95, -2066, 108, -458, -297, 677
0.221003, 95, -2066, 108, -458, -297, 677
0.221136, 95, -2066, 108, -458, -297, 677
0.221270, 95, -2066, 108, -458, -297, 677
0.221403, 95, -2066, 108, -458, -297, 677
0.221537, 95, -2066, 108, -458, -297, 677
0.221670, 95, -2066, 108, -458, -297, 677
0.221804, 95, -2066, 108, -458, -297, 677
0.221937, 413, -2072, 315, -274, -297, 489
0.222071, 413, -2072, 315, -274, -297, 489
0.222204, 413, -2072, 315, -274, -297, 489
0.222338, 413, -2072, 315, -274, -297, 489
0.222471, 413, -2072, 315, -274, -297, 489
0.222605, 413, -2072, 315, -274, -297, 489
0.222738, 413, -2072, 315, -274, -297, 489
0.222872, 522, -2059, 440, 39, -216, 182
0.223005, 522, -2059, 440, 39, -216, 182
0.223139, 522, -2059, 440, 39, -216, 182
0.223273, 522, -2059, 440, 39, -216, 182
0.223406, 522, -2059, 440, 39, -216, 182
0.223540, 522, -2059, 440, 39, -216, 182
0.223673, 522, -2059, 440, 39, -216, 182
0.223807, 522, -2059, 440, 39, -216, 182
0.223940, 592, -2041, 416, 375, -107, -137
0.224074, 592, -2041, 416, 375, -107, -137
0.224207, 592, -2041, 416, 375, -107, -137
0.224342, 592, -2041, 416, 375, -107, -137
0.224476, 592, -2041, 416, 375, -107, -137
0.224610, 592, -2041, 416, 375, -107, -137
0.224744, 592, -2041, 416, 375, -107, -137
0.224879, 592, -2041, 416, 375, -107, -137
0.225013, 706, -2037, 348, 694, -5, -487
0.225147, 706, -2037, 348, 694, -5, -487
0.225281, 706, -2037, 348, 694, -5, -487
0.225416, 706, -2037, 348, 694, -5, -487
0.225550, 706, -2037, 348, 694, -5, -487
0.225684, 706, -2037, 348, 694, -5, -487
0.225818, 706, -2037, 348, 694, -5, -487
0.225952, 612, -2037, 343, 994, 108, -861
0.226086, 612, -2037, 343, 994, 108, -861
0.226220, 612, -2037, 343, 994, 108, -861
0.226354, 612, -2037, 343, 994, 108, -861
0.226489, 612, -2037, 343, 994, 108, -861
0.226623, 612, -2037, 343, 994, 108, -861
0.226757, 612, -2037, 343, 994, 108, -861
0.226891, 612, -2037, 343, 994, 108, -861
0.227025, 266, -2046, 332, 1307, 214, -1115
0.227159, 266, -2046, 332, 1307, 214, -1115
0.227294, 266, -2046, 332, 1307, 214, -1115
0.227428, 266, -2046, 332, 1307, 214, -1115
0.227562, 266, -2046, 332, 1307, 214, -1115
0.227696, 266, -2046, 332, 1307, 214, -1115
0.227830, 266, -2046, 332, 1307, 214, -1115
0.227964, -413, -2092, -494, 1403, 271, -1080
0.228099, -413, -2092, -494, 1403, 271, -1080
0.228233, -413, -2092, -494, 1403, 271, -1080
0.228368, -413, -2092, -494, 1403, 271, -1080
0.228502, -413, -2092, -494, 1403, 271, -1080
0.228636, -413, -2092, -494, 1403, 271, -1080
0.228770, -413, -2092, -494, 1403, 271, -1080
0.228904, -413, -2092, -494, 1403, 271, -1080
0.229038, -988, -2093, -1333, 810, 262, -598
0.229173, -988, -2093, -1333, 810, 262, -598
0.229307, -988, -2093, -1333, 810, 262, -598
0.229441, -988, -2093, -1333, 810, 262, -598
0.229579, -988, -2093, -1333, 810, 262, -598
0.229714, -988, -2093, -1333, 810, 262, -598
0.229848, -988, -2093, -1333, 810, 262, -598
0.229982, -551, -2039, -391, 32, 170, 33
0.230117, -551, -2039, -391, 32, 170, 33
0.230251, -551, -2039, -391, 32, 170, 33
0.230385, -551, -2039, -391, 32, 170, 33
0.230519, -551, -2039, -391, 32, 170, 33
0.230654, -551, -2039, -391, 32, 170, 33
0.230788, -551, -2039, -391, 32, 170, 33
0.230922, -551, -2039, -391, 32, 170, 33
0.231056, 314, -2030, 753, 12, 52, 146
0.231190, 314, -2030, 753, 12, 52, 146
0.231325, 314, -2030, 753, 12, 52, 146
0.231459, 314, -2030, 753, 12, 52, 146
0.231593, 314, -2030, 753, 12, 52, 146
0.231727, 314, -2030, 753, 12, 52, 146
0.231861, 314, -2030, 753, 12, 52, 146
0.231996, 341, -2042, 256, 425, 30, -220
0.232130, 341, -2042, 256, 425, 30, -220
0.232264, 341, -2042, 256, 425, 30, -220
0.232398, 341, -2042, 256, 425, 30, -220
0.232533, 341, -2042, 256, 425, 30, -220
0.232667, 341, -2042, 256, 425, 30, -220
0.232801, 341, -2042, 256, 425, 30, -220
0.232935, 341, -2042, 256, 425, 30, -220
0.233069, -357, -2032, -755, 371, 64, -348
0.233204, -357, -2032, -755, 371, 64, -348
0.233338, -357, -2032, -755, 371, 64, -348
0.233472, -357, -2032, -755, 371, 64, -348
0.233606, -357, -2032, -755, 371, 64, -348
0.233740, -357, -2032, -755, 371, 64, -348
0.233874, -357, -2032, -755, 371, 64, -348
0.234008, -357, -2032, -755, 371, 64, -348
0.234143, -705, -2042, -757, -165, 32, 44
0.234277, -705, -2042, -757, -165, 32, 44
0.234411, -705, -2042, -757, -165, 32, 44
0.234545, -705, -2042, -757, -165, 32, 44
0.234679, -705, -2042, -757, -165, 32, 44
0.234814, -705, -2042, -757, -165, 32, 44
0.234948, -705, -2042, -757, -165, 32, 44
0.235082, -508, -2073, -156, -547, -70, 504
0.235216, -508, -2073, -156, -547, -70, 504
0.235350, -508, -2073, -156, -547, -70, 504
0.235485, -508, -2073, -156, -547, -70, 504
0.235619, -508, -2073, -156, -547, -70, 504
0.235753, -508, -2073, -156, -547, -70, 504
0.235887, -508, -2073, -156, -547, -70, 504
0.236021, -508, -2073, -156, -547, -70, 504
0.236155, -496, -2075, -12, -621, -174, 750
0.236290, -496, -2075, -12, -621, -174, 750
0.236424, -496, -2075, -12, -621, -174, 750
0.236559, -496, -2075, -12, -621, -174, 750
0.236693, -496, -2075, -12, -621, -174, 750
0.236827, -496, -2075, -12, -621, -174, 750
0.236961, -496, -2075, -12, -621, -174, 750
0.237095, -587, -2059, -94, -650, -261, 982
0.237229, -587, -2059, -94, -650, -261, 982
0.237364, -587, -2059, -94, -650, -261, 982
0.237498, -587, -2059, -94, -650, -261, 982
0.237632, -587, -2059, -94, -650, -261, 982
0.237766, -587, -2059, -94, -650, -261, 982
0.237900, -587, -2059, -94, -650, -261, 982
0.238035, -587, -2059, -94, -650, -261, 982
0.238169, -369, -2057, -13, -686, -349, 1205
0.238303, -369, -2057, -13, -686, -349, 1205
0.238437, -369, -2057, -13, -686, -349, 1205
0.238571, -369, -2057, -13, -686, -349, 1205
0.238705, -369, -2057, -13, -686, -349, 1205
0.238840, -369, -2057, -13, -686, -349, 1205
0.238974, -369, -2057, -13, -686, -349, 1205
0.239108, 155, -2057, 160, -647, -417, 1205
0.239242, 155, -2057, 160, -647, -417, 1205
0.239376, 155, -2057, 160, -647, -417, 1205
0.239511, 155, -2057, 160, -647, -417, 1205
0.239645, 155, -2057, 160, -647, -417, 1205
0.239779, 155, -2057, 160, -647, -417, 1205
0.239913, 155, -2057, 160, -647, -417, 1205
0.240047, 155, -2057, 160, -647, -417, 1205
0.240181, 748, -2051, 359, -465, -420, 850
0.240316, 748, -2051, 359, -465, -420, 850
0.240449, 748, -2051, 359, -465, -420, 850
0.240583, 748, -2051, 359, -465, -420, 850
0.240716, 748, -2051, 359, -465, -420, 850
0.240850, 748, -2051, 359, -465, -420, 850
0.240983, 748, -2051, 359, -465, -420, 850
0.241117, 982, -2064, 480, -136, -349, 237
0.241251, 982, -2064, 480, -136, -349, 237
0.241384, 982, -2064, 480, -136, -349, 237
0.241518, 982, -2064, 480, -136, -349, 237
0.241651, 982, -2064, 480, -136, -349, 237
0.241785, 982, -2064, 480, -136, -349, 237
0.241918, 982, -2064, 480, -136, -349, 237
0.242052, 982, -2064, 480, -136, -349, 237
0.242185, 756, -2085, 137, 180, -222, -336
0.242319, 756, -2085, 137, 180, -222, -336
0.242457, 756, -2085, 137, 180, -222, -336
0.242591, 756, -2085, 137, 180, -222, -336
0.242725, 756, -2085, 137, 180, -222, -336
0.242858, 756, -2085, 137, 180, -222, -336
0.242992, 756, -2085, 137, 180, -222, -336
0.243125, 756, -2085, 137, 180, -222, -336
0.243259, 201, -2067, -562, 134, -84, -605
0.243392, 201, -2067, -562, 134, -84, -605
0.243526, 201, -2067, -562, 134, -84, -605
0.243659, 201, -2067, -562, 134, -84, -605
0.243793, 201, -2067, -562, 134, -84, -605
0.243926, 201, -2067, -562, 134, -84, -605
0.244060, 201, -2067, -562, 134, -84, -605
0.244193, -124, -2039, -515, -255, -13, -500
0.244322, -124, -2039, -515, -255, -13, -500
0.244457, -124, -2039, -515, -255, -13, -500
0.244591, -124, -2039, -515, -255, -13, -500
0.244725, -124, -2039, -515, -255, -13, -500
0.244860, -124, -2039, -515, -255, -13, -500
0.244994, -124, -2039, -515, -255, -13, -500
0.245128, -124, -2039, -515, -255, -13, -500
0.245262, 64, -2058, 48, -477, -29, -342
0.245397, 64, -2058, 48, -477, -29, -342
0.245531, 64, -2058, 48, -477, -29, -342
0.245665, 64, -2058, 48, -477, -29, -342
0.245799, 64, -2058, 48, -477, -29, -342
0.245933, 64, -2058, 48, -477, -29, -342
0.246068, 64, -2058, 48, -477, -29, -342
0.246202, 117, -2072, 68, -426, -46, -358
0.246336, 117, -2072, 68, -426, -46, -358
0.246470, 117, -2072, 68, -426, -46, -358
0.246604, 117, -2072, 68, -426, -46, -358
0.246739, 117, -2072, 68, -426, -46, -358
0.246873, 117, -2072, 68, -426, -46, -358
0.247007, 117, -2072, 68, -426, -46, -358
0.247141, 117, -2072, 68, -426, -46, -358
0.247275, 135, -2062, -15, -352, -25, -388
0.247410, 135, -2062, -15, -352, -25, -388
0.247544, 135, -2062, -15, -352, -25, -388
0.247678, 135, -2062, -15, -352, -25, -388
0.247812, 135, -2062, -15, -352, -25, -388
0.247946, 135, -2062, -15, -352, -25, -388
0.248080, 135, -2062, -15, -352, -25, -388
0.248214, 428, -2074, 147, -261, -14, -474
0.248349, 428, -2074, 147, -261, -14, -474
0.248483, 428, -2074, 147, -261, -14, -474
0.248617, 428, -2074, 147, -261, -14, -474
0.248752, 428, -2074, 147, -261, -14, -474
0.248886, 428, -2074, 147, -261, -14, -474
0.249020, 428, -2074, 147, -261, -14, -474
0.249154, 428, -2074, 147, -261, -14, -474
0.249288, 422, -2093, 157, -94, 13, -699
0.249422, 422, -2093, 157, -94, 13, -699
0.249557, 422, -2093, 157, -94, 13, -699
0.249691, 422, -2093, 157, -94, 13, -699
0.249825, 422, -2093, 157, -94, 13, -699
0.249959, 422, -2093, 157, -94, 13, -699
0.250093, 422, -2093, 157, -94, 13, -699
0.250228, 422, -2093, 157, -94, 13, -699
0.250362, 86, -2086, 90, 76, 76, -799
0.250496, 86, -2086, 90, 76, 76, -799
0.250630, 86, -2086, 90, 76, 76, -799
0.250765, 86, -2086, 90, 76, 76, -799
0.250899, 86, -2086, 90, 76, 76, -799
0.251033, 86, -2086, 90, 76, 76, -799
0.251167, 86, -2086, 90, 76, 76, -799
0.251301, -75, -2074, 180, 243, 111, -692
0.251435, -75, -2074, 180, 243, 111, -692
0.251570, -75, -2074, 180, 243, 111, -692
0.251704, -75, -2074, 180, 243, 111, -692
0.251838, -75, -2074, 180, 243, 111, -692
0.251972, -75, -2074, 180, 243, 111, -692
0.252106, -75, -2074, 180, 243, 111, -692
0.252240, -75, -2074, 180, 243, 111, -692
0.252375, -63, -2048, 309, 480, 104, -565
0.252509, -63, -2048, 309, 480, 104, -565
0.252643, -63, -2048, 309, 480, 104, -565
0.252777, -63, -2048, 309, 480, 104, -565
0.252911, -63, -2048, 309, 480, 104, -565
0.253046, -63, -2048, 309, 480, 104, -565
0.253181, -63, -2048, 309, 480, 104, -565
0.253316, 188, -1993, 612, 842, 105, -539
0.253450, 188, -1993, 612, 842, 105, -539
0.253584, 188, -1993, 612, 842, 105, -539
0.253719, 188, -1993, 612, 842, 105, -539
0.253853, 188, -1993, 612, 842, 105, -539
0.253987, 188, -1993, 612, 842, 105, -539
0.254121, 188, -1993, 612, 842, 105, -539
0.254255, 188, -1993, 612, 842, 105, -539
0.254389, 389, -1972, 864, 1437, 141, -739
0.254524, 389, -1972, 864, 1437, 141, -739
0.254658, 389, -1972, 864, 1437, 141, -739
0.254792, 389, -1972, 864, 1437, 141, -739
0.254926, 389, -1972, 864, 1437, 141, -739
0.255060, 389, -1972, 864, 1437, 141, -739
0.255195, 389, -1972, 864, 1437, 141, -739
0.255329, -437, -2036, -28, 1914, 203, -904
0.255472, -437, -2036, -28, 1914, 203, -904
0.255606, -437, -2036, -28, 1914, 203, -904
0.255741, -437, -2036, -28, 1914, 203, -904
0.255875, -437, -2036, -28, 1914, 203, -904
0.256009, -437, -2036, -28, 1914, 203, -904
0.256143, -437, -2036, -28, 1914, 203, -904
0.256282, -437, -2036, -28, 1914, 203, -904
0.256417, -1427, -2091, -1286, 1523, 200, -413
0.256551, -1427, -2091, -1286, 1523, 200, -413
0.256686, -1427, -2091, -1286, 1523, 200, -413
0.256820, -1427, -2091, -1286, 1523, 200, -413
0.256954, -1427, -2091, -1286, 1523, 200, -413
0.257088, -1427, -2091, -1286, 1523, 200, -413
0.257222, -1427, -2091, -1286, 1523, 200, -413
0.257357, -904, -2038, -992, 553, 57, 414
0.257491, -904, -2038, -992, 553, 57, 414
0.257625, -904, -2038, -992, 553, 57, 414
0.257760, -904, -2038, -992, 553, 57, 414
0.257894, -904, -2038, -992, 553, 57, 414
0.258028, -904, -2038, -992, 553, 57, 414
0.258162, -904, -2038, -992, 553, 57, 414
0.258296, -904, -2038, -992, 553, 57, 414
0.258431, 234, -2010, -29, 12, -113, 591
0.258565, 234, -2010, -29, 12, -113, 591
0.258699, 234, -2010, -29, 12, -113, 591
0.258834, 234, -2010, -29, 12, -113, 591
0.258968, 234, -2010, -29, 12, -113, 591
0.259102, 234, -2010, -29, 12, -113, 591
0.259236, 234, -2010, -29, 12, -113, 591
0.259370, 458, -2065, 27, -37, -165, 127
0.259505, 458, -2065, 27, -37, -165, 127
0.259639, 458, -2065, 27, -37, -165, 127
0.259773, 458, -2065, 27, -37, -165, 127
0.259907, 458, -2065, 27, -37, -165, 127
0.260041, 458, -2065, 27, -37, -165, 127
0.260176, 458, -2065, 27, -37, -165, 127
0.260310, 458, -2065, 27, -37, -165, 127
0.260444, -43, -2089, -396, -122, -131, -208
0.260579, -43, -2089, -396, -122, -131, -208
0.260713, -43, -2089, -396, -122, -131, -208
0.260847, -43, -2089, -396, -122, -131, -208
0.260981, -43, -2089, -396, -122, -131, -208
0.261116, -43, -2089, -396, -122, -131, -208
0.261250, -43, -2089, -396, -122, -131, -208
0.261384, -400, -2066, -522, -402, -123, -100
0.261518, -400, -2066, -522, -402, -123, -100
0.261652, -400, -2066, -522, -402, -123, -100
0.261787, -400, -2066, -522, -402, -123, -100
0.261921, -400, -2066, -522, -402, -123, -100
0.262055, -400, -2066, -522, -402, -123, -100
0.262189, -400, -2066, -522, -402, -123, -100
0.262323, -400, -2066, -522, -402, -123, -100
0.262457, -280, -2042, -333, -714, -177, 173
0.262592, -280, -2042, -333, -714, -177, 173
0.262726, -280, -2042, -333, -714, -177, 173
0.262860, -280, -2042, -333, -714, -177, 173
0.262994, -280, -2042, -333, -714, -177, 173
0.263128, -280, -2042, -333, -714, -177, 173
0.263263, -280, -2042, -333, -714, -177, 173
0.263397, -280, -2042, -333, -714, -177, 173
0.263531, -80, -2040, -128, -901, -235, 298
0.263665, -80, -2040, -128, -901, -235, 298
0.263799, -80, -2040, -128, -901, -235, 298
0.263934, -80, -2040, -128, -901, -235, 298
0.264068, -80, -2040, -128, -901, -235, 298
0.264202, -80, -2040, -128, -901, -235, 298
0.264336, -80, -2040, -128, -901, -235, 298
0.264471, -171, -2052, -81, -970, -257, 322
0.264605, -171, -2052, -81, -970, -257, 322
0.264739, -171, -2052, -81, -970, -257, 322
0.264873, -171, -2052, -81, -970, -257, 322
0.265007, -171, -2052, -81, -970, -257, 322
0.265141, -171, -2052, -81, -970, -257, 322
0.265276, -171, -2052, -81, -970, -257, 322
0.265410, -171, -2052, -81, -970, -257, 322
0.265544, -316, -2072, -124, -1013, -288, 436
0.265678, -316, -2072, -124, -1013, -288, 436
0.265812, -316, -2072, -124, -1013, -288, 436
0.265947, -316, -2072, -124, -1013, -288, 436
0.266081, -316, -2072, -124, -1013, -288, 436
0.266215, -316, -2072, -124, -1013, -288, 436
0.266350, -316, -2072, -124, -1013, -288, 436
0.266484, -316, -2086, -83, -1037, -349, 618
0.266618, -316, -2086, -83, -1037, -349, 618
0.266752, -316, -2086, -83, -1037, -349, 618
0.266886, -316, -2086, -83, -1037, -349, 618
0.267022, -316, -2086, -83, -1037, -349, 618
0.267161, -316, -2086, -83, -1037, -349, 618
0.267299, -316, -2086, -83, -1037, -349, 618
0.267433, -316, -2086, -83, -1037, -349, 618
0.267568, -187, -2078, 35, -1004, -406, 765
0.267704, -187, -2078, 35, -1004, -406, 765
0.267839, -187, -2078, 35, -1004, -406, 765
0.267991, -187, -2078, 35, -1004, -406, 765
0.268135, -187, -2078, 35, -1004, -406, 765
0.268275, -187, -2078, 35, -1004, -406, 765
0.268420, -187, -2078, 35, -1004, -406, 765
0.268556, 185, -2063, 115, -921, -438, 769
0.268692, 185, -2063, 115, -921, -438, 769
0.268828, 185, -2063, 115, -921, -438, 769
0.268964, 185, -2063, 115, -921, -438, 769
0.269098, 185, -2063, 115, -921, -438, 769
0.269232, 185, -2063, 115, -921, -438, 769
0.269367, 185, -2063, 115, -921, -438, 769
0.269506, 390, -2052, 108, -807, -422, 550
0.269644, 390, -2052, 108, -807, -422, 550
0.269781, 390, -2052, 108, -807, -422, 550
0.269923, 390, -2052, 108, -807, -422, 550
0.270066, 390, -2052, 108, -807, -422, 550
0.270207, 390, -2052, 108, -807, -422, 550
0.270352, 390, -2052, 108, -807, -422, 550
0.270494, 390, -2052, 108, -807, -422, 550
0.270634, 219, -2053, 121, -683, -350, 319
0.270776, 219, -2053, 121, -683, -350, 319
0.270915, 219, -2053, 121, -683, -350, 319
0.271056, 219, -2053, 121, -683, -350, 319
0.271196, 219, -2053, 121, -683, -350, 319
0.271335, 219, -2053, 121, -683, -350, 319
0.271474, 219, -2053, 121, -683, -350, 319
0.271615, 339, -2083, 342, -490, -278, 198
0.271757, 339, -2083, 342, -490, -278, 198
0.271896, 339, -2083, 342, -490, -278, 198
0.272036, 339, -2083, 342, -490, -278, 198
0.272174, 339, -2083, 342, -490, -278, 198
0.272313, 339, -2083, 342, -490, -278, 198
0.272452, 339, -2083, 342, -490, -278, 198
0.272590, 728, -2104, 811, -76, -221, -65
0.272733, 728, -2104, 811, -76, -221, -65
0.272871, 728, -2104, 811, -76, -221, -65
0.273009, 728, -2104, 811, -76, -221, -65
0.273148, 728, -2104, 811, -76, -221, -65
0.273287, 728, -2104, 811, -76, -221, -65
0.273425, 728, -2104, 811, -76, -221, -65
0.273563, 1120, -1992, 1973, 849, -111, -565
0.273705, 1120, -1992, 1973, 849, -111, -565
0.273845, 1120, -1992, 1973, 849, -111, -565
0.273986, 1120, -1992, 1973, 849, -111, -565
0.274124, 1120, -1992, 1973, 849, -111, -565
0.274262, 1120, -1992, 1973, 849, -111, -565
0.274401, 1120, -1992, 1973, 849, -111, -565
0.274537, 1120, -1992, 1973, 849, -111, -565
0.274673, 1258, -1939, 2537, 2593, 85, -1283
0.274808, 1258, -1939, 2537, 2593, 85, -1283
0.274942, 1258, -1939, 2537, 2593, 85, -1283
0.275077, 1258, -1939, 2537, 2593, 85, -1283
0.275211, 1258, -1939, 2537, 2593, 85, -1283
0.275345, 1258, -1939, 2537, 2593, 85, -1283
0.275479, 1258, -1939, 2537, 2593, 85, -1283
0.275614, -264, -2127, -1071, 3587, 305, -1785
0.275749, -264, -2127, -1071, 3587, 305, -1785
0.275882, -264, -2127, -1071, 3587, 305, -1785
0.276016, -264, -2127, -1071, 3587, 305, -1785
0.276151, -264, -2127, -1071, 3587, 305, -1785
0.276298, -264, -2127, -1071, 3587, 305, -1785
0.276435, -264, -2127, -1071, 3587, 305, -1785
0.276570, -264, -2127, -1071, 3587, 305, -1785
0.276704, -2323, -2129, -4289, 1863, 419, -989
0.276837, -2323, -2129, -4289, 1863, 419, -989
0.276971, -2323, -2129, -4289, 1863, 419, -989
0.277104, -2323, -2129, -4289, 1863, 419, -989
0.277238, -2323, -2129, -4289, 1863, 419, -989
0.277371, -2323, -2129, -4289, 1863, 419, -989
0.277505, -2323, -2129, -4289, 1863, 419, -989
0.277638, -1902, -1967, -1551, -509, 221, 724
0.277771, -1902, -1967, -1551, -509, 221, 724
0.277905, -1902, -1967, -1551, -509, 221, 724
0.278033, -1902, -1967, -1551, -509, 221, 724
0.278165, -1902, -1967, -1551, -509, 221, 724
0.278301, -1902, -1967, -1551, -509, 221, 724
0.278435, -1902, -1967, -1551, -509, 221, 724
0.278568, -1902, -1967, -1551, -509, 221, 724
0.278701, -122, -2022, 774, -1091, -183, 1483
0.278835, -122, -2022, 774, -1091, -183, 1483
0.278969, -122, -2022, 774, -1091, -183, 1483
0.279102, -122, -2022, 774, -1091, -183, 1483
0.279235, -122, -2022, 774, -1091, -183, 1483
0.279369, -122, -2022, 774, -1091, -183, 1483
0.279502, -122, -2022, 774, -1091, -183, 1483
0.279636, 616, -2091, 36, -880, -364, 1013
0.279769, 616, -2091, 36, -880, -364, 1013
0.279903, 616, -2091, 36, -880, -364, 1013
0.280036, 616, -2091, 36, -880, -364, 1013
0.280170, 616, -2091, 36, -880, -364, 1013
0.280304, 616, -2091, 36, -880, -364, 1013
0.280438, 616, -2091, 36, -880, -364, 1013
0.280598, 616, -2091, 36, -880, -364, 1013
0.280733, 596, -2064, -116, -812, -337, 382
0.280867, 596, -2064, -116, -812, -337, 382
0.281000, 596, -2064, -116, -812, -337, 382
0.281134, 596, -2064, -116, -812, -337, 382
0.281267, 596, -2064, -116, -812, -337, 382
0.281400, 596, -2064, -116, -812, -337, 382
0.281534, 596, -2064, -116, -812, -337, 382
0.281667, 399, -2069, 189, -664, -333, 32
0.281801, 399, -2069, 189, -664, -333, 32
0.281934, 399, -2069, 189, -664, -333, 32
0.282069, 399, -2069, 189, -664, -333, 32
0.282206, 399, -2069, 189, -664, -333, 32
0.282340, 399, -2069, 189, -664, -333, 32
0.282474, 399, -2069, 189, -664, -333, 32
0.282607, 399, -2069, 189, -664, -333, 32
0.282741, 100, -2091, 249, -393, -302, -43
0.282874, 100, -2091, 249, -393, -302, -43
0.283008, 100, -2091, 249, -393, -302, -43
0.283141, 100, -2091, 249, -393, -302, -43
0.283286, 100, -2091, 249, -393, -302, -43
0.283427, 100, -2091, 249, -393, -302, -43
0.283562, 100, -2091, 249, -393, -302, -43
0.283695, 318, -2090, 502, -30, -234, 0
0.283829, 318, -2090, 502, -30, -234, 0
0.283962, 318, -2090, 502, -30, -234, 0
0.284096, 318, -2090, 502, -30, -234, 0
0.284229, 318, -2090, 502, -30, -234, 0
0.284363, 318, -2090, 502, -30, -234, 0
0.284496, 318, -2090, 502, -30, -234, 0
0.284630, 318, -2090, 502, -30, -234, 0
0.284763, 1043, -2066, 980, 535, -179, -284
0.284897, 1043, -2066, 980, 535, -179, -284
0.285030, 1043, -2066, 980, 535, -179, -284
0.285164, 1043, -2066, 980, 535, -179, -284
0.285297, 1043, -2066, 980, 535, -179, -284
0.285430, 1043, -2066, 980, 535, -179, -284
0.285564, 1043, -2066, 980, 535, -179, -284
0.285697, 1043, -2066, 980, 535, -179, -284
0.285831, 1091, -2083, 881, 1280, -43, -977
0.285964, 1091, -2083, 881, 1280, -43, -977
0.286098, 1091, -2083, 881, 1280, -43, -977
0.286231, 1091, -2083, 881, 1280, -43, -977
0.286365, 1091, -2083, 881, 1280, -43, -977
0.286498, 1091, -2083, 881, 1280, -43, -977
0.286631, 1091, -2083, 881, 1280, -43, -977
0.286765, -112, -2111, -437, 1604, 183, -1398
0.286898, -112, -2111, -437, 1604, 183, -1398
0.287032, -112, -2111, -437, 1604, 183, -1398
0.287165, -112, -2111, -437, 1604, 183, -1398
0.287299, -112, -2111, -437, 1604, 183, -1398
0.287432, -112, -2111, -437, 1604, 183, -1398
0.287561, -112, -2111, -437, 1604, 183, -1398
0.287698, -112, -2111, -437, 1604, 183, -1398
0.287831, -1290, -2032, -1389, 1000, 283, -938
0.287965, -1290, -2032, -1389, 1000, 283, -938
0.288098, -1290, -2032, -1389, 1000, 283, -938
0.288232, -1290, -2032, -1389, 1000, 283, -938
0.288366, -1290, -2032, -1389, 1000, 283, -938
0.288499, -1290, -2032, -1389, 1000, 283, -938
0.288633, -1290, -2032, -1389, 1000, 283, -938
0.288766, -1029, -1982, -692, 112, 145, -67
0.288895, -1029, -1982, -692, 112, 145, -67
0.289029, -1029, -1982, -692, 112, 145, -67
0.289162, -1029, -1982, -692, 112, 145, -67
0.289296, -1029, -1982, -692, 112, 145, -67
0.289429, -1029, -1982, -692, 112, 145, -67
0.289562, -1029, -1982, -692, 112, 145, -67
0.289696, -1029, -1982, -692, 112, 145, -67
0.289829, -115, -2048, 48, -275, -52, 267
0.289963, -115, -2048, 48, -275, -52, 267
0.290096, -115, -2048, 48, -275, -52, 267
0.290230, -115, -2048, 48, -275, -52, 267
0.290363, -115, -2048, 48, -275, -52, 267
0.290497, -115, -2048, 48, -275, -52, 267
0.290630, -115, -2048, 48, -275, -52, 267
0.290764, -115, -2048, 48, -275, -52, 267
0.290897, 135, -2087, 145, -259, -131, 34
0.291031, 135, -2087, 145, -259, -131, 34
0.291164, 135, -2087, 145, -259, -131, 34
0.291298, 135, -2087, 145, -259, -131, 34
0.291431, 135, -2087, 145, -259, -131, 34
0.291565, 135, -2087, 145, -259, -131, 34
0.291698, 135, -2087, 145, -259, -131, 34
0.291832, -156, -2073, 198, -102, -155, -161
0.291965, -156, -2073, 198, -102, -155, -161
0.292099, -156, -2073, 198, -102, -155, -161
0.292232, -156, -2073, 198, -102, -155, -161
0.292367, -156, -2073, 198, -102, -155, -161
0.292501, -156, -2073, 198, -102, -155, -161
0.292635, -156, -2073, 198, -102, -155, -161
0.292770, -156, -2073, 198, -102, -155, -161
0.292904, -234, -2053, 319, 125, -180, -77
0.293038, -234, -2053, 319, 125, -180, -77
0.293186, -234, -2053, 319, 125, -180, -77
0.293321, -234, -2053, 319, 125, -180, -77
0.293455, -234, -2053, 319, 125, -180, -77
0.293589, -234, -2053, 319, 125, -180, -77
0.293723, -234, -2053, 319, 125, -180, -77
0.293857, 343, -2027, 753, 531, -179, -21
0.293992, 343, -2027, 753, 531, -179, -21
0.294126, 343, -2027, 753, 531, -179, -21
0.294260, 343, -2027, 753, 531, -179, -21
0.294394, 343, -2027, 753, 531, -179, -21
0.294528, 343, -2027, 753, 531, -179, -21
0.294663, 343, -2027, 753, 531, -179, -21
0.294797, 343, -2027, 753, 531, -179, -21
0.294931, 810, -2043, 757, 1179, -133, -367
0.295065, 810, -2043, 757, 1179, -133, -367
0.295199, 810, -2043, 757, 1179, -133, -367
0.295333, 810, -2043, 757, 1179, -133, -367
0.295468, 810, -2043, 757, 1179, -133, -367
0.295602, 810, -2043, 757, 1179, -133, -367
0.295736, 810, -2043, 757, 1179, -133, -367
0.295870, 164, -2069, -338, 1532, -22, -767
0.296005, 164, -2069, -338, 1532, -22, -767
0.296139, 164, -2069, -338, 1532, -22, -767
0.296273, 164, -2069, -338, 1532, -22, -767
0.296409, 164, -2069, -338, 1532, -22, -767
0.296544, 164, -2069, -338, 1532, -22, -767
0.296678, 164, -2069, -338, 1532, -22, -767
0.296812, 164, -2069, -338, 1532, -22, -767
0.296946, -702, -2043, -1057, 1156, 79, -580
0.297081, -702, -2043, -1057, 1156, 79, -580
0.297215, -702, -2043, -1057, 1156, 79, -580
0.297349, -702, -2043, -1057, 1156, 79, -580
0.297483, -702, -2043, -1057, 1156, 79, -580
0.297617, -702, -2043, -1057, 1156, 79, -580
0.297752, -702, -2043, -1057, 1156, 79, -580
0.297886, -810, -2032, -831, 460, 37, -3
0.298020, -810, -2032, -831, 460, 37, -3
0.298154, -810, -2032, -831, 460, 37, -3
0.298289, -810, -2032, -831, 460, 37, -3
0.298423, -810, -2032, -831, 460, 37, -3
0.298557, -810, -2032, -831, 460, 37, -3
0.298691, -810, -2032, -831, 460, 37, -3
0.298826, -810, -2032, -831, 460, 37, -3
0.298960, -455, -2046, -527, -126, -104, 419
0.299094, -455, -2046, -527, -126, -104, 419
0.299228, -455, -2046, -527, -126, -104, 419
0.299362, -455, -2046, -527, -126, -104, 419
0.299496, -455, -2046, -527, -126, -104, 419
0.299631, -455, -2046, -527, -126, -104, 419
0.299765, -455, -2046, -527, -126, -104, 419
0.299899, 57, -2064, -83, -443, -213, 489
0.300033, 57, -2064, -83, -443, -213, 489
0.300168, 57, -2064, -83, -443, -213, 489
0.300302, 57, -2064, -83, -443, -213, 489
0.300436, 57, -2064, -83, -443, -213, 489
0.300571, 57, -2064, -83, -443, -213, 489
0.300705, 57, -2064, -83, -443, -213, 489
0.300839, 57, -2064, -83, -443, -213, 489
0.300973, 443, -2080, 346, -381, -254, 239
0.301107, 443, -2080, 346, -381, -254, 239
0.301242, 443, -2080, 346, -381, -254, 239
0.301376, 443, -2080, 346, -381, -254, 239
0.301510, 443, -2080, 346, -381, -254, 239
0.301644, 443, -2080, 346, -381, -254, 239
0.301778, 443, -2080, 346, -381, -254, 239
0.301913, 443, -2080, 346, -381, -254, 239
0.302047, 563, -2081, 413, -84, -218, -139
0.302181, 563, -2081, 413, -84, -218, -139
0.302315, 563, -2081, 413, -84, -218, -139
0.302450, 563, -2081, 413, -84, -218, -139
0.302584, 563, -2081, 413, -84, -218, -139
0.302718, 563, -2081, 413, -84, -218, -139
0.302852, 563, -2081, 413, -84, -218, -139
0.302986, 442, -2079, 287, 226, -134, -459
0.303121, 442, -2079, 287, 226, -134, -459
0.303255, 442, -2079, 287, 226, -134, -459
0.303389, 442, -2079, 287, 226, -134, -459
0.303523, 442, -2079, 287, 226, -134, -459
0.303657, 442, -2079, 287, 226, -134, -459
0.303792, 442, -2079, 287, 226, -134, -459
0.303926, 442, -2079, 287, 226, -134, -459
0.304060, 128, -2034, 115, 450, -66, -597
0.304194, 128, -2034, 115, 450, -66, -597
0.304329, 128, -2034, 115, 450, -66, -597
0.304463, 128, -2034, 115, 450, -66, -597
0.304597, 128, -2034, 115, 450, -66, -597
0.304731, 128, -2034, 115, 450, -66, -597
0.304865, 128, -2034, 115, 450, -66, -597
0.304999, -125, -2017, -136, 526, -27, -534
0.305134, -125, -2017, -136, 526, -27, -534
0.305268, -125, -2017, -136, 526, -27, -534
0.305402, -125, -2017, -136, 526, -27, -534
0.305536, -125, -2017, -136, 526, -27, -534
0.305671, -125, -2017, -136, 526, -27, -534
0.305805, -125, -2017, -136, 526, -27, -534
0.305945, -125, -2017, -136, 526, -27, -534
0.306079, -533, -2092, -546, 344, -11, -343
0.306214, -533, -2092, -546, 344, -11, -343
0.306348, -533, -2092, -546, 344, -11, -343
0.306482, -533, -2092, -546, 344, -11, -343
0.306616, -533, -2092, -546, 344, -11, -343
0.306750, -533, -2092, -546, 344, -11, -343
0.306884, -533, -2092, -546, 344, -11, -343
0.307015, -1113, -2105, -668, -78, -45, 114
0.307151, -1113, -2105, -668, -78, -45, 114
0.307286, -1113, -2105, -668, -78, -45, 114
0.307426, -1113, -2105, -668, -78, -45, 114
0.307561, -1113, -2105, -668, -78, -45, 114
0.307695, -1113, -2105, -668, -78, -45, 114
0.307829, -1113, -2105, -668, -78, -45, 114
0.307964, -1113, -2105, -668, -78, -45, 114
0.308098, -923, -2037, -242, -456, -172, 766
0.308232, -923, -2037, -242, -456, -172, 766
0.308367, -923, -2037, -242, -456, -172, 766
0.308501, -923, -2037, -242, -456, -172, 766
0.308636, -923, -2037, -242, -456, -172, 766
0.308770, -923, -2037, -242, -456, -172, 766
0.308904, -923, -2037, -242, -456, -172, 766
0.309038, -19, -2044, 170, -549, -333, 1030
0.309172, -19, -2044, 170, -549, -333, 1030
0.309307, -19, -2044, 170, -549, -333, 1030
0.309441, -19, -2044, 170, -549, -333, 1030
0.309575, -19, -2044, 170, -549, -333, 1030
0.309709, -19, -2044, 170, -549, -333, 1030
0.309843, -19, -2044, 170, -549, -333, 1030
0.309977, -19, -2044, 170, -549, -333, 1030
0.310112, 540, -2091, 383, -353, -398, 708
0.310246, 540, -2091, 383, -353, -398, 708
0.310380, 540, -2091, 383, -353, -398, 708
0.310514, 540, -2091, 383, -353, -398, 708
0.310649, 540, -2091, 383, -353, -398, 708
0.310783, 540, -2091, 383, -353, -398, 708
0.310917, 540, -2091, 383, -353, -398, 708
0.311051, 633, -2074, 613, 67, -351, 217
0.311186, 633, -2074, 613, 67, -351, 217
0.311320, 633, -2074, 613, 67, -351, 217
0.311454, 633, -2074, 613, 67, -351, 217
0.311588, 633, -2074, 613, 67, -351, 217
0.311722, 633, -2074, 613, 67, -351, 217
0.311856, 633, -2074, 613, 67, -351, 217
0.311991, 633, -2074, 613, 67, -351, 217
0.312125, 775, -2028, 862, 662, -253, -208
0.312259, 775, -2028, 862, 662, -253, -208
0.312394, 775, -2028, 862, 662, -253, -208
0.312528, 775, -2028, 862, 662, -253, -208
0.312662, 775, -2028, 862, 662, -253, -208
0.312796, 775, -2028, 862, 662, -253, -208
0.312930, 775, -2028, 862, 662, -253, -208
0.313064, 775, -2028, 862, 662, -253, -208
0.313199, 995, -1989, 969, 1392, -129, -690
0.313333, 995, -1989, 969, 1392, -129, -690
0.313467, 995, -1989, 969, 1392, -129, -690
0.313601, 995, -1989, 969, 1392, -129, -690
0.313736, 995, -1989, 969, 1392, -129, -690
0.313870, 995, -1989, 969, 1392, -129, -690
0.314004, 995, -1989, 969, 1392, -129, -690
0.314138, 522, -2025, -39, 1932, 38, -1170
0.314273, 522, -2025, -39, 1932, 38, -1170
0.314407, 522, -2025, -39, 1932, 38, -1170
0.314541, 522, -2025, -39, 1932, 38, -1170
0.314675, 522, -2025, -39, 1932, 38, -1170
0.314809, 522, -2025, -39, 1932, 38, -1170
0.314943, 522, -2025, -39, 1932, 38, -1170
0.315078, 522, -2025, -39, 1932, 38, -1170
0.315212, -847, -2091, -1991, 1423, 209, -1091
0.315346, -847, -2091, -1991, 1423, 209, -1091
0.315480, -847, -2091, -1991, 1423, 209, -1091
0.315615, -847, -2091, -1991, 1423, 209, -1091
0.315749, -847, -2091, -1991, 1423, 209, -1091
0.315883, -847, -2091, -1991, 1423, 209, -1091
0.316017, -847, -2091, -1991, 1423, 209, -1091
0.316151, -1540, -2051, -1979, -78, 218, -200
0.316286, -1540, -2051, -1979, -78, 218, -200
0.316420, -1540, -2051, -1979, -78, 218, -200
0.316554, -1540, -2051, -1979, -78, 218, -200
0.316689, -1540, -2051, -1979, -78, 218, -200
0.316823, -1540, -2051, -1979, -78, 218, -200
0.316957, -1540, -2051, -1979, -78, 218, -200
0.317091, -1540, -2051, -1979, -78, 218, -200
0.317225, -818, -2039, -141, -1093, 8, 689
0.317360, -818, -2039, -141, -1093, 8, 689
0.317494, -818, -2039, -141, -1093, 8, 689
0.317628, -818, -2039, -141, -1093, 8, 689
0.317762, -818, -2039, -141, -1093, 8, 689
0.317896, -818, -2039, -141, -1093, 8, 689
0.318031, -818, -2039, -141, -1093, 8, 689
0.318165, -18, -2084, 467, -1122, -193, 855
0.318299, -18, -2084, 467, -1122, -193, 855
0.318450, -18, -2084, 467, -1122, -193, 855
0.318585, -18, -2084, 467, -1122, -193, 855
0.318719, -18, -2084, 467, -1122, -193, 855
0.318853, -18, -2084, 467, -1122, -193, 855
0.318988, -18, -2084, 467, -1122, -193, 855
0.319122, -18, -2084, 467, -1122, -193, 855
0.319256, 76, -2076, 80, -906, -246, 609
0.319390, 76, -2076, 80, -906, -246, 609
0.319524, 76, -2076, 80, -906, -246, 609
0.319659, 76, -2076, 80, -906, -246, 609
0.319793, 76, -2076, 80, -906, -246, 609
0.319927, 76, -2076, 80, -906, -246, 609
0.320061, 76, -2076, 80, -906, -246, 609
0.320195, -93, -2060, -18, -791, -270, 490
0.320330, -93, -2060, -18, -791, -270, 490
0.320464, -93, -2060, -18, -791, -270, 490
0.320598, -93, -2060, -18, -791, -270, 490
0.320732, -93, -2060, -18, -791, -270, 490
0.320866, -93, -2060, -18, -791, -270, 490
0.321001, -93, -2060, -18, -791, -270, 490
0.321135, -93, -2060, -18, -791, -270, 490
0.321269, 170, -2073, 114, -690, -309, 506
0.321403, 170, -2073, 114, -690, -309, 506
0.321537, 170, -2073, 114, -690, -309, 506
0.321672, 170, -2073, 114, -690, -309, 506
0.321806, 170, -2073, 114, -690, -309, 506
0.321940, 170, -2073, 114, -690, -309, 506
0.322074, 170, -2073, 114, -690, -309, 506
0.322208, 668, -2100, 436, -443, -298, 314
0.322342, 668, -2100, 436, -443, -298, 314
0.322476, 668, -2100, 436, -443, -298, 314
0.322611, 668, -2100, 436, -443, -298, 314
0.322745, 668, -2100, 436, -443, -298, 314
0.322879, 668, -2100, 436, -443, -298, 314
0.323013, 668, -2100, 436, -443, -298, 314
0.323147, 668, -2100, 436, -443, -298, 314
0.323281, 773, -2089, 931, 82, -215, -114
0.323415, 773, -2089, 931, 82, -215, -114
0.323549, 773, -2089, 931, 82, -215, -114
0.323683, 773, -2089, 931, 82, -215, -114
0.323817, 773, -2089, 931, 82, -215, -114
0.323951, 773, -2089, 931, 82, -215, -114
0.324086, 773, -2089, 931, 82, -215, -114
0.324220, 773, -2089, 931, 82, -215, -114
0.324354, 932, -2012, 1606, 993, -86, -564
0.324488, 932, -2012, 1606, 993, -86, -564
0.324623, 932, -2012, 1606, 993, -86, -564
0.324757, 932, -2012, 1606, 993, -86, -564
0.324891, 932, -2012, 1606, 993, -86, -564
0.325025, 932, -2012, 1606, 993, -86, -564
0.325159, 932, -2012, 1606, 993, -86, -564
0.325293, 1041, -1955, 1417, 2229, 89, -1135
0.325427, 1041, -1955, 1417, 2229, 89, -1135
0.325563, 1041, -1955, 1417, 2229, 89, -1135
0.325698, 1041, -1955, 1417, 2229, 89, -1135
0.325833, 1041, -1955, 1417, 2229, 89, -1135
0.325967, 1041, -1955, 1417, 2229, 89, -1135
0.326101, 1041, -1955, 1417, 2229, 89, -1135
0.326236, 1041, -1955, 1417, 2229, 89, -1135
0.326370, -109, -2031, -1076, 2673, 282, -1554
0.326504, -109, -2031, -1076, 2673, 282, -1554
0.326638, -109, -2031, -1076, 2673, 282, -1554
0.326772, -109, -2031, -1076, 2673, 282, -1554
0.326906, -109, -2031, -1076, 2673, 282, -1554
0.327040, -109, -2031, -1076, 2673, 282, -1554
0.327174, -109, -2031, -1076, 2673, 282, -1554
0.327308, -1519, -2105, -2795, 1351, 394, -1023
0.327443, -1519, -2105, -2795, 1351, 394, -1023
0.327577, -1519, -2105, -2795, 1351, 394, -1023
0.327711, -1519, -2105, -2795, 1351, 394, -1023
0.327845, -1519, -2105, -2795, 1351, 394, -1023
0.327978, -1519, -2105, -2795, 1351, 394, -1023
0.328112, -1519, -2105, -2795, 1351, 394, -1023
0.328246, -1519, -2105, -2795, 1351, 394, -1023
0.328381, -1053, -2038, -1097, -299, 293, 66
0.328515, -1053, -2038, -1097, -299, 293, 66
0.328649, -1053, -2038, -1097, -299, 293, 66
0.328783, -1053, -2038, -1097, -299, 293, 66
0.328918, -1053, -2038, -1097, -299, 293, 66
0.329052, -1053, -2038, -1097, -299, 293, 66
0.329186, -1053, -2038, -1097, -299, 293, 66
0.329320, 159, -2019, 283, -815, 69, 396
0.329455, 159, -2019, 283, -815, 69, 396
0.329589, 159, -2019, 283, -815, 69, 396
0.329723, 159, -2019, 283, -815, 69, 396
0.329857, 159, -2019, 283, -815, 69, 396
0.329991, 159, -2019, 283, -815, 69, 396
0.330125, 159, -2019, 283, -815, 69, 396
0.330259, 159, -2019, 283, -815, 69, 396
0.330393, 221, -2075, -130, -825, -8, 3
0.330527, 221, -2075, -130, -825, -8, 3
0.330662, 221, -2075, -130, -825, -8, 3
0.330796, 221, -2075, -130, -825, -8, 3
0.330930, 221, -2075, -130, -825, -8, 3
0.331064, 221, -2075, -130, -825, -8, 3
0.331212, 221, -2075, -130, -825, -8, 3
0.331348, -227, -2075, -248, -922, 9, -166
0.331482, -227, -2075, -248, -922, 9, -166
0.331616, -227, -2075, -248, -922, 9, -166
0.331751, -227, -2075, -248, -922, 9, -166
0.331885, -227, -2075, -248, -922, 9, -166
0.332019, -227, -2075, -248, -922, 9, -166
0.332153, -227, -2075, -248, -922, 9, -166
0.332288, -227, -2075, -248, -922, 9, -166
0.332422, -277, -2058, -7, -932, -72, 17
0.332557, -277, -2058, -7, -932, -72, 17
0.332691, -277, -2058, -7, -932, -72, 17
0.332825, -277, -2058, -7, -932, -72, 17
0.332959, -277, -2058, -7, -932, -72, 17
0.333093, -277, -2058, -7, -932, -72, 17
0.333228, -277, -2058, -7, -932, -72, 17
0.333362, -164, -2067, 48, -839, -159, 194
0.333496, -164, -2067, 48, -839, -159, 194
0.333630, -164, -2067, 48, -839, -159, 194
0.333764, -164, -2067, 48, -839, -159, 194
0.333899, -164, -2067, 48, -839, -159, 194
0.334033, -164, -2067, 48, -839, -159, 194
0.334167, -164, -2067, 48, -839, -159, 194
0.334301, -164, -2067, 48, -839, -159, 194
0.334435, -158, -2079, 57, -746, -163, 292
0.334570, -158, -2079, 57, -746, -163, 292
0.334704, -158, -2079, 57, -746, -163, 292
0.334838, -158, -2079, 57, -746, -163, 292
0.334972, -158, -2079, 57, -746, -163, 292
0.335106, -158, -2079, 57, -746, -163, 292
0.335240, -158, -2079, 57, -746, -163, 292
0.335374, -158, -2079, 57, -746, -163, 292
0.335509, -32, -2072, 125, -638, -179, 360
0.335643, -32, -2072, 125, -638, -179, 360
0.335777, -32, -2072, 125, -638, -179, 360
0.335911, -32, -2072, 125, -638, -179, 360
0.336045, -32, -2072, 125, -638, -179, 360
0.336179, -32, -2072, 125, -638, -179, 360
0.336314, -32, -2072, 125, -638, -179, 360
0.336448, 207, -2057, 202, -482, -219, 295
0.336582, 207, -2057, 202, -482, -219, 295
0.336717, 207, -2057, 202, -482, -219, 295
0.336851, 207, -2057, 202, -482, -219, 295
0.336985, 207, -2057, 202, -482, -219, 295
0.337119, 207, -2057, 202, -482, -219, 295
0.337253, 207, -2057, 202, -482, -219, 295
0.337387, 207, -2057, 202, -482, -219, 295
0.337521, 191, -2055, 208, -313, -180, 113
0.337656, 191, -2055, 208, -313, -180, 113
0.337790, 191, -2055, 208, -313, -180, 113
0.337924, 191, -2055, 208, -313, -180, 113
0.338058, 191, -2055, 208, -313, -180, 113
0.338192, 191, -2055, 208, -313, -180, 113
0.338326, 191, -2055, 208, -313, -180, 113
0.338460, 204, -2065, 154, -173, -110, -28
0.338595, 204, -2065, 154, -173, -110, -28
0.338729, 204, -2065, 154, -173, -110, -28
0.338863, 204, -2065, 154, -173, -110, -28
0.338997, 204, -2065, 154, -173, -110, -28
0.339131, 204, -2065, 154, -173, -110, -28
0.339265, 204, -2065, 154, -173, -110, -28
0.339400, 204, -2065, 154, -173, -110, -28
0.339534, 392, -2068, 125, -63, -90, -222
0.339668, 392, -2068, 125, -63, -90, -222
0.339802, 392, -2068, 125, -63, -90, -222
0.339936, 392, -2068, 125, -63, -90, -222
0.340071, 392, -2068, 125, -63, -90, -222
0.340205, 392, -2068, 125, -63, -90, -222
0.340339, 392, -2068, 125, -63, -90, -222
0.340473, 308, -2058, 136, 43, -49, -487
0.340607, 308, -2058, 136, 43, -49, -487
0.340742, 308, -2058, 136, 43, -49, -487
0.340876, 308, -2058, 136, 43, -49, -487
0.341010, 308, -2058, 136, 43, -49, -487
0.341144, 308, -2058, 136, 43, -49, -487
0.341278, 308, -2058, 136, 43, -49, -487
0.341412, 308, -2058, 136, 43, -49, -487
0.341546, 219, -2032, 277, 196, 25, -638
0.341680, 219, -2032, 277, 196, 25, -638
0.341815, 219, -2032, 277, 196, 25, -638
0.341949, 219, -2032, 277, 196, 25, -638
0.342083, 219, -2032, 277, 196, 25, -638
0.342217, 219, -2032, 277, 196, 25, -638
0.342351, 219, -2032, 277, 196, 25, -638
0.342485, 388, -2033, 544, 502, 67, -781
0.342619, 388, -2033, 544, 502, 67, -781
0.342753, 388, -2033, 544, 502, 67, -781
0.342888, 388, -2033, 544, 502, 67, -781
0.343022, 388, -2033, 544, 502, 67, -781
0.343156, 388, -2033, 544, 502, 67, -781
0.343290, 388, -2033, 544, 502, 67, -781
0.343424, 388, -2033, 544, 502, 67, -781
0.343558, 460, -2070, 618, 978, 118, -1040
0.343692, 460, -2070, 618, 978, 118, -1040
0.343827, 460, -2070, 618, 978, 118, -1040
0.343961, 460, -2070, 618, 978, 118, -1040
0.344100, 460, -2070, 618, 978, 118, -1040
0.344235, 460, -2070, 618, 978, 118, -1040
0.344369, 460, -2070, 618, 978, 118, -1040
0.344503, 143, -2072, 80, 1367, 214, -1253
0.344636, 143, -2072, 80, 1367, 214, -1253
0.344770, 143, -2072, 80, 1367, 214, -1253
0.344903, 143, -2072, 80, 1367, 214, -1253
0.345037, 143, -2072, 80, 1367, 214, -1253
0.345170, 143, -2072, 80, 1367, 214, -1253
0.345304, 143, -2072, 80, 1367, 214, -1253
0.345437, 143, -2072, 80, 1367, 214, -1253
0.345570, -648, -2050, -994, 1179, 283, -1132
0.345704, -648, -2050, -994, 1179, 283, -1132
0.345837, -648, -2050, -994, 1179, 283, -1132
0.345971, -648, -2050, -994, 1179, 283, -1132
0.346104, -648, -2050, -994, 1179, 283, -1132
0.346238, -648, -2050, -994, 1179, 283, -1132
0.346371, -648, -2050, -994, 1179, 283, -1132
0.346504, -648, -2050, -994, 1179, 283, -1132
0.346638, -1146, -2067, -1160, 374, 246, -513
0.346771, -1146, -2067, -1160, 374, 246, -513
0.346905, -1146, -2067, -1160, 374, 246, -513
0.347038, -1146, -2067, -1160, 374, 246, -513
0.347171, -1146, -2067, -1160, 374, 246, -513
0.347305, -1146, -2067, -1160, 374, 246, -513
0.347438, -1146, -2067, -1160, 374, 246, -513
0.347572, -742, -2083, -148, -243, 108, 184
0.347705, -742, -2083, -148, -243, 108, 184
0.347839, -742, -2083, -148, -243, 108, 184
0.347972, -742, -2083, -148, -243, 108, 184
0.348106, -742, -2083, -148, -243, 108, 184
0.348239, -742, -2083, -148, -243, 108, 184
0.348374, -742, -2083, -148, -243, 108, 184
0.348509, -742, -2083, -148, -243, 108, 184
0.348643, -121, -2057, 302, -245, -36, 424
0.348777, -121, -2057, 302, -245, -36, 424
0.348911, -121, -2057, 302, -245, -36, 424
0.349045, -121, -2057, 302, -245, -36, 424
0.349180, -121, -2057, 302, -245, -36, 424
0.349314, -121, -2057, 302, -245, -36, 424
0.349448, -121, -2057, 302, -245, -36, 424
0.349582, 125, -2043, 123, -42, -109, 280
0.349717, 125, -2043, 123, -42, -109, 280
0.349851, 125, -2043, 123, -42, -109, 280
0.349985, 125, -2043, 123, -42, -109, 280
0.350119, 125, -2043, 123, -42, -109, 280
0.350253, 125, -2043, 123, -42, -109, 280
0.350388, 125, -2043, 123, -42, -109, 280
0.350522, 125, -2043, 123, -42, -109, 280
0.350656, 58, -2081, 125, 102, -124, 124
0.350790, 58, -2081, 125, 102, -124, 124
0.350924, 58, -2081, 125, 102, -124, 124
0.351059, 58, -2081, 125, 102, -124, 124
0.351193, 58, -2081, 125, 102, -124, 124
0.351327, 58, -2081, 125, 102, -124, 124
0.351461, 58, -2081, 125, 102, -124, 124
0.351595, 193, -2115, 377, 297, -117, 72
0.351730, 193, -2115, 377, 297, -117, 72
0.351864, 193, -2115, 377, 297, -117, 72
0.351998, 193, -2115, 377, 297, -117, 72
0.352132, 193, -2115, 377, 297, -117, 72
0.352267, 193, -2115, 377, 297, -117, 72
0.352401, 193, -2115, 377, 297, -117, 72
0.352535, 193, -2115, 377, 297, -117, 72
0.352668, 530, -2067, 554, 667, -89, -109
0.352802, 530, -2067, 554, 667, -89, -109
0.352935, 530, -2067, 554, 667, -89, -109
0.353069, 530, -2067, 554, 667, -89, -109
0.353202, 530, -2067, 554, 667, -89, -109
0.353336, 530, -2067, 554, 667, -89, -109
0.353469, 530, -2067, 554, 667, -89, -109
0.353602, 530, -2067, 554, 667, -89, -109
0.353736, 275, -2004, -1, 962, -12, -411
0.353870, 275, -2004, -1, 962, -12, -411
0.354003, 275, -2004, -1, 962, -12, -411
0.354136, 275, -2004, -1, 962, -12, -411
0.354270, 275, -2004, -1, 962, -12, -411
0.354403, 275, -2004, -1, 962, -12, -411
0.354537, 275, -2004, -1, 962, -12, -411
0.354670, -327, -2001, -796, 742, 75, -416
0.354804, -327, -2001, -796, 742, 75, -416
0.354937, -327, -2001, -796, 742, 75, -416
0.355071, -327, -2001, -796, 742, 75, -416
0.355204, -327, -2001, -796, 742, 75, -416
0.355337, -327, -2001, -796, 742, 75, -416
0.355471, -327, -2001, -796, 742, 75, -416
0.355604, -327, -2001, -796, 742, 75, -416
0.355737, -473, -2033, -803, 133, 78, -105
0.355871, -473, -2033, -803, 133, 78, -105
0.356004, -473, -2033, -803, 133, 78, -105
0.356138, -473, -2033, -803, 133, 78, -105
0.356271, -473, -2033, -803, 133, 78, -105
0.356406, -473, -2033, -803, 133, 78, -105
0.356540, -473, -2033, -803, 133, 78, -105
0.356674, -371, -2075, -363, -377, 18, 158
0.356808, -371, -2075, -363, -377, 18, 158
0.356949, -371, -2075, -363, -377, 18, 158
0.357083, -371, -2075, -363, -377, 18, 158
0.357217, -371, -2075, -363, -377, 18, 158
0.357352, -371, -2075, -363, -377, 18, 158
0.357486, -371, -2075, -363, -377, 18, 158
0.357620, -371, -2075, -363, -377, 18, 158
0.357754, -284, -2057, -135, -633, -48, 304
0.357888, -284, -2057, -135, -633, -48, 304
0.358023, -284, -2057, -135, -633, -48, 304
0.358157, -284, -2057, -135, -633, -48, 304
0.358291, -284, -2057, -135, -633, -48, 304
0.358425, -284, -2057, -135, -633, -48, 304
0.358559, -284, -2057, -135, -633, -48, 304
0.358693, 2, -2012, -66, -718, -113, 351
0.358828, 2, -2012, -66, -718, -113, 351
0.358962, 2, -2012, -66, -718, -113, 351
0.359096, 2, -2012, -66, -718, -113, 351
0.359230, 2, -2012, -66, -718, -113, 351
0.359365, 2, -2012, -66, -718, -113, 351
0.359499, 2, -2012, -66, -718, -113, 351
0.359633, 2, -2012, -66, -718, -113, 351
0.359767, 86, -2028, -75, -719, -153, 244
0.359901, 86, -2028, -75, -719, -153, 244
0.360036, 86, -2028, -75, -719, -153, 244
0.360170, 86, -2028, -75, -719, -153, 244
0.360304, 86, -2028, -75, -719, -153, 244
0.360439, 86, -2028, -75, -719, -153, 244
0.360573, 86, -2028, -75, -719, -153, 244
0.360707, 86, -2028, -75, -719, -153, 244
0.360838, -241, -2061, -129, -728, -167, 217
0.360973, -241, -2061, -129, -728, -167, 217
0.361107, -241, -2061, -129, -728, -167, 217
0.361241, -241, -2061, -129, -728, -167, 217
0.361376, -241, -2061, -129, -728, -167, 217
0.361510, -241, -2061, -129, -728, -167, 217
0.361644, -241, -2061, -129, -728, -167, 217
0.361778, -214, -2072, 45, -734, -194, 398
0.361912, -214, -2072, 45, -734, -194, 398
0.362047, -214, -2072, 45, -734, -194, 398
0.362181, -214, -2072, 45, -734, -194, 398
0.362315, -214, -2072, 45, -734, -194, 398
0.362449, -214, -2072, 45, -734, -194, 398
0.362583, -214, -2072, 45, -734, -194, 398
0.362717, -214, -2072, 45, -734, -194, 398
0.362851, 289, -2074, 463, -553, -230, 441
0.362986, 289, -2074, 463, -553, -230, 441
0.363120, 289, -2074, 463, -553, -230, 441
0.363254, 289, -2074, 463, -553, -230, 441
0.363388, 289, -2074, 463, -553, -230, 441
0.363522, 289, -2074, 463, -553, -230, 441
0.363656, 289, -2074, 463, -553, -230, 441
0.363791, 725, -2068, 867, -63, -205, 133
0.363925, 725, -2068, 867, -63, -205, 133
0.364059, 725, -2068, 867, -63, -205, 133
0.364193, 725, -2068, 867, -63, -205, 133
0.364328, 725, -2068, 867, -63, -205, 133
0.364462, 725, -2068, 867, -63, -205, 133
0.364596, 725, -2068, 867, -63, -205, 133
0.364730, 725, -2068, 867, -63, -205, 133
0.364864, 581, -2089, 681, 589, -88, -340
0.364999, 581, -2089, 681, 589, -88, -340
0.365133, 581, -2089, 681, 589, -88, -340
0.365267, 581, -2089, 681, 589, -88, -340
0.365401, 581, -2089, 681, 589, -88, -340
0.365535, 581, -2089, 681, 589, -88, -340
0.365669, 581, -2089, 681, 589, -88, -340
0.365803, -332, -2121, -424, 839, 30, -497
0.365938, -332, -2121, -424, 839, 30, -497
0.366072, -332, -2121, -424, 839, 30, -497
0.366206, -332, -2121, -424, 839, 30, -497
0.366340, -332, -2121, -424, 839, 30, -497
0.366474, -332, -2121, -424, 839, 30, -497
0.366609, -332, -2121, -424, 839, 30, -497
0.366743, -332, -2121, -424, 839, 30, -497
0.366877, -726, -2087, -802, 438, 54, -67
0.367011, -726, -2087, -802, 438, 54, -67
0.367145, -726, -2087, -802, 438, 54, -67
0.367280, -726, -2087, -802, 438, 54, -67
0.367414, -726, -2087, -802, 438, 54, -67
0.367548, -726, -2087, -802, 438, 54, -67
0.367682, -726, -2087, -802, 438, 54, -67
0.367816, 171, -2038, 169, 139, -12, 276
0.367950, 171, -2038, 169, 139, -12, 276
0.368085, 171, -2038, 169, 139, -12, 276
0.368219, 171, -2038, 169, 139, -12, 276
0.368353, 171, -2038, 169, 139, -12, 276
0.368487, 171, -2038, 169, 139, -12, 276
0.368622, 171, -2038, 169, 139, -12, 276
0.368756, 171, -2038, 169, 139, -12, 276
0.368890, 939, -2043, 575, 389, -58, -113
0.369024, 939, -2043, 575, 389, -58, -113
0.369158, 939, -2043, 575, 389, -58, -113
0.369293, 939, -2043, 575, 389, -58, -113
0.369427, 939, -2043, 575, 389, -58, -113
0.369561, 939, -2043, 575, 389, -58, -113
0.369695, 939, -2043, 575, 389, -58, -113
0.369840, 630, -2056, 44, 688, 15, -768
0.369975, 630, -2056, 44, 688, 15, -768
0.370109, 630, -2056, 44, 688, 15, -768
0.370243, 630, -2056, 44, 688, 15, -768
0.370377, 630, -2056, 44, 688, 15, -768
0.370511, 630, -2056, 44, 688, 15, -768
0.370645, 630, -2056, 44, 688, 15, -768
0.370779, 630, -2056, 44, 688, 15, -768
0.370914, 32, -2049, -116, 700, 128, -986
0.371048, 32, -2049, -116, 700, 128, -986
0.371182, 32, -2049, -116, 700, 128, -986
0.371316, 32, -2049, -116, 700, 128, -986
0.371450, 32, -2049, -116, 700, 128, -986
0.371585, 32, -2049, -116, 700, 128, -986
0.371719, 32, -2049, -116, 700, 128, -986
0.371853, 32, -2049, -116, 700, 128, -986
0.371987, 26, -2015, 439, 787, 176, -848
0.372121, 26, -2015, 439, 787, 176, -848
0.372255, 26, -2015, 439, 787, 176, -848
0.372390, 26, -2015, 439, 787, 176, -848
0.372524, 26, -2015, 439, 787, 176, -848
0.372658, 26, -2015, 439, 787, 176, -848
0.372792, 26, -2015, 439, 787, 176, -848
0.372926, 48, -2000, 183, 1082, 204, -797
0.373061, 48, -2000, 183, 1082, 204, -797
0.373195, 48, -2000, 183, 1082, 204, -797
0.373329, 48, -2000, 183, 1082, 204, -797
0.373463, 48, -2000, 183, 1082, 204, -797
0.373597, 48, -2000, 183, 1082, 204, -797
